bandit0,black_x_pos_random,black_y_pos_random,trials.thisRepN,trials.thisTrialN,trials.thisN,trials.thisIndex,instru_img1.started,instru_img1.stopped,instru_resp.keys,instru_resp.rt,instru_resp.started,instru_resp.stopped,instru_img2.started,instru_img2.stopped,instru_resp2.keys,instru_resp2.rt,instru_resp2.started,instru_resp2.stopped,fixbefore_2.started,fixbefore_2.stopped,rest_image.started,rest_image.stopped,rest_response.keys,rest_response.started,rest_response.stopped,red.started,red.stopped,green.started,green.stopped,yellow.started,yellow.stopped,blue.started,blue.stopped,choose_bandit.keys,choose_bandit.rt,choose_bandit.started,choose_bandit.stopped,Fixation.started,Fixation.stopped,black.started,black.stopped,red_2.started,red_2.stopped,green_2.started,green_2.stopped,yellow_2.started,yellow_2.stopped,blue_2.started,blue_2.stopped,fixation_2.started,fixation_2.stopped,docs.started,docs.stopped,wait_playerB.started,wait_playerB.stopped,black_com.started,black_com.stopped,reward_sub.started,reward_sub.stopped,palyerb.started,palyerb.stopped,reward__sub.started,reward__sub.stopped,compare.started,compare.stopped,red_compare.started,red_compare.stopped,green_com.started,green_com.stopped,yellow_com.started,yellow_com.stopped,blue_com.started,blue_com.stopped,rewardyellow,rewardred,rewardblue,rewardgreen,subchoose,playerb,image_3.started,image_3.stopped,slider.response,slider.rt,slider.started,slider.stopped,text.started,text.stopped,image_4.started,image_4.stopped,image_5.started,image_5.stopped,expectself.text,expectself.started,expectself.stopped,value_expect_self,expect_self_black.started,expect_self_black.stopped,expect_self.started,expect_self.stopped,expect_self_red.started,expect_self_red.stopped,expect_self_green.started,expect_self_green.stopped,expect_self_yellow.started,expect_self_yellow.stopped,expect_self_blue.started,expect_self_blue.stopped,tijiao.started,tijiao.stopped,tijiao_click.started,tijiao_click.stopped,check.started,check.stopped,random_whicharm,whether_ask,jiantou_random.started,jiantou_random.stopped,expect_red.started,expect_red.stopped,expect_green.started,expect_green.stopped,expect_yellow.started,expect_yellow.stopped,expect_blue.started,expect_blue.stopped,expect_random_2.started,expect_random_2.stopped,expect_random_3.text,expect_random_3.started,expect_random_3.stopped,tijiao_random_2.started,tijiao_random_2.stopped,tijiao_random.started,tijiao_random.stopped,check_2.started,check_2.stopped,slider_2.response,slider_2.rt,slider_2.started,slider_2.stopped,image_7.started,image_7.stopped,confi.started,confi.stopped,notconfi.started,notconfi.stopped,bigx.started,bigx.stopped,intertrialfix.started,intertrialfix.stopped,tijiao_random.x,tijiao_random.y,tijiao_random.leftButton,tijiao_random.midButton,tijiao_random.rightButton,tijiao_random.time,tijiao_random.clicked_name,tijiao_click.x,tijiao_click.y,tijiao_click.leftButton,tijiao_click.midButton,tijiao_click.rightButton,tijiao_click.time,tijiao_click.clicked_name,rest_response.rt,participant,Gender,Age,date,expName,psychopyVersion,frameRate,
,,,,,,,19.924859500024468,None,space,3.8646153000881895,19.924859500024468,None,,,,,,,,,,,,,,,,,,,,,,,,,,,,,,,,,,,,,,,,,,,,,,,,,,,,,,,,,,,,,,,,,,,,,,,,,,,,,,,,,,,,,,,,,,,,,,,,,,,,,,,,,,,,,,,,,,,,,,,,,,,,,,,,,,,,,,,,,,,,,,,,,,,,,,,,,,265,m,29,2023_Mar_26_1537,RL,2021.2.3,59.871312610516824,
,,,,,,,,,,,,,23.825486200046726,None,s,10.254224099917337,23.825486200046726,None,,,,,,,,,,,,,,,,,,,,,,,,,,,,,,,,,,,,,,,,,,,,,,,,,,,,,,,,,,,,,,,,,,,,,,,,,,,,,,,,,,,,,,,,,,,,,,,,,,,,,,,,,,,,,,,,,,,,,,,,,,,,,,,,,,,,,,,,,,,,,,,,,,,,265,m,29,2023_Mar_26_1537,RL,2021.2.3,59.871312610516824,
1,-0.3,-0.225,0,0,0,0,,,,,,,,,,,,,34.114263600087725,None,None,None,None,None,None,35.20209740009159,None,35.20209740009159,None,35.20209740009159,None,35.20209740009159,None,f,0.35744379996322095,35.20209740009159,None,35.20209740009159,None,35.67442910000682,None,35.67442910000682,None,35.67442910000682,None,35.67442910000682,None,35.67442910000682,None,35.67442910000682,None,35.971453500096686,None,35.971453500096686,None,37.712403000099584,None,37.712403000099584,None,37.712403000099584,None,37.712403000099584,None,37.712403000099584,None,37.712403000099584,None,37.712403000099584,None,37.712403000099584,None,37.712403000099584,None,34,39,75,27,39,59,40.325410400051624,None,2.0,2.9592183000640944,40.325410400051624,None,40.325410400051624,None,40.325410400051624,None,40.325410400051624,None,,None,None,,None,None,None,None,None,None,None,None,None,None,None,None,None,None,None,None,None,None,-0.6,3,None,None,None,None,None,None,None,None,None,None,None,None,,None,None,None,None,None,None,None,None,None,None,None,None,None,None,None,None,None,None,None,None,43.84999570006039,None,,,,,,,,,,,,,,,,265,m,29,2023_Mar_26_1537,RL,2021.2.3,59.871312610516824,
0,0.3,0.225,0,1,1,1,,,,,,,,,,,,,,,None,None,None,None,None,45.68111700005829,None,45.68111700005829,None,45.68111700005829,None,45.68111700005829,None,i,0.37845359998755157,45.68111700005829,None,45.68111700005829,None,46.1073264000006,None,46.1073264000006,None,46.1073264000006,None,46.1073264000006,None,46.1073264000006,None,46.1073264000006,None,46.378721600049175,48.329959199996665,46.378721600049175,48.329959199996665,48.38364970008843,None,48.38364970008843,None,48.38364970008843,None,48.38364970008843,None,48.38364970008843,None,48.38364970008843,None,48.38364970008843,None,48.38364970008843,None,48.38364970008843,None,26,52,70,32,70,51,None,None,None,None,None,None,None,None,None,None,None,None,,None,None,,None,None,None,None,None,None,None,None,None,None,None,None,None,None,None,None,None,None,0.6,1,50.97800460003782,None,50.97800460003782,None,50.97800460003782,None,50.97800460003782,None,50.97800460003782,None,50.97800460003782,None,80,50.97800460003782,None,50.97800460003782,None,0.013734170002862811,None,50.97800460003782,None,7.028645833333334,2.3107768999179825,55.659668900072575,None,55.659668900072575,None,55.659668900072575,None,55.659668900072575,None,None,None,57.98512640001718,None,0.053385416666666664,-0.3216145833333333,1,0,0,4.61790850001853,tijiao_random_2,,,,,,,,,265,m,29,2023_Mar_26_1537,RL,2021.2.3,59.871312610516824,
1,-0.3,-0.225,0,2,2,2,,,,,,,,,,,,,,,None,None,None,None,None,59.70766580000054,None,59.70766580000054,None,59.70766580000054,None,59.70766580000054,None,j,0.45189689996186644,59.70766580000054,None,59.70766580000054,None,60.208270400064066,None,60.208270400064066,None,60.208270400064066,None,60.208270400064066,None,60.208270400064066,None,60.208270400064066,None,60.505163600086235,None,60.505163600086235,None,61.58918600005563,None,61.58918600005563,None,61.58918600005563,None,61.58918600005563,None,61.58918600005563,None,61.58918600005563,None,61.58918600005563,None,61.58918600005563,None,61.58918600005563,None,20,44,72,23,23,41,None,None,None,None,None,None,None,None,None,None,None,None,50,64.13808240008075,None,50,64.13808240008075,None,64.13808240008075,None,64.13808240008075,None,64.13808240008075,None,64.13808240008075,None,64.13808240008075,None,64.13808240008075,None,0.01630054006818682,None,64.13808240008075,None,0.6,0,None,None,None,None,None,None,None,None,None,None,None,None,,None,None,None,None,None,None,None,None,6.091145833333334,1.7741542999865487,69.90831250010524,None,69.90831250010524,None,69.90831250010524,None,69.90831250010524,None,None,None,71.69575170008466,None,,,,,,,,0.032552083333333336,-0.2786458333333333,1,0,0,5.704080899944529,tijiao,,265,m,29,2023_Mar_26_1537,RL,2021.2.3,59.871312610516824,
0,0.3,0.225,0,3,3,3,,,,,,,,,,,,,,,None,None,None,None,None,73.58460709999781,None,73.58460709999781,None,73.58460709999781,None,73.58460709999781,None,r,0.35532460000831634,73.58460709999781,None,73.58460709999781,None,73.98989610001445,None,73.98989610001445,None,73.98989610001445,None,73.98989610001445,None,73.98989610001445,None,73.98989610001445,None,74.28143030009232,None,74.28143030009232,None,76.24692689999938,None,76.24692689999938,None,76.24692689999938,None,76.24692689999938,None,76.24692689999938,None,76.24692689999938,None,76.24692689999938,None,76.24692689999938,None,76.24692689999938,None,33,41,64,28,33,43,78.76547550002579,None,2.0,2.3075022000120953,78.76547550002579,None,78.76547550002579,None,78.76547550002579,None,78.76547550002579,None,,None,None,,None,None,None,None,None,None,None,None,None,None,None,None,None,None,None,None,None,None,-0.2,3,None,None,None,None,None,None,None,None,None,None,None,None,,None,None,None,None,None,None,None,None,None,None,None,None,None,None,None,None,None,None,None,None,81.12822310009506,None,,,,,,,,,,,,,,,,265,m,29,2023_Mar_26_1537,RL,2021.2.3,59.871312610516824,
1,-0.3,-0.225,0,4,4,4,,,,,,,,,,,,,,,None,None,None,None,None,82.6740874000825,None,82.6740874000825,None,82.6740874000825,None,82.6740874000825,None,f,0.616826199926436,82.6740874000825,None,82.6740874000825,None,83.3425741000101,None,83.3425741000101,None,83.3425741000101,None,83.3425741000101,None,83.3425741000101,None,83.3425741000101,None,83.63794170005713,None,83.63794170005713,None,84.48728560004383,None,84.48728560004383,None,84.48728560004383,None,84.48728560004383,None,84.48728560004383,None,84.48728560004383,None,84.48728560004383,None,84.48728560004383,None,84.48728560004383,None,28,33,76,26,33,47,None,None,None,None,None,None,None,None,None,None,None,None,47,87.02148510003462,None,47,87.02148510003462,None,87.02148510003462,None,87.02148510003462,None,87.02148510003462,None,87.02148510003462,None,87.02148510003462,None,87.02148510003462,None,0.010232929955236614,None,87.02148510003462,None,-0.2,0,None,None,None,None,None,None,None,None,None,None,None,None,,None,None,None,None,None,None,None,None,5.8828125,1.8493664000416175,93.31669840007089,None,93.31669840007089,None,93.31669840007089,None,93.31669840007089,None,None,None,95.18679510010406,None,,,,,,,,-0.036458333333333336,-0.3111979166666667,1,0,0,6.249122200068086,tijiao,,265,m,29,2023_Mar_26_1537,RL,2021.2.3,59.871312610516824,
0,0.3,0.225,0,5,5,5,,,,,,,,,,,,,,,None,None,None,None,None,96.83471880003344,None,96.83471880003344,None,96.83471880003344,None,96.83471880003344,None,i,0.3763718999689445,96.83471880003344,None,96.83471880003344,None,97.25246460002381,None,97.25246460002381,None,97.25246460002381,None,97.25246460002381,None,97.25246460002381,None,97.25246460002381,None,97.54767790006008,None,97.54767790006008,None,98.99666850001086,None,98.99666850001086,None,98.99666850001086,None,98.99666850001086,None,98.99666850001086,None,98.99666850001086,None,98.99666850001086,None,98.99666850001086,None,98.99666850001086,None,39,50,75,32,75,29,101.51943420001771,None,5.0,2.7527022999711335,101.51943420001771,None,101.51943420001771,None,101.51943420001771,None,101.51943420001771,None,,None,None,,None,None,None,None,None,None,None,None,None,None,None,None,None,None,None,None,None,None,0.2,3,None,None,None,None,None,None,None,None,None,None,None,None,,None,None,None,None,None,None,None,None,None,None,None,None,None,None,None,None,None,None,None,None,104.33091430005152,None,,,,,,,,,,,,,,,,265,m,29,2023_Mar_26_1537,RL,2021.2.3,59.871312610516824,
1,-0.3,-0.225,0,6,6,6,,,,,,,,,,,,,,,None,None,None,None,None,105.95722000009846,None,105.95722000009846,None,105.95722000009846,None,105.95722000009846,None,j,0.4337264000205323,105.95722000009846,None,105.95722000009846,None,106.44206780008972,None,106.44206780008972,None,106.44206780008972,None,106.44206780008972,None,106.44206780008972,None,106.44206780008972,None,106.73715290008113,None,106.73715290008113,None,108.72243720002007,None,108.72243720002007,None,108.72243720002007,None,108.72243720002007,None,108.72243720002007,None,108.72243720002007,None,108.72243720002007,None,108.72243720002007,None,108.72243720002007,None,41,41,67,28,28,48,None,None,None,None,None,None,None,None,None,None,None,None,48,111.2498554000631,None,48,111.2498554000631,None,111.2498554000631,None,111.2498554000631,None,111.2498554000631,None,111.2498554000631,None,111.2498554000631,None,111.2498554000631,None,0.01563992991577834,None,111.2498554000631,None,-0.2,0,None,None,None,None,None,None,None,None,None,None,None,None,,None,None,None,None,None,None,None,None,6.052083333333334,1.909725800040178,117.00307130010333,None,117.00307130010333,None,117.00307130010333,None,117.00307130010333,None,None,None,118.9400948000839,None,,,,,,,,0.03515625,-0.2604166666666667,1,0,0,5.703901699976996,tijiao,,265,m,29,2023_Mar_26_1537,RL,2021.2.3,59.871312610516824,
0,0.3,0.225,0,7,7,7,,,,,,,,,,,,,,,None,None,None,None,None,120.6331763000926,None,120.6331763000926,None,120.6331763000926,None,120.6331763000926,None,r,0.3878661999478936,120.6331763000926,None,120.6331763000926,None,121.06805030000396,None,121.06805030000396,None,121.06805030000396,None,121.06805030000396,None,121.06805030000396,None,121.06805030000396,None,121.36420540011022,None,121.36420540011022,None,122.22885780001525,None,122.22885780001525,None,122.22885780001525,None,122.22885780001525,None,122.22885780001525,None,122.22885780001525,None,122.22885780001525,None,122.22885780001525,None,122.22885780001525,None,34,39,64,25,34,34,None,None,None,None,None,None,None,None,None,None,None,None,,None,None,,None,None,None,None,None,None,None,None,None,None,None,None,None,None,None,None,None,None,-0.2,1,124.78078970010392,None,124.78078970010392,None,124.78078970010392,None,124.78078970010392,None,124.78078970010392,None,124.78078970010392,None,48,124.78078970010392,None,124.78078970010392,None,0.009942540084011853,None,124.78078970010392,None,6.013020833333334,2.7523227999918163,129.02769170003012,None,129.02769170003012,None,129.02769170003012,None,129.02769170003012,None,None,None,131.8056619000854,None,0.0390625,-0.2747395833333333,1,0,0,4.2137860000366345,tijiao_random_2,,,,,,,,,265,m,29,2023_Mar_26_1537,RL,2021.2.3,59.871312610516824,
1,-0.3,-0.225,0,8,8,8,,,,,,,,,,,,,,,None,None,None,None,None,133.39204010006506,None,133.39204010006506,None,133.39204010006506,None,133.39204010006506,None,f,0.3796277000801638,133.39204010006506,None,133.39204010006506,None,133.81503160006832,None,133.81503160006832,None,133.81503160006832,None,133.81503160006832,None,133.81503160006832,None,133.81503160006832,None,134.10631930001546,None,134.10631930001546,None,135.83653500000946,None,135.83653500000946,None,135.83653500000946,None,135.83653500000946,None,135.83653500000946,None,135.83653500000946,None,135.83653500000946,None,135.83653500000946,None,135.83653500000946,None,39,27,72,24,27,59,None,None,None,None,None,None,None,None,None,None,None,None,,None,None,,None,None,None,None,None,None,None,None,None,None,None,None,None,None,None,None,None,None,0.6,1,138.39249140000902,None,138.39249140000902,None,138.39249140000902,None,138.39249140000902,None,138.39249140000902,None,138.39249140000902,None,78,138.39249140000902,None,138.39249140000902,None,0.007891739951446652,None,138.39249140000902,None,7.002604166666666,2.257940600044094,147.36117360007484,None,147.36117360007484,None,147.36117360007484,None,147.36117360007484,None,None,None,149.63305950001813,None,0.036458333333333336,-0.2994791666666667,1,0,0,8.931414899998344,tijiao_random_2,,,,,,,,,265,m,29,2023_Mar_26_1537,RL,2021.2.3,59.871312610516824,
0,0.3,0.225,0,9,9,9,,,,,,,,,,,,,,,None,None,None,None,None,151.42350260005333,None,151.42350260005333,None,151.42350260005333,None,151.42350260005333,None,j,0.4177094999467954,151.42350260005333,None,151.42350260005333,None,151.8898745001061,None,151.8898745001061,None,151.8898745001061,None,151.8898745001061,None,151.8898745001061,None,151.8898745001061,None,152.18557890004013,None,152.18557890004013,None,154.06970230001025,None,154.06970230001025,None,154.06970230001025,None,154.06970230001025,None,154.06970230001025,None,154.06970230001025,None,154.06970230001025,None,154.06970230001025,None,154.06970230001025,None,35,30,68,27,27,27,None,None,None,None,None,None,None,None,None,None,None,None,,None,None,,None,None,None,None,None,None,None,None,None,None,None,None,None,None,None,None,None,None,0.2,1,156.61451630003285,None,156.61451630003285,None,156.61451630003285,None,156.61451630003285,None,156.61451630003285,None,156.61451630003285,None,57,156.61451630003285,None,156.61451630003285,None,0.01538753998465836,None,156.61451630003285,None,4.958333333333333,3.087778600049205,164.58525690005627,None,164.58525690005627,None,164.58525690005627,None,164.58525690005627,None,None,None,167.69565830007195,None,0.010416666666666666,-0.2981770833333333,1,0,0,7.938713899930008,tijiao_random_2,,,,,,,,,265,m,29,2023_Mar_26_1537,RL,2021.2.3,59.871312610516824,
1,-0.3,-0.225,0,10,10,10,,,,,,,,,,,,,,,None,None,None,None,None,169.25136370002292,None,169.25136370002292,None,169.25136370002292,None,169.25136370002292,None,i,0.3401857999851927,169.25136370002292,None,169.25136370002292,None,169.6343949000584,None,169.6343949000584,None,169.6343949000584,None,169.6343949000584,None,169.6343949000584,None,169.6343949000584,None,169.9312911001034,None,169.9312911001034,None,171.4491375000216,None,171.4491375000216,None,171.4491375000216,None,171.4491375000216,None,171.4491375000216,None,171.4491375000216,None,171.4491375000216,None,171.4491375000216,None,171.4491375000216,None,33,36,54,22,54,28,None,None,None,None,None,None,None,None,None,None,None,None,,None,None,,None,None,None,None,None,None,None,None,None,None,None,None,None,None,None,None,None,None,-0.6,1,173.9926509000361,None,173.9926509000361,None,173.9926509000361,None,173.9926509000361,None,173.9926509000361,None,173.9926509000361,None,35,173.9926509000361,None,173.9926509000361,None,0.015916939824819565,None,173.9926509000361,None,6.0390625,1.5748360001016408,180.4293535000179,None,180.4293535000179,None,180.4293535000179,None,180.4293535000179,None,None,None,182.0223139000591,None,0.05078125,-0.30859375,1,0,0,6.404837099951692,tijiao_random_2,,,,,,,,,265,m,29,2023_Mar_26_1537,RL,2021.2.3,59.871312610516824,
0,0.3,0.225,0,11,11,11,,,,,,,,,,,,,,,None,None,None,None,None,183.6115002000006,None,183.6115002000006,None,183.6115002000006,None,183.6115002000006,None,r,0.3899572000373155,183.6115002000006,None,183.6115002000006,None,184.04846580000594,None,184.04846580000594,None,184.04846580000594,None,184.04846580000594,None,184.04846580000594,None,184.04846580000594,None,184.32445040007588,185.79218500002753,184.32445040007588,185.79218500002753,185.82514820003416,None,185.82514820003416,None,185.82514820003416,None,185.82514820003416,None,185.82514820003416,None,185.82514820003416,None,185.82514820003416,None,185.82514820003416,None,185.82514820003416,None,36,39,50,23,36,54,None,None,None,None,None,None,None,None,None,None,None,None,,None,None,,None,None,None,None,None,None,None,None,None,None,None,None,None,None,None,None,None,None,0.2,1,188.3687021000078,None,188.3687021000078,None,188.3687021000078,None,188.3687021000078,None,188.3687021000078,None,188.3687021000078,None,54,188.3687021000078,None,188.3687021000078,None,0.016341540031135082,None,188.3687021000078,None,6.924479166666666,1.5926110000582412,194.2081006000517,None,194.2081006000517,None,194.2081006000517,None,194.2081006000517,None,None,None,195.81502600002568,None,0.06380208333333333,-0.2825520833333333,1,0,0,5.805142399971373,tijiao_random_2,,,,,,,,,265,m,29,2023_Mar_26_1537,RL,2021.2.3,59.871312610516824,
1,-0.3,-0.225,0,12,12,12,,,,,,,,,,,,,,,None,None,None,None,None,197.6382691001054,None,197.6382691001054,None,197.6382691001054,None,197.6382691001054,None,i,0.3034562999382615,197.6382691001054,None,197.6382691001054,None,197.98918480006978,None,197.98918480006978,None,197.98918480006978,None,197.98918480006978,None,197.98918480006978,None,197.98918480006978,None,198.28424390009604,None,198.28424390009604,None,199.38069210003596,None,199.38069210003596,None,199.38069210003596,None,199.38069210003596,None,199.38069210003596,None,199.38069210003596,None,199.38069210003596,None,199.38069210003596,None,199.38069210003596,None,37,39,44,27,44,50,201.90620430000126,None,3.0,3.5344234999502078,201.90620430000126,None,201.90620430000126,None,201.90620430000126,None,201.90620430000126,None,,None,None,,None,None,None,None,None,None,None,None,None,None,None,None,None,None,None,None,None,None,-0.6,2,None,None,None,None,None,None,None,None,None,None,None,None,,None,None,None,None,None,None,None,None,None,None,None,None,None,None,None,None,None,None,None,None,205.49372040003072,None,,,,,,,,,,,,,,,,265,m,29,2023_Mar_26_1537,RL,2021.2.3,59.871312610516824,
0,0.3,0.225,0,13,13,13,,,,,,,,,,,,,,,None,None,None,None,None,207.3609571000561,None,207.3609571000561,None,207.3609571000561,None,207.3609571000561,None,f,0.6406753999181092,207.3609571000561,None,207.3609571000561,None,208.0495052000042,None,208.0495052000042,None,208.0495052000042,None,208.0495052000042,None,208.0495052000042,None,208.0495052000042,None,208.32463200006168,209.59208670002408,208.32463200006168,209.59208670002408,209.6232603000244,None,209.6232603000244,None,209.6232603000244,None,209.6232603000244,None,209.6232603000244,None,209.6232603000244,None,209.6232603000244,None,209.6232603000244,None,209.6232603000244,None,41,31,43,22,31,54,212.1422216000501,None,2.0,2.2202474999940023,212.1422216000501,None,212.1422216000501,None,212.1422216000501,None,212.1422216000501,None,,None,None,,None,None,None,None,None,None,None,None,None,None,None,None,None,None,None,None,None,None,-0.6,2,None,None,None,None,None,None,None,None,None,None,None,None,,None,None,None,None,None,None,None,None,None,None,None,None,None,None,None,None,None,None,None,None,214.4177455001045,None,,,,,,,,,,,,,,,,265,m,29,2023_Mar_26_1537,RL,2021.2.3,59.871312610516824,
1,-0.3,-0.225,0,14,14,14,,,,,,,,,,,,,,,None,None,None,None,None,216.23412400006782,None,216.23412400006782,None,216.23412400006782,None,216.23412400006782,None,f,1.0075154999503866,216.23412400006782,None,216.23412400006782,None,217.28741670004092,None,217.28741670004092,None,217.28741670004092,None,217.28741670004092,None,217.28741670004092,None,217.28741670004092,None,217.5810515000485,None,217.5810515000485,None,219.44523760001175,None,219.44523760001175,None,219.44523760001175,None,219.44523760001175,None,219.44523760001175,None,219.44523760001175,None,219.44523760001175,None,219.44523760001175,None,219.44523760001175,None,43,36,36,21,36,53,221.96636780002154,None,4.0,3.672451499965973,221.96636780002154,None,221.96636780002154,None,221.96636780002154,None,221.96636780002154,None,,None,None,,None,None,None,None,None,None,None,None,None,None,None,None,None,None,None,None,None,None,-0.6,2,None,None,None,None,None,None,None,None,None,None,None,None,,None,None,None,None,None,None,None,None,None,None,None,None,None,None,None,None,None,None,None,None,225.694221700076,None,,,,,,,,,,,,,,,,265,m,29,2023_Mar_26_1537,RL,2021.2.3,59.871312610516824,
0,0.3,0.225,0,15,15,15,,,,,,,,,,,,,,,None,None,None,None,None,227.42477680009324,None,227.42477680009324,None,227.42477680009324,None,227.42477680009324,None,i,0.44798669998999685,227.42477680009324,None,227.42477680009324,None,227.91188760008663,None,227.91188760008663,None,227.91188760008663,None,227.91188760008663,None,227.91188760008663,None,227.91188760008663,None,228.20503270009067,None,228.20503270009067,None,229.0561315000523,None,229.0561315000523,None,229.0561315000523,None,229.0561315000523,None,229.0561315000523,None,229.0561315000523,None,229.0561315000523,None,229.0561315000523,None,229.0561315000523,None,44,34,44,28,44,43,231.57066970004234,None,5.0,3.6078733999747783,231.57066970004234,None,231.57066970004234,None,231.57066970004234,None,231.57066970004234,None,,None,None,,None,None,None,None,None,None,None,None,None,None,None,None,None,None,None,None,None,None,-0.6,3,None,None,None,None,None,None,None,None,None,None,None,None,,None,None,None,None,None,None,None,None,None,None,None,None,None,None,None,None,None,None,None,None,235.23509500001092,None,,,,,,,,,,,,,,,,265,m,29,2023_Mar_26_1537,RL,2021.2.3,59.871312610516824,
1,-0.3,-0.225,0,16,16,16,,,,,,,,,,,,,,,None,None,None,None,None,236.78066260006744,None,236.78066260006744,None,236.78066260006744,None,236.78066260006744,None,j,0.5021855999948457,236.78066260006744,None,236.78066260006744,None,237.33410430001095,None,237.33410430001095,None,237.33410430001095,None,237.33410430001095,None,237.33410430001095,None,237.33410430001095,None,237.62820090004243,None,237.62820090004243,None,238.84219860006124,None,238.84219860006124,None,238.84219860006124,None,238.84219860006124,None,238.84219860006124,None,238.84219860006124,None,238.84219860006124,None,238.84219860006124,None,238.84219860006124,None,36,31,46,20,20,48,None,None,None,None,None,None,None,None,None,None,None,None,,None,None,,None,None,None,None,None,None,None,None,None,None,None,None,None,None,None,None,None,None,0.2,1,241.40482180006802,None,241.40482180006802,None,241.40482180006802,None,241.40482180006802,None,241.40482180006802,None,241.40482180006802,None,54,241.40482180006802,None,241.40482180006802,None,0.0011555399978533387,None,241.40482180006802,None,6.9375,1.8987298000138253,247.82735520007554,None,247.82735520007554,None,247.82735520007554,None,247.82735520007554,None,None,None,249.75186110008508,None,0.07291666666666667,-0.2942708333333333,1,0,0,6.389809400076047,tijiao_random_2,,,,,,,,,265,m,29,2023_Mar_26_1537,RL,2021.2.3,59.871312610516824,
0,0.3,0.225,0,17,17,17,,,,,,,,,,,,,,,None,None,None,None,None,251.74067260010634,None,251.74067260010634,None,251.74067260010634,None,251.74067260010634,None,i,0.3222396000055596,251.74067260010634,None,251.74067260010634,None,252.10949699999765,None,252.10949699999765,None,252.10949699999765,None,252.10949699999765,None,252.10949699999765,None,252.10949699999765,None,252.40510970004834,253.52250730001833,252.40510970004834,253.52250730001833,253.5547892000759,None,253.5547892000759,None,253.5547892000759,None,253.5547892000759,None,253.5547892000759,None,253.5547892000759,None,253.5547892000759,None,253.5547892000759,None,253.5547892000759,None,41,27,48,13,48,50,256.0758443000959,None,3.0,1.8516428000293672,256.0758443000959,None,256.0758443000959,None,256.0758443000959,None,256.0758443000959,None,,None,None,,None,None,None,None,None,None,None,None,None,None,None,None,None,None,None,None,None,None,-0.2,2,None,None,None,None,None,None,None,None,None,None,None,None,,None,None,None,None,None,None,None,None,None,None,None,None,None,None,None,None,None,None,None,None,257.9907379000215,None,,,,,,,,,,,,,,,,265,m,29,2023_Mar_26_1537,RL,2021.2.3,59.871312610516824,
1,-0.3,-0.225,0,18,18,18,,,,,,,,,,,,,,,None,None,None,None,None,259.94801350007765,None,259.94801350007765,None,259.94801350007765,None,259.94801350007765,None,f,0.5350390000967309,259.94801350007765,None,259.94801350007765,None,260.5323816000018,None,260.5323816000018,None,260.5323816000018,None,260.5323816000018,None,260.5323816000018,None,260.5323816000018,None,260.8275478000287,None,260.8275478000287,None,262.24315970006865,None,262.24315970006865,None,262.24315970006865,None,262.24315970006865,None,262.24315970006865,None,262.24315970006865,None,262.24315970006865,None,262.24315970006865,None,262.24315970006865,None,47,18,41,10,18,32,None,None,None,None,None,None,None,None,None,None,None,None,,None,None,,None,None,None,None,None,None,None,None,None,None,None,None,None,None,None,None,None,None,0.2,1,264.7909554000944,None,264.7909554000944,None,264.7909554000944,None,264.7909554000944,None,264.7909554000944,None,264.7909554000944,None,48,264.7909554000944,None,264.7909554000944,None,0.014078140025958419,None,264.7909554000944,None,5.934895833333333,1.261853100033477,269.82509310008027,None,269.82509310008027,None,269.82509310008027,None,269.82509310008027,None,None,None,271.116144800093,None,0.1015625,-0.2890625,1,0,0,5.001688199932687,tijiao_random_2,,,,,,,,,265,m,29,2023_Mar_26_1537,RL,2021.2.3,59.871312610516824,
0,0.3,0.225,0,19,19,19,,,,,,,,,,,,,,,None,None,None,None,None,272.93923980009276,None,272.93923980009276,None,272.93923980009276,None,272.93923980009276,None,i,0.2940409999573603,272.93923980009276,None,272.93923980009276,None,273.27685880009085,None,273.27685880009085,None,273.27685880009085,None,273.27685880009085,None,273.27685880009085,None,273.27685880009085,None,273.56996800005436,None,273.56996800005436,None,275.16800770000555,None,275.16800770000555,None,275.16800770000555,None,275.16800770000555,None,275.16800770000555,None,275.16800770000555,None,275.16800770000555,None,275.16800770000555,None,275.16800770000555,None,43,26,41,10,41,48,None,None,None,None,None,None,None,None,None,None,None,None,,None,None,,None,None,None,None,None,None,None,None,None,None,None,None,None,None,None,None,None,None,-0.6,1,277.72208720003255,None,277.72208720003255,None,277.72208720003255,None,277.72208720003255,None,277.72208720003255,None,277.72208720003255,None,38,277.72208720003255,None,277.72208720003255,None,0.008431139984168112,None,277.72208720003255,None,6.950520833333334,1.730547499959357,283.0520628000377,None,283.0520628000377,None,283.0520628000377,None,283.0520628000377,None,None,None,284.80945470009465,None,0.03515625,-0.2981770833333333,1,0,0,5.297368499916047,tijiao_random_2,,,,,,,,,265,m,29,2023_Mar_26_1537,RL,2021.2.3,59.871312610516824,
1,-0.3,-0.225,0,20,20,20,,,,,,,,,,,,,,,None,None,None,None,None,286.6329369000159,None,286.6329369000159,None,286.6329369000159,None,286.6329369000159,None,r,0.3103080000728369,286.6329369000159,None,286.6329369000159,None,286.9879480000818,None,286.9879480000818,None,286.9879480000818,None,286.9879480000818,None,286.9879480000818,None,286.9879480000818,None,287.2793308000546,None,287.2793308000546,None,288.3442273000255,None,288.3442273000255,None,288.3442273000255,None,288.3442273000255,None,288.3442273000255,None,288.3442273000255,None,288.3442273000255,None,288.3442273000255,None,288.3442273000255,None,51,21,46,16,51,31,290.8675329000689,None,6.0,2.768781500053592,290.8675329000689,None,290.8675329000689,None,290.8675329000689,None,290.8675329000689,None,,None,None,,None,None,None,None,None,None,None,None,None,None,None,None,None,None,None,None,None,None,0.6,3,None,None,None,None,None,None,None,None,None,None,None,None,,None,None,None,None,None,None,None,None,None,None,None,None,None,None,None,None,None,None,None,None,293.6895546000451,None,,,,,,,,,,,,,,,,265,m,29,2023_Mar_26_1537,RL,2021.2.3,59.871312610516824,
0,0.3,0.225,0,21,21,21,,,,,,,,,,,,,,,None,None,None,None,None,295.55576270003803,None,295.55576270003803,None,295.55576270003803,None,295.55576270003803,None,f,0.4974531999323517,295.55576270003803,None,295.55576270003803,None,296.09289070009254,None,296.09289070009254,None,296.09289070009254,None,296.09289070009254,None,296.09289070009254,None,296.09289070009254,None,296.38588790001813,298.0868259000126,296.38588790001813,298.0868259000126,298.1189590001013,None,298.1189590001013,None,298.1189590001013,None,298.1189590001013,None,298.1189590001013,None,298.1189590001013,None,298.1189590001013,None,298.1189590001013,None,298.1189590001013,None,51,19,43,19,19,25,None,None,None,None,None,None,None,None,None,None,None,None,18,300.6472269000951,None,18,300.6472269000951,None,300.6472269000951,None,300.6472269000951,None,300.6472269000951,None,300.6472269000951,None,300.6472269000951,None,300.6472269000951,None,0.01638983003795147,None,300.6472269000951,None,0.6,0,None,None,None,None,None,None,None,None,None,None,None,None,,None,None,None,None,None,None,None,None,8.083333333333334,2.6585057999473065,306.7211707000388,None,306.7211707000388,None,306.7211707000388,None,306.7211707000388,None,None,None,309.39420750003774,None,,,,,,,,0.06640625,-0.23697916666666666,1,0,0,5.421422699932009,tijiao,,265,m,29,2023_Mar_26_1537,RL,2021.2.3,59.871312610516824,
1,-0.3,-0.225,0,22,22,22,,,,,,,,,,,,,,,None,None,None,None,None,311.2328452001093,None,311.2328452001093,None,311.2328452001093,None,311.2328452001093,None,f,0.32049960002768785,311.2328452001093,None,311.2328452001093,None,311.6005548000103,None,311.6005548000103,None,311.6005548000103,None,311.6005548000103,None,311.6005548000103,None,311.6005548000103,None,311.89660680003,None,311.89660680003,None,313.7787587000057,None,313.7787587000057,None,313.7787587000057,None,313.7787587000057,None,313.7787587000057,None,313.7787587000057,None,313.7787587000057,None,313.7787587000057,None,313.7787587000057,None,50,18,40,13,18,31,None,None,None,None,None,None,None,None,None,None,None,None,18,316.3164200000465,None,18,316.3164200000465,None,316.3164200000465,None,316.3164200000465,None,316.3164200000465,None,316.3164200000465,None,316.3164200000465,None,316.3164200000465,None,0.00877392990514636,None,316.3164200000465,None,-0.2,0,None,None,None,None,None,None,None,None,None,None,None,None,,None,None,None,None,None,None,None,None,8.994791666666668,1.6993657000130042,320.9781074000057,None,320.9781074000057,None,320.9781074000057,None,320.9781074000057,None,None,None,322.70341770001687,None,,,,,,,,0.0859375,-0.29296875,1,0,0,4.613329299958423,tijiao,,265,m,29,2023_Mar_26_1537,RL,2021.2.3,59.871312610516824,
0,0.3,0.225,0,23,23,23,,,,,,,,,,,,,,,None,None,None,None,None,324.60661870008335,None,324.60661870008335,None,324.60661870008335,None,324.60661870008335,None,f,0.4870576999383047,324.60661870008335,None,324.60661870008335,None,325.1477428000653,None,325.1477428000653,None,325.1477428000653,None,325.1477428000653,None,325.1477428000653,None,325.1477428000653,None,325.43918520002626,None,325.43918520002626,None,327.12043960008305,None,327.12043960008305,None,327.12043960008305,None,327.12043960008305,None,327.12043960008305,None,327.12043960008305,None,327.12043960008305,None,327.12043960008305,None,327.12043960008305,None,52,20,46,18,20,44,329.63814160006586,None,5.0,1.4532170000020415,329.63814160006586,None,329.63814160006586,None,329.63814160006586,None,329.63814160006586,None,,None,None,,None,None,None,None,None,None,None,None,None,None,None,None,None,None,None,None,None,None,-0.6,3,None,None,None,None,None,None,None,None,None,None,None,None,,None,None,None,None,None,None,None,None,None,None,None,None,None,None,None,None,None,None,None,None,331.1490088000428,None,,,,,,,,,,,,,,,,265,m,29,2023_Mar_26_1537,RL,2021.2.3,59.871312610516824,
1,-0.3,-0.225,0,24,24,24,,,,,,,,,,,,,,,None,None,None,None,None,332.7311891000718,None,332.7311891000718,None,332.7311891000718,None,332.7311891000718,None,j,0.8523172999266535,332.7311891000718,None,332.7311891000718,None,333.63388740003575,None,333.63388740003575,None,333.63388740003575,None,333.63388740003575,None,333.63388740003575,None,333.63388740003575,None,333.9284361000173,334.84580050001387,333.9284361000173,334.84580050001387,334.88012320001144,None,334.88012320001144,None,334.88012320001144,None,334.88012320001144,None,334.88012320001144,None,334.88012320001144,None,334.88012320001144,None,334.88012320001144,None,334.88012320001144,None,56,16,44,20,20,40,None,None,None,None,None,None,None,None,None,None,None,None,20,337.41348180000205,None,20,337.41348180000205,None,337.41348180000205,None,337.41348180000205,None,337.41348180000205,None,337.41348180000205,None,337.41348180000205,None,337.41348180000205,None,0.008972030016593635,None,337.41348180000205,None,0.6,0,None,None,None,None,None,None,None,None,None,None,None,None,,None,None,None,None,None,None,None,None,7.953125,1.6303912999574095,345.5301686000312,None,345.5301686000312,None,345.5301686000312,None,345.5301686000312,None,None,None,347.18623260001186,None,,,,,,,,0.12890625,-0.2799479166666667,1,0,0,8.065297599998303,tijiao,,265,m,29,2023_Mar_26_1537,RL,2021.2.3,59.871312610516824,
0,0.3,0.225,0,25,25,25,,,,,,,,,,,,,,,None,None,None,None,None,349.0091672000708,None,349.0091672000708,None,349.0091672000708,None,349.0091672000708,None,j,0.33441869996022433,349.0091672000708,None,349.0091672000708,None,349.3938682000153,None,349.3938682000153,None,349.3938682000153,None,349.3938682000153,None,349.3938682000153,None,349.3938682000153,None,349.6892822000664,None,349.6892822000664,None,350.6071450000163,None,350.6071450000163,None,350.6071450000163,None,350.6071450000163,None,350.6071450000163,None,350.6071450000163,None,350.6071450000163,None,350.6071450000163,None,350.6071450000163,None,53,8,50,14,14,38,353.12111440009903,None,4.0,1.9899275000207126,353.12111440009903,None,353.12111440009903,None,353.12111440009903,None,353.12111440009903,None,,None,None,,None,None,None,None,None,None,None,None,None,None,None,None,None,None,None,None,None,None,0.6,3,None,None,None,None,None,None,None,None,None,None,None,None,,None,None,None,None,None,None,None,None,None,None,None,None,None,None,None,None,None,None,None,None,355.1646204000572,None,,,,,,,,,,,,,,,,265,m,29,2023_Mar_26_1537,RL,2021.2.3,59.871312610516824,
1,-0.3,-0.225,0,26,26,26,,,,,,,,,,,,,,,None,None,None,None,None,356.9981850000331,None,356.9981850000331,None,356.9981850000331,None,356.9981850000331,None,j,0.9054886000230908,356.9981850000331,None,356.9981850000331,None,357.9514219000703,None,357.9514219000703,None,357.9514219000703,None,357.9514219000703,None,357.9514219000703,None,357.9514219000703,None,358.2456030000467,None,358.2456030000467,None,359.94355200009886,None,359.94355200009886,None,359.94355200009886,None,359.94355200009886,None,359.94355200009886,None,359.94355200009886,None,359.94355200009886,None,359.94355200009886,None,359.94355200009886,None,47,21,48,25,25,37,362.4658644000301,None,5.0,2.13518910005223,362.4658644000301,None,362.4658644000301,None,362.4658644000301,None,362.4658644000301,None,,None,None,,None,None,None,None,None,None,None,None,None,None,None,None,None,None,None,None,None,None,-0.6,3,None,None,None,None,None,None,None,None,None,None,None,None,,None,None,None,None,None,None,None,None,None,None,None,None,None,None,None,None,None,None,None,None,364.6626273000147,None,,,,,,,,,,,,,,,,265,m,29,2023_Mar_26_1537,RL,2021.2.3,59.871312610516824,
0,0.3,0.225,0,27,27,27,,,,,,,,,,,,,,,None,None,None,None,None,366.4215136000421,None,366.4215136000421,None,366.4215136000421,None,366.4215136000421,None,j,0.5523061000276357,366.4215136000421,None,366.4215136000421,None,367.02428320003673,None,367.02428320003673,None,367.02428320003673,None,367.02428320003673,None,367.02428320003673,None,367.02428320003673,None,367.3181935000466,368.8695546000963,367.3181935000466,368.8695546000963,368.90182880009525,None,368.90182880009525,None,368.90182880009525,None,368.90182880009525,None,368.90182880009525,None,368.90182880009525,None,368.90182880009525,None,368.90182880009525,None,368.90182880009525,None,52,29,45,26,26,47,371.4187249999959,None,5.0,1.421418200014159,371.4187249999959,None,371.4187249999959,None,371.4187249999959,None,371.4187249999959,None,,None,None,,None,None,None,None,None,None,None,None,None,None,None,None,None,None,None,None,None,None,0.6,2,None,None,None,None,None,None,None,None,None,None,None,None,,None,None,None,None,None,None,None,None,None,None,None,None,None,None,None,None,None,None,None,None,372.90370920009445,None,,,,,,,,,,,,,,,,265,m,29,2023_Mar_26_1537,RL,2021.2.3,59.871312610516824,
1,-0.3,-0.225,0,28,28,28,,,,,,,,,,,,,,,None,None,None,None,None,374.7277113000164,None,374.7277113000164,None,374.7277113000164,None,374.7277113000164,None,j,1.166123399976641,374.7277113000164,None,374.7277113000164,None,375.94521610008087,None,375.94521610008087,None,375.94521610008087,None,375.94521610008087,None,375.94521610008087,None,375.94521610008087,None,376.24143290007487,None,376.24143290007487,None,377.1733324000379,None,377.1733324000379,None,377.1733324000379,None,377.1733324000379,None,377.1733324000379,None,377.1733324000379,None,377.1733324000379,None,377.1733324000379,None,377.1733324000379,None,44,21,54,14,14,49,379.6963436000515,None,5.0,1.7677802999969572,379.6963436000515,None,379.6963436000515,None,379.6963436000515,None,379.6963436000515,None,,None,None,,None,None,None,None,None,None,None,None,None,None,None,None,None,None,None,None,None,None,-0.6,2,None,None,None,None,None,None,None,None,None,None,None,None,,None,None,None,None,None,None,None,None,None,None,None,None,None,None,None,None,None,None,None,None,381.52613540005405,None,,,,,,,,,,,,,,,,265,m,29,2023_Mar_26_1537,RL,2021.2.3,59.871312610516824,
0,0.3,0.225,0,29,29,29,,,,,,,,,,,,,,,None,None,None,None,None,383.44997900002636,None,383.44997900002636,None,383.44997900002636,None,383.44997900002636,None,f,0.34542650007642806,383.44997900002636,None,383.44997900002636,None,383.83774460002314,None,383.83774460002314,None,383.83774460002314,None,383.83774460002314,None,383.83774460002314,None,383.83774460002314,None,384.12995420000516,None,384.12995420000516,None,385.49621110002045,None,385.49621110002045,None,385.49621110002045,None,385.49621110002045,None,385.49621110002045,None,385.49621110002045,None,385.49621110002045,None,385.49621110002045,None,385.49621110002045,None,53,20,48,12,20,58,None,None,None,None,None,None,None,None,None,None,None,None,,None,None,,None,None,None,None,None,None,None,None,None,None,None,None,None,None,None,None,None,None,-0.6,1,388.04239460011013,None,388.04239460011013,None,388.04239460011013,None,388.04239460011013,None,388.04239460011013,None,388.04239460011013,None,35,388.04239460011013,None,388.04239460011013,None,0.014995540026575327,None,388.04239460011013,None,7.015625,1.7945107000414282,392.0103359000059,None,392.0103359000059,None,392.0103359000059,None,392.0103359000059,None,None,None,393.8193281000713,None,0.08203125,-0.2682291666666667,1,0,0,3.9359476000536233,tijiao_random_2,,,,,,,,,265,m,29,2023_Mar_26_1537,RL,2021.2.3,59.871312610516824,
1,-0.3,-0.225,0,30,30,30,,,,,,,,,,,,,,,None,None,None,None,None,395.5249607000733,None,395.5249607000733,None,395.5249607000733,None,395.5249607000733,None,r,0.36995560000650585,395.5249607000733,None,395.5249607000733,None,395.9448589000385,None,395.9448589000385,None,395.9448589000385,None,395.9448589000385,None,395.9448589000385,None,395.9448589000385,None,396.23822060006205,None,396.23822060006205,None,397.2864869000623,None,397.2864869000623,None,397.2864869000623,None,397.2864869000623,None,397.2864869000623,None,397.2864869000623,None,397.2864869000623,None,397.2864869000623,None,397.2864869000623,None,47,30,47,23,47,50,None,None,None,None,None,None,None,None,None,None,None,None,,None,None,,None,None,None,None,None,None,None,None,None,None,None,None,None,None,None,None,None,None,-0.6,1,399.83237550000194,None,399.83237550000194,None,399.83237550000194,None,399.83237550000194,None,399.83237550000194,None,399.83237550000194,None,40,399.83237550000194,None,399.83237550000194,None,0.015924840001389384,None,399.83237550000194,None,6.9765625,1.7993219000054523,405.60368420009036,None,405.60368420009036,None,405.60368420009036,None,405.60368420009036,None,None,None,407.42936780001037,None,0.04296875,-0.2747395833333333,1,0,0,5.737126799998805,tijiao_random_2,,,,,,,,,265,m,29,2023_Mar_26_1537,RL,2021.2.3,59.871312610516824,
0,0.3,0.225,0,31,31,31,,,,,,,,,,,,,,,None,None,None,None,None,409.41832210007124,None,409.41832210007124,None,409.41832210007124,None,409.41832210007124,None,r,0.31671159993857145,409.41832210007124,None,409.41832210007124,None,409.7879226000514,None,409.7879226000514,None,409.7879226000514,None,409.7879226000514,None,409.7879226000514,None,409.7879226000514,None,410.0646775000496,411.93247070000507,410.0646775000496,411.93247070000507,411.9819117001025,None,411.9819117001025,None,411.9819117001025,None,411.9819117001025,None,411.9819117001025,None,411.9819117001025,None,411.9819117001025,None,411.9819117001025,None,411.9819117001025,None,57,26,53,15,57,51,None,None,None,None,None,None,None,None,None,None,None,None,,None,None,,None,None,None,None,None,None,None,None,None,None,None,None,None,None,None,None,None,None,-0.6,1,414.52693300007377,None,414.52693300007377,None,414.52693300007377,None,414.52693300007377,None,414.52693300007377,None,414.52693300007377,None,55,414.52693300007377,None,414.52693300007377,None,0.014993839897215366,None,414.52693300007377,None,7.015625,1.9650388000300154,419.3150361001026,None,419.3150361001026,None,419.3150361001026,None,419.3150361001026,None,None,None,421.29813180002384,None,0.10416666666666667,-0.29296875,1,0,0,4.752444099984132,tijiao_random_2,,,,,,,,,265,m,29,2023_Mar_26_1537,RL,2021.2.3,59.871312610516824,
1,-0.3,-0.225,0,32,32,32,,,,,,,,,,,,,,,None,None,None,None,None,423.11057460005395,None,423.11057460005395,None,423.11057460005395,None,423.11057460005395,None,r,0.32454379997216165,423.11057460005395,None,423.11057460005395,None,423.48617200006265,None,423.48617200006265,None,423.48617200006265,None,423.48617200006265,None,423.48617200006265,None,423.48617200006265,None,423.77409330010414,424.7747262000339,423.77409330010414,424.7747262000339,424.80893050006125,None,424.80893050006125,None,424.80893050006125,None,424.80893050006125,None,424.80893050006125,None,424.80893050006125,None,424.80893050006125,None,424.80893050006125,None,424.80893050006125,None,53,31,56,7,53,45,None,None,None,None,None,None,None,None,None,None,None,None,,None,None,,None,None,None,None,None,None,None,None,None,None,None,None,None,None,None,None,None,None,0.2,1,427.35724320006557,None,427.35724320006557,None,427.35724320006557,None,427.35724320006557,None,427.35724320006557,None,427.35724320006557,None,54,427.35724320006557,None,427.35724320006557,None,0.010819640010595322,None,427.35724320006557,None,7.106770833333334,1.3467302999924868,432.5866586000193,None,432.5866586000193,None,432.5866586000193,None,432.5866586000193,None,None,None,433.9470687001012,None,0.045572916666666664,-0.2890625,1,0,0,5.198585000005551,tijiao_random_2,,,,,,,,,265,m,29,2023_Mar_26_1537,RL,2021.2.3,59.871312610516824,
0,0.3,0.225,0,33,33,33,,,,,,,,,,,,,,,None,None,None,None,None,435.5858605999965,None,435.5858605999965,None,435.5858605999965,None,435.5858605999965,None,i,0.3595083000836894,435.5858605999965,None,435.5858605999965,None,435.9890753000509,None,435.9890753000509,None,435.9890753000509,None,435.9890753000509,None,435.9890753000509,None,435.9890753000509,None,436.2830541000003,None,436.2830541000003,None,437.43463110004086,None,437.43463110004086,None,437.43463110004086,None,437.43463110004086,None,437.43463110004086,None,437.43463110004086,None,437.43463110004086,None,437.43463110004086,None,437.43463110004086,None,47,35,54,21,54,41,None,None,None,None,None,None,None,None,None,None,None,None,55,439.9673427999951,None,55,439.9673427999951,None,439.9673427999951,None,439.9673427999951,None,439.9673427999951,None,439.9673427999951,None,439.9673427999951,None,439.9673427999951,None,0.010441330028697848,None,439.9673427999951,None,-0.2,0,None,None,None,None,None,None,None,None,None,None,None,None,,None,None,None,None,None,None,None,None,8.03125,1.6830106999259442,446.21608890010975,None,446.21608890010975,None,446.21608890010975,None,446.21608890010975,None,None,None,447.9225793000078,None,,,,,,,,0.06510416666666667,-0.2955729166666667,1,0,0,6.199394700000994,tijiao,,265,m,29,2023_Mar_26_1537,RL,2021.2.3,59.871312610516824,
1,-0.3,-0.225,0,34,34,34,,,,,,,,,,,,,,,None,None,None,None,None,449.7122906000586,None,449.7122906000586,None,449.7122906000586,None,449.7122906000586,None,i,0.30311039998196065,449.7122906000586,None,449.7122906000586,None,450.0661923000589,None,450.0661923000589,None,450.0661923000589,None,450.0661923000589,None,450.0661923000589,None,450.0661923000589,None,450.3425879999995,451.4100047000684,450.3425879999995,451.4100047000684,451.4639274000656,None,451.4639274000656,None,451.4639274000656,None,451.4639274000656,None,451.4639274000656,None,451.4639274000656,None,451.4639274000656,None,451.4639274000656,None,451.4639274000656,None,48,37,57,21,57,50,None,None,None,None,None,None,None,None,None,None,None,None,,None,None,,None,None,None,None,None,None,None,None,None,None,None,None,None,None,None,None,None,None,-0.2,1,454.0027635000879,None,454.0027635000879,None,454.0027635000879,None,454.0027635000879,None,454.0027635000879,None,454.0027635000879,None,20,454.0027635000879,None,454.0027635000879,None,0.0003844300517812371,None,454.0027635000879,None,7.901041666666666,1.4126673000864685,459.91036130010616,None,459.91036130010616,None,459.91036130010616,None,459.91036130010616,None,None,None,461.3486438000109,None,0.10807291666666667,-0.30859375,1,0,0,5.871694999979809,tijiao_random_2,,,,,,,,,265,m,29,2023_Mar_26_1537,RL,2021.2.3,59.871312610516824,
0,0.3,0.225,0,35,35,35,,,,,,,,,,,,,,,None,None,None,None,None,463.0886110001011,None,463.0886110001011,None,463.0886110001011,None,463.0886110001011,None,f,0.32678509992547333,463.0886110001011,None,463.0886110001011,None,463.4579860001104,None,463.4579860001104,None,463.4579860001104,None,463.4579860001104,None,463.4579860001104,None,463.4579860001104,None,463.75194340001326,None,463.75194340001326,None,464.95122560008895,None,464.95122560008895,None,464.95122560008895,None,464.95122560008895,None,464.95122560008895,None,464.95122560008895,None,464.95122560008895,None,464.95122560008895,None,464.95122560008895,None,44,31,63,22,31,38,None,None,None,None,None,None,None,None,None,None,None,None,28,467.48785530007444,None,28,467.48785530007444,None,467.48785530007444,None,467.48785530007444,None,467.48785530007444,None,467.48785530007444,None,467.48785530007444,None,467.48785530007444,None,0.008414829964749515,None,467.48785530007444,None,-0.2,0,None,None,None,None,None,None,None,None,None,None,None,None,,None,None,None,None,None,None,None,None,7.966145833333334,3.031422899919562,471.7631781999953,None,471.7631781999953,None,471.7631781999953,None,471.7631781999953,None,None,None,474.80871840007603,None,,,,,,,,0.10677083333333333,-0.2734375,1,0,0,4.2290917000500485,tijiao,,265,m,29,2023_Mar_26_1537,RL,2021.2.3,59.871312610516824,
1,-0.3,-0.225,0,36,36,36,,,,,,,,,,,,,,,None,None,None,None,None,476.46497200010344,None,476.46497200010344,None,476.46497200010344,None,476.46497200010344,None,f,0.32067260006442666,476.46497200010344,None,476.46497200010344,None,476.83474000007845,None,476.83474000007845,None,476.83474000007845,None,476.83474000007845,None,476.83474000007845,None,476.83474000007845,None,477.1277624000795,478.1287642000243,477.1277624000795,478.1287642000243,478.1615627000574,None,478.1615627000574,None,478.1615627000574,None,478.1615627000574,None,478.1615627000574,None,478.1615627000574,None,478.1615627000574,None,478.1615627000574,None,478.1615627000574,None,47,33,60,15,33,49,None,None,None,None,None,None,None,None,None,None,None,None,,None,None,,None,None,None,None,None,None,None,None,None,None,None,None,None,None,None,None,None,None,0.6,1,480.70774910005275,None,480.70774910005275,None,480.70774910005275,None,480.70774910005275,None,480.70774910005275,None,480.70774910005275,None,24,480.70774910005275,None,480.70774910005275,None,0.013381240074522793,None,480.70774910005275,None,6.9765625,1.527823599986732,486.19218280003406,None,486.19218280003406,None,486.19218280003406,None,486.19218280003406,None,None,None,487.73440280009527,None,0.0859375,-0.265625,1,0,0,5.4514005000237375,tijiao_random_2,,,,,,,,,265,m,29,2023_Mar_26_1537,RL,2021.2.3,59.871312610516824,
0,0.3,0.225,0,37,37,37,,,,,,,,,,,,,,,None,None,None,None,None,489.27338930009864,None,489.27338930009864,None,489.27338930009864,None,489.27338930009864,None,j,0.39216060005128384,489.27338930009864,None,489.27338930009864,None,489.7110187000362,None,489.7110187000362,None,489.7110187000362,None,489.7110187000362,None,489.7110187000362,None,489.7110187000362,None,490.0034168000566,490.820731600048,490.0034168000566,490.820731600048,490.85376260010526,None,490.85376260010526,None,490.85376260010526,None,490.85376260010526,None,490.85376260010526,None,490.85376260010526,None,490.85376260010526,None,490.85376260010526,None,490.85376260010526,None,41,34,59,29,29,44,None,None,None,None,None,None,None,None,None,None,None,None,,None,None,,None,None,None,None,None,None,None,None,None,None,None,None,None,None,None,None,None,None,0.6,1,493.39701260009315,None,493.39701260009315,None,493.39701260009315,None,493.39701260009315,None,493.39701260009315,None,493.39701260009315,None,28,493.39701260009315,None,493.39701260009315,None,0.0003573299618437886,None,493.39701260009315,None,7.953125,2.5591524000046775,497.01626340008806,None,497.01626340008806,None,497.01626340008806,None,497.01626340008806,None,None,None,499.6092185000889,None,0.06510416666666667,-0.2786458333333333,1,0,0,3.5870591999264434,tijiao_random_2,,,,,,,,,265,m,29,2023_Mar_26_1537,RL,2021.2.3,59.871312610516824,
1,-0.3,-0.225,0,38,38,38,,,,,,,,,,,,,,,None,None,None,None,None,501.4985943000065,None,501.4985943000065,None,501.4985943000065,None,501.4985943000065,None,j,0.3370114000281319,501.4985943000065,None,501.4985943000065,None,501.8910511001013,None,501.8910511001013,None,501.8910511001013,None,501.8910511001013,None,501.8910511001013,None,501.8910511001013,None,502.1785555999959,503.8298985000001,502.1785555999959,503.8298985000001,503.86626690009143,None,503.86626690009143,None,503.86626690009143,None,503.86626690009143,None,503.86626690009143,None,503.86626690009143,None,503.86626690009143,None,503.86626690009143,None,503.86626690009143,None,42,42,67,12,12,43,506.39734610007145,None,2.0,2.3541236000601202,506.39734610007145,None,506.39734610007145,None,506.39734610007145,None,506.39734610007145,None,,None,None,,None,None,None,None,None,None,None,None,None,None,None,None,None,None,None,None,None,None,0.2,2,None,None,None,None,None,None,None,None,None,None,None,None,,None,None,None,None,None,None,None,None,None,None,None,None,None,None,None,None,None,None,None,None,508.80383820005227,None,,,,,,,,,,,,,,,,265,m,29,2023_Mar_26_1537,RL,2021.2.3,59.871312610516824,
0,0.3,0.225,0,39,39,39,,,,,,,,,,,,,,,None,None,None,None,None,510.42197030002717,None,510.42197030002717,None,510.42197030002717,None,510.42197030002717,None,j,0.98381220002193,510.42197030002717,None,510.42197030002717,None,511.45670780004,None,511.45670780004,None,511.45670780004,None,511.45670780004,None,511.45670780004,None,511.45670780004,None,511.751862400095,513.2530202000635,511.751862400095,513.2530202000635,513.2850060000783,None,513.2850060000783,None,513.2850060000783,None,513.2850060000783,None,513.2850060000783,None,513.2850060000783,None,513.2850060000783,None,513.2850060000783,None,513.2850060000783,None,51,40,56,14,14,42,None,None,None,None,None,None,None,None,None,None,None,None,,None,None,,None,None,None,None,None,None,None,None,None,None,None,None,None,None,None,None,None,None,-0.6,1,515.8354284000816,None,515.8354284000816,None,515.8354284000816,None,515.8354284000816,None,515.8354284000816,None,515.8354284000816,None,28,515.8354284000816,None,515.8354284000816,None,0.009759839973412454,None,515.8354284000816,None,5.921875,2.210947099956684,524.9020929000108,None,524.9020929000108,None,524.9020929000108,None,524.9020929000108,None,None,None,527.128430700046,None,0.03125,-0.296875,1,0,0,9.034422799944878,tijiao_random_2,,,,,,,,,265,m,29,2023_Mar_26_1537,RL,2021.2.3,59.871312610516824,
1,-0.3,-0.225,0,40,40,40,,,,,,,,,,,,,,,None,None,None,None,None,528.9342009000247,None,528.9342009000247,None,528.9342009000247,None,528.9342009000247,None,r,0.31213680002838373,528.9342009000247,None,528.9342009000247,None,529.2868611000013,None,529.2868611000013,None,529.2868611000013,None,529.2868611000013,None,529.2868611000013,None,529.2868611000013,None,529.5809243000112,None,529.5809243000112,None,530.5141189000569,None,530.5141189000569,None,530.5141189000569,None,530.5141189000569,None,530.5141189000569,None,530.5141189000569,None,530.5141189000569,None,530.5141189000569,None,530.5141189000569,None,48,37,62,23,48,47,None,None,None,None,None,None,None,None,None,None,None,None,40,533.0485005000373,None,40,533.0485005000373,None,533.0485005000373,None,533.0485005000373,None,533.0485005000373,None,533.0485005000373,None,533.0485005000373,None,533.0485005000373,None,0.009870929992757738,None,533.0485005000373,None,-0.6,0,None,None,None,None,None,None,None,None,None,None,None,None,,None,None,None,None,None,None,None,None,5.947916666666667,1.4191443000454456,537.8118687000824,None,537.8118687000824,None,537.8118687000824,None,537.8118687000824,None,None,None,539.2584895000327,None,,,,,,,,0.08463541666666667,-0.2760416666666667,1,0,0,4.714538299944252,tijiao,,265,m,29,2023_Mar_26_1537,RL,2021.2.3,59.871312610516824,
0,0.3,0.225,0,41,41,41,,,,,,,,,,,,,,,None,None,None,None,None,540.926133000059,None,540.926133000059,None,540.926133000059,None,540.926133000059,None,r,0.31074600003194064,540.926133000059,None,540.926133000059,None,541.2791464000475,None,541.2791464000475,None,541.2791464000475,None,541.2791464000475,None,541.2791464000475,None,541.2791464000475,None,541.5726344001014,None,541.5726344001014,None,542.4365722000366,None,542.4365722000366,None,542.4365722000366,None,542.4365722000366,None,542.4365722000366,None,542.4365722000366,None,542.4365722000366,None,542.4365722000366,None,542.4365722000366,None,45,36,51,25,45,46,None,None,None,None,None,None,None,None,None,None,None,None,,None,None,,None,None,None,None,None,None,None,None,None,None,None,None,None,None,None,None,None,None,0.6,1,544.9822274000617,None,544.9822274000617,None,544.9822274000617,None,544.9822274000617,None,544.9822274000617,None,544.9822274000617,None,28,544.9822274000617,None,544.9822274000617,None,0.00029323005583137274,None,544.9822274000617,None,7.041666666666666,1.3143532000249252,550.9387578000315,None,550.9387578000315,None,550.9387578000315,None,550.9387578000315,None,None,None,552.2785623000236,None,0.06901041666666667,-0.2994791666666667,1,0,0,5.921686999965459,tijiao_random_2,,,,,,,,,265,m,29,2023_Mar_26_1537,RL,2021.2.3,59.871312610516824,
1,-0.3,-0.225,0,42,42,42,,,,,,,,,,,,,,,None,None,None,None,None,554.1352118001087,None,554.1352118001087,None,554.1352118001087,None,554.1352118001087,None,j,0.3125388000626117,554.1352118001087,None,554.1352118001087,None,554.4893801000435,None,554.4893801000435,None,554.4893801000435,None,554.4893801000435,None,554.4893801000435,None,554.4893801000435,None,554.7650255000917,555.7156429000897,554.7650255000917,555.7156429000897,555.7471219000872,None,555.7471219000872,None,555.7471219000872,None,555.7471219000872,None,555.7471219000872,None,555.7471219000872,None,555.7471219000872,None,555.7471219000872,None,555.7471219000872,None,45,39,59,30,30,41,None,None,None,None,None,None,None,None,None,None,None,None,35,558.2772021000274,None,35,558.2772021000274,None,558.2772021000274,None,558.2772021000274,None,558.2772021000274,None,558.2772021000274,None,558.2772021000274,None,558.2772021000274,None,0.015348530025221407,None,558.2772021000274,None,-0.2,0,None,None,None,None,None,None,None,None,None,None,None,None,,None,None,None,None,None,None,None,None,7.067708333333334,1.2234081999631599,561.6825691000558,None,561.6825691000558,None,561.6825691000558,None,561.6825691000558,None,None,None,562.9195799001027,None,,,,,,,,0.07942708333333333,-0.2838541666666667,1,0,0,3.3520449000643566,tijiao,,265,m,29,2023_Mar_26_1537,RL,2021.2.3,59.871312610516824,
0,0.3,0.225,0,43,43,43,,,,,,,,,,,,,,,None,None,None,None,None,564.7766788000008,None,564.7766788000008,None,564.7766788000008,None,564.7766788000008,None,j,0.39063549996353686,564.7766788000008,None,564.7766788000008,None,565.2138350000605,None,565.2138350000605,None,565.2138350000605,None,565.2138350000605,None,565.2138350000605,None,565.2138350000605,None,565.4894065000117,566.339816300082,565.4894065000117,566.339816300082,566.3753256000346,None,566.3753256000346,None,566.3753256000346,None,566.3753256000346,None,566.3753256000346,None,566.3753256000346,None,566.3753256000346,None,566.3753256000346,None,566.3753256000346,None,53,39,61,26,26,50,None,None,None,None,None,None,None,None,None,None,None,None,,None,None,,None,None,None,None,None,None,None,None,None,None,None,None,None,None,None,None,None,None,-0.6,1,568.9161395000992,None,568.9161395000992,None,568.9161395000992,None,568.9161395000992,None,568.9161395000992,None,568.9161395000992,None,40,568.9161395000992,None,568.9161395000992,None,0.00010653003118932247,None,568.9161395000992,None,8.1484375,1.299720700015314,575.2704883000115,None,575.2704883000115,None,575.2704883000115,None,575.2704883000115,None,None,None,576.5953928000527,None,-0.044270833333333336,-0.26953125,1,0,0,6.321951900026761,tijiao_random_2,,,,,,,,,265,m,29,2023_Mar_26_1537,RL,2021.2.3,59.871312610516824,
1,-0.3,-0.225,0,44,44,44,,,,,,,,,,,,,,,None,None,None,None,None,578.1526814000681,None,578.1526814000681,None,578.1526814000681,None,578.1526814000681,None,r,0.3144661000696942,578.1526814000681,None,578.1526814000681,None,578.5241626000497,None,578.5241626000497,None,578.5241626000497,None,578.5241626000497,None,578.5241626000497,None,578.5241626000497,None,578.8150661000982,580.2161296000704,578.8150661000982,580.2161296000704,580.247286100057,None,580.247286100057,None,580.247286100057,None,580.247286100057,None,580.247286100057,None,580.247286100057,None,580.247286100057,None,580.247286100057,None,580.247286100057,None,48,45,55,28,48,48,None,None,None,None,None,None,None,None,None,None,None,None,,None,None,,None,None,None,None,None,None,None,None,None,None,None,None,None,None,None,None,None,None,0.2,1,582.7922026000451,None,582.7922026000451,None,582.7922026000451,None,582.7922026000451,None,582.7922026000451,None,582.7922026000451,None,45,582.7922026000451,None,582.7922026000451,None,0.016525639919564128,None,582.7922026000451,None,6.065104166666666,1.848190699936822,589.5632040000055,None,589.5632040000055,None,589.5632040000055,None,589.5632040000055,None,None,None,591.4390150000108,None,0.140625,-0.29296875,1,0,0,6.73863000003621,tijiao_random_2,,,,,,,,,265,m,29,2023_Mar_26_1537,RL,2021.2.3,59.871312610516824,
0,0.3,0.225,0,45,45,45,,,,,,,,,,,,,,,None,None,None,None,None,592.9786911000265,None,592.9786911000265,None,592.9786911000265,None,592.9786911000265,None,i,0.3291014999849722,592.9786911000265,None,592.9786911000265,None,593.3499596000183,None,593.3499596000183,None,593.3499596000183,None,593.3499596000183,None,593.3499596000183,None,593.3499596000183,None,593.6421145000495,None,593.6421145000495,None,595.0231724000769,None,595.0231724000769,None,595.0231724000769,None,595.0231724000769,None,595.0231724000769,None,595.0231724000769,None,595.0231724000769,None,595.0231724000769,None,595.0231724000769,None,51,46,54,22,54,55,597.5475774001097,None,6.0,2.186273099971004,597.5475774001097,None,597.5475774001097,None,597.5475774001097,None,597.5475774001097,None,,None,None,,None,None,None,None,None,None,None,None,None,None,None,None,None,None,None,None,None,None,0.2,2,None,None,None,None,None,None,None,None,None,None,None,None,,None,None,None,None,None,None,None,None,None,None,None,None,None,None,None,None,None,None,None,None,599.7933110001031,None,,,,,,,,,,,,,,,,265,m,29,2023_Mar_26_1537,RL,2021.2.3,59.871312610516824,
1,-0.3,-0.225,0,46,46,46,,,,,,,,,,,,,,,None,None,None,None,None,601.584996300051,None,601.584996300051,None,601.584996300051,None,601.584996300051,None,f,0.9725123000098392,601.584996300051,None,601.584996300051,None,602.6055095000193,None,602.6055095000193,None,602.6055095000193,None,602.6055095000193,None,602.6055095000193,None,602.6055095000193,None,602.8987370000686,603.9151659000199,602.8987370000686,603.9151659000199,603.932954100077,None,603.932954100077,None,603.932954100077,None,603.932954100077,None,603.932954100077,None,603.932954100077,None,603.932954100077,None,603.932954100077,None,603.932954100077,None,43,39,51,25,39,37,606.4508942000102,None,6.0,1.569741600076668,606.4508942000102,None,606.4508942000102,None,606.4508942000102,None,606.4508942000102,None,,None,None,,None,None,None,None,None,None,None,None,None,None,None,None,None,None,None,None,None,None,-0.6,2,None,None,None,None,None,None,None,None,None,None,None,None,,None,None,None,None,None,None,None,None,None,None,None,None,None,None,None,None,None,None,None,None,608.0738334000343,None,,,,,,,,,,,,,,,,265,m,29,2023_Mar_26_1537,RL,2021.2.3,59.871312610516824,
0,0.3,0.225,0,47,47,47,,,,,,,,,,,,,,,None,None,None,None,None,610.0405090000713,None,610.0405090000713,None,610.0405090000713,None,610.0405090000713,None,j,1.1669418999226764,610.0405090000713,None,610.0405090000713,None,611.2610084000044,None,611.2610084000044,None,611.2610084000044,None,611.2610084000044,None,611.2610084000044,None,611.2610084000044,None,611.5548553999979,612.5052989000687,611.5548553999979,612.5052989000687,612.5415477000643,None,612.5415477000643,None,612.5415477000643,None,612.5415477000643,None,612.5415477000643,None,612.5415477000643,None,612.5415477000643,None,612.5415477000643,None,612.5415477000643,None,51,46,49,20,20,46,615.0590483000269,None,2.0,1.851420999970287,615.0590483000269,None,615.0590483000269,None,615.0590483000269,None,615.0590483000269,None,,None,None,,None,None,None,None,None,None,None,None,None,None,None,None,None,None,None,None,None,None,-0.6,3,None,None,None,None,None,None,None,None,None,None,None,None,,None,None,None,None,None,None,None,None,None,None,None,None,None,None,None,None,None,None,None,None,616.9632291001035,None,,,,,,,,,,,,,,,,265,m,29,2023_Mar_26_1537,RL,2021.2.3,59.871312610516824,
1,-0.3,-0.225,0,48,48,48,,,,,,,,,,,,,,,None,None,None,None,None,618.8135997001082,None,618.8135997001082,None,618.8135997001082,None,618.8135997001082,None,f,0.7138381000841036,618.8135997001082,None,618.8135997001082,None,619.5669392000418,None,619.5669392000418,None,619.5669392000418,None,619.5669392000418,None,619.5669392000418,None,619.5669392000418,None,619.8602379000513,None,619.8602379000513,None,621.2969311000779,None,621.2969311000779,None,621.2969311000779,None,621.2969311000779,None,621.2969311000779,None,621.2969311000779,None,621.2969311000779,None,621.2969311000779,None,621.2969311000779,None,57,44,47,29,44,45,None,None,None,None,None,None,None,None,None,None,None,None,40,623.8276441000635,None,40,623.8276441000635,None,623.8276441000635,None,623.8276441000635,None,623.8276441000635,None,623.8276441000635,None,623.8276441000635,None,623.8276441000635,None,0.009881730074994266,None,623.8276441000635,None,0.2,0,None,None,None,None,None,None,None,None,None,None,None,None,,None,None,None,None,None,None,None,None,7.080729166666666,1.87862520001363,629.0065726001048,None,629.0065726001048,None,629.0065726001048,None,629.0065726001048,None,None,None,630.9132166000782,None,,,,,,,,-0.0026041666666666665,-0.2721354166666667,1,0,0,5.1315012000268325,tijiao,,265,m,29,2023_Mar_26_1537,RL,2021.2.3,59.871312610516824,
0,0.3,0.225,0,49,49,49,,,,,,,,,,,,,,,None,None,None,None,None,632.8731925000902,None,632.8731925000902,None,632.8731925000902,None,632.8731925000902,None,f,0.2942863000789657,632.8731925000902,None,632.8731925000902,None,633.2107011000626,None,633.2107011000626,None,633.2107011000626,None,633.2107011000626,None,633.2107011000626,None,633.2107011000626,None,633.5031312000938,634.5537366000935,633.5031312000938,634.5537366000935,634.5868616000516,None,634.5868616000516,None,634.5868616000516,None,634.5868616000516,None,634.5868616000516,None,634.5868616000516,None,634.5868616000516,None,634.5868616000516,None,634.5868616000516,None,52,43,58,37,43,53,None,None,None,None,None,None,None,None,None,None,None,None,45,637.1185115000699,None,45,637.1185115000699,None,637.1185115000699,None,637.1185115000699,None,637.1185115000699,None,637.1185115000699,None,637.1185115000699,None,637.1185115000699,None,0.011974030057899654,None,637.1185115000699,None,0.2,0,None,None,None,None,None,None,None,None,None,None,None,None,,None,None,None,None,None,None,None,None,8.0703125,1.9136053000111133,642.3979292000877,None,642.3979292000877,None,642.3979292000877,None,642.3979292000877,None,None,None,644.3267150000902,None,,,,,,,,0.1015625,-0.2916666666666667,1,0,0,5.2337134999688715,tijiao,,265,m,29,2023_Mar_26_1537,RL,2021.2.3,59.871312610516824,
1,-0.3,-0.225,0,50,50,50,,,,,,,,,,,,,,,None,None,None,None,None,645.8646749000764,None,645.8646749000764,None,645.8646749000764,None,645.8646749000764,None,f,0.32299569994211197,645.8646749000764,None,645.8646749000764,None,646.2379292000551,None,646.2379292000551,None,646.2379292000551,None,646.2379292000551,None,646.2379292000551,None,646.2379292000551,None,646.5288637001067,None,646.5288637001067,None,648.2763296000194,None,648.2763296000194,None,648.2763296000194,None,648.2763296000194,None,648.2763296000194,None,648.2763296000194,None,648.2763296000194,None,648.2763296000194,None,648.2763296000194,None,57,42,46,43,42,31,None,None,None,None,None,None,None,None,None,None,None,None,41,650.8084756000899,None,41,650.8084756000899,None,650.8084756000899,None,650.8084756000899,None,650.8084756000899,None,650.8084756000899,None,650.8084756000899,None,650.8084756000899,None,0.01472412992734462,None,650.8084756000899,None,-0.2,0,None,None,None,None,None,None,None,None,None,None,None,None,,None,None,None,None,None,None,None,None,9.033854166666668,1.2879325000103563,655.5081284000771,None,655.5081284000771,None,655.5081284000771,None,655.5081284000771,None,None,None,656.8177541000769,None,,,,,,,,0.13932291666666666,-0.2604166666666667,1,0,0,4.651886700070463,tijiao,,265,m,29,2023_Mar_26_1537,RL,2021.2.3,59.871312610516824,
0,0.3,0.225,0,51,51,51,,,,,,,,,,,,,,,None,None,None,None,None,658.7580682000844,None,658.7580682000844,None,658.7580682000844,None,658.7580682000844,None,f,0.3396658001001924,658.7580682000844,None,658.7580682000844,None,659.1459591001039,None,659.1459591001039,None,659.1459591001039,None,659.1459591001039,None,659.1459591001039,None,659.1459591001039,None,659.4210334999952,661.1222841000417,659.4210334999952,661.1222841000417,661.1725298000965,None,661.1725298000965,None,661.1725298000965,None,661.1725298000965,None,661.1725298000965,None,661.1725298000965,None,661.1725298000965,None,661.1725298000965,None,661.1725298000965,None,63,46,64,39,46,53,None,None,None,None,None,None,None,None,None,None,None,None,45,663.7035643000854,None,45,663.7035643000854,None,663.7035643000854,None,663.7035643000854,None,663.7035643000854,None,663.7035643000854,None,663.7035643000854,None,663.7035643000854,None,0.012255429988726974,None,663.7035643000854,None,-0.2,0,None,None,None,None,None,None,None,None,None,None,None,None,,None,None,None,None,None,None,None,None,9.059895833333332,1.4485152000561357,667.4479891000083,None,667.4479891000083,None,667.4479891000083,None,667.4479891000083,None,None,None,668.9103094000602,None,,,,,,,,0.06770833333333333,-0.2643229166666667,1,0,0,3.6995187000138685,tijiao,,265,m,29,2023_Mar_26_1537,RL,2021.2.3,59.871312610516824,
1,-0.3,-0.225,0,52,52,52,,,,,,,,,,,,,,,None,None,None,None,None,670.6492563000647,None,670.6492563000647,None,670.6492563000647,None,670.6492563000647,None,f,0.3792895999504253,670.6492563000647,None,670.6492563000647,None,671.0698357000947,None,671.0698357000947,None,671.0698357000947,None,671.0698357000947,None,671.0698357000947,None,671.0698357000947,None,671.3628344000317,672.3969674000982,671.3628344000317,672.3969674000982,672.4289613000583,None,672.4289613000583,None,672.4289613000583,None,672.4289613000583,None,672.4289613000583,None,672.4289613000583,None,672.4289613000583,None,672.4289613000583,None,672.4289613000583,None,65,49,54,40,49,31,None,None,None,None,None,None,None,None,None,None,None,None,,None,None,,None,None,None,None,None,None,None,None,None,None,None,None,None,None,None,None,None,None,-0.2,1,674.9749642000534,None,674.9749642000534,None,674.9749642000534,None,674.9749642000534,None,674.9749642000534,None,674.9749642000534,None,50,674.9749642000534,None,674.9749642000534,None,0.014266540063545108,None,674.9749642000534,None,9.098958333333332,1.0943703000666574,679.6261180000147,None,679.6261180000147,None,679.6261180000147,None,679.6261180000147,None,None,None,680.7456216000719,None,0.09505208333333333,-0.2942708333333333,1,0,0,4.618525699945167,tijiao_random_2,,,,,,,,,265,m,29,2023_Mar_26_1537,RL,2021.2.3,59.871312610516824,
0,0.3,0.225,0,53,53,53,,,,,,,,,,,,,,,None,None,None,None,None,682.6246583000757,None,682.6246583000757,None,682.6246583000757,None,682.6246583000757,None,f,0.33322450006380677,682.6246583000757,None,682.6246583000757,None,683.010932300007,None,683.010932300007,None,683.010932300007,None,683.010932300007,None,683.010932300007,None,683.010932300007,None,683.3044141000137,None,683.3044141000137,None,684.1512571000494,None,684.1512571000494,None,684.1512571000494,None,684.1512571000494,None,684.1512571000494,None,684.1512571000494,None,684.1512571000494,None,684.1512571000494,None,684.1512571000494,None,65,40,55,42,40,49,686.6767298000632,None,3.0,1.8833148999838158,686.6767298000632,None,686.6767298000632,None,686.6767298000632,None,686.6767298000632,None,,None,None,,None,None,None,None,None,None,None,None,None,None,None,None,None,None,None,None,None,None,0.2,3,None,None,None,None,None,None,None,None,None,None,None,None,,None,None,None,None,None,None,None,None,None,None,None,None,None,None,None,None,None,None,None,None,688.6363608000102,None,,,,,,,,,,,,,,,,265,m,29,2023_Mar_26_1537,RL,2021.2.3,59.871312610516824,
1,-0.3,-0.225,0,54,54,54,,,,,,,,,,,,,,,None,None,None,None,None,690.1959010000573,None,690.1959010000573,None,690.1959010000573,None,690.1959010000573,None,j,1.0430424999212846,690.1959010000573,None,690.1959010000573,None,691.2831507000374,None,691.2831507000374,None,691.2831507000374,None,691.2831507000374,None,691.2831507000374,None,691.2831507000374,None,691.5770430000266,None,691.5770430000266,None,693.2581437000772,None,693.2581437000772,None,693.2581437000772,None,693.2581437000772,None,693.2581437000772,None,693.2581437000772,None,693.2581437000772,None,693.2581437000772,None,693.2581437000772,None,59,47,51,42,42,51,695.7798098000931,None,5.0,2.8869645999511704,695.7798098000931,None,695.7798098000931,None,695.7798098000931,None,695.7798098000931,None,,None,None,,None,None,None,None,None,None,None,None,None,None,None,None,None,None,None,None,None,None,0.2,3,None,None,None,None,None,None,None,None,None,None,None,None,,None,None,None,None,None,None,None,None,None,None,None,None,None,None,None,None,None,None,None,None,698.722128399997,None,,,,,,,,,,,,,,,,265,m,29,2023_Mar_26_1537,RL,2021.2.3,59.871312610516824,
0,0.3,0.225,0,55,55,55,,,,,,,,,,,,,,,None,None,None,None,None,700.3866236000322,None,700.3866236000322,None,700.3866236000322,None,700.3866236000322,None,j,1.0524112000130117,700.3866236000322,None,700.3866236000322,None,701.4893922000192,None,701.4893922000192,None,701.4893922000192,None,701.4893922000192,None,701.4893922000192,None,701.4893922000192,None,701.7839211000828,702.9679837001022,701.7839211000828,702.9679837001022,702.9994223000249,None,702.9994223000249,None,702.9994223000249,None,702.9994223000249,None,702.9994223000249,None,702.9994223000249,None,702.9994223000249,None,702.9994223000249,None,702.9994223000249,None,67,43,51,40,40,40,None,None,None,None,None,None,None,None,None,None,None,None,,None,None,,None,None,None,None,None,None,None,None,None,None,None,None,None,None,None,None,None,None,0.2,1,705.5487810000777,None,705.5487810000777,None,705.5487810000777,None,705.5487810000777,None,705.5487810000777,None,705.5487810000777,None,38,705.5487810000777,None,705.5487810000777,None,0.012120040017180145,None,705.5487810000777,None,6.963541666666666,1.420363900018856,711.3956545999972,None,711.3956545999972,None,711.3956545999972,None,711.3956545999972,None,None,None,712.8410505000502,None,0.0390625,-0.2708333333333333,1,0,0,5.817017700057477,tijiao_random_2,,,,,,,,,265,m,29,2023_Mar_26_1537,RL,2021.2.3,59.871312610516824,
1,-0.3,-0.225,0,56,56,56,,,,,,,,,,,,,,,None,None,None,None,None,714.6953933000332,None,714.6953933000332,None,714.6953933000332,None,714.6953933000332,None,i,0.4737077000318095,714.6953933000332,None,714.6953933000332,None,715.2173275001114,None,715.2173275001114,None,715.2173275001114,None,715.2173275001114,None,715.2173275001114,None,715.2173275001114,None,715.5101242000237,717.1612159000942,715.5101242000237,717.1612159000942,717.1969587000785,None,717.1969587000785,None,717.1969587000785,None,717.1969587000785,None,717.1969587000785,None,717.1969587000785,None,717.1969587000785,None,717.1969587000785,None,717.1969587000785,None,60,45,57,48,57,45,719.7158248000778,None,6.0,1.9331546999746934,719.7158248000778,None,719.7158248000778,None,719.7158248000778,None,719.7158248000778,None,,None,None,,None,None,None,None,None,None,None,None,None,None,None,None,None,None,None,None,None,None,0.6,3,None,None,None,None,None,None,None,None,None,None,None,None,,None,None,None,None,None,None,None,None,None,None,None,None,None,None,None,None,None,None,None,None,721.7022871000227,None,,,,,,,,,,,,,,,,265,m,29,2023_Mar_26_1537,RL,2021.2.3,59.871312610516824,
0,0.3,0.225,0,57,57,57,,,,,,,,,,,,,,,None,None,None,None,None,723.6849239000585,None,723.6849239000585,None,723.6849239000585,None,723.6849239000585,None,f,0.9342919000191614,723.6849239000585,None,723.6849239000585,None,724.6704270000337,None,724.6704270000337,None,724.6704270000337,None,724.6704270000337,None,724.6704270000337,None,724.6704270000337,None,724.9663990000263,None,724.9663990000263,None,726.9804813000374,None,726.9804813000374,None,726.9804813000374,None,726.9804813000374,None,726.9804813000374,None,726.9804813000374,None,726.9804813000374,None,726.9804813000374,None,726.9804813000374,None,65,40,49,41,40,46,None,None,None,None,None,None,None,None,None,None,None,None,,None,None,,None,None,None,None,None,None,None,None,None,None,None,None,None,None,None,None,None,None,-0.2,1,729.5332016000757,None,729.5332016000757,None,729.5332016000757,None,729.5332016000757,None,729.5332016000757,None,729.5332016000757,None,44,729.5332016000757,None,729.5332016000757,None,0.0111147400457412,None,729.5332016000757,None,8.083333333333334,1.3646976000163704,733.2116009000456,None,733.2116009000456,None,733.2116009000456,None,733.2116009000456,None,None,None,734.5893181000138,None,0.11328125,-0.2799479166666667,1,0,0,3.6480082999914885,tijiao_random_2,,,,,,,,,265,m,29,2023_Mar_26_1537,RL,2021.2.3,59.871312610516824,
1,-0.3,-0.225,0,58,58,58,,,,,,,,,,,,,,,None,None,None,None,None,736.2117066000355,None,736.2117066000355,None,736.2117066000355,None,736.2117066000355,None,f,0.397573999944143,736.2117066000355,None,736.2117066000355,None,736.648700300022,None,736.648700300022,None,736.648700300022,None,736.648700300022,None,736.648700300022,None,736.648700300022,None,736.9416377000744,738.826177900075,736.9416377000744,738.826177900075,738.8621129000094,None,738.8621129000094,None,738.8621129000094,None,738.8621129000094,None,738.8621129000094,None,738.8621129000094,None,738.8621129000094,None,738.8621129000094,None,738.8621129000094,None,74,45,55,49,45,62,None,None,None,None,None,None,None,None,None,None,None,None,,None,None,,None,None,None,None,None,None,None,None,None,None,None,None,None,None,None,None,None,None,0.2,1,741.4108653001022,None,741.4108653001022,None,741.4108653001022,None,741.4108653001022,None,741.4108653001022,None,741.4108653001022,None,50,741.4108653001022,None,741.4108653001022,None,0.008603140013292432,None,741.4108653001022,None,7.015625,1.814235599944368,745.2032786000054,None,745.2032786000054,None,745.2032786000054,None,745.2032786000054,None,None,None,747.0313636000501,None,0.13671875,-0.2682291666666667,1,0,0,3.761809100047685,tijiao_random_2,,,,,,,,,265,m,29,2023_Mar_26_1537,RL,2021.2.3,59.871312610516824,
0,0.3,0.225,0,59,59,59,,,,,,,,,,,,,,,None,None,None,None,None,748.6537109001074,None,748.6537109001074,None,748.6537109001074,None,748.6537109001074,None,i,0.355613199993968,748.6537109001074,None,748.6537109001074,None,749.0571066000266,None,749.0571066000266,None,749.0571066000266,None,749.0571066000266,None,749.0571066000266,None,749.0571066000266,None,749.3501779000508,None,749.3501779000508,None,750.6329985000193,None,750.6329985000193,None,750.6329985000193,None,750.6329985000193,None,750.6329985000193,None,750.6329985000193,None,750.6329985000193,None,750.6329985000193,None,750.6329985000193,None,59,42,62,47,62,47,None,None,None,None,None,None,None,None,None,None,None,None,,None,None,,None,None,None,None,None,None,None,None,None,None,None,None,None,None,None,None,None,None,0.6,1,753.1831893000053,None,753.1831893000053,None,753.1831893000053,None,753.1831893000053,None,753.1831893000053,None,753.1831893000053,None,45,753.1831893000053,None,753.1831893000053,None,0.010621040011756122,None,753.1831893000053,None,7.9921875,1.3072044999571517,758.884989000042,None,758.884989000042,None,758.884989000042,None,758.884989000042,None,None,None,760.2069325000048,None,0.045572916666666664,-0.2955729166666667,1,0,0,5.665420699981041,tijiao_random_2,,,,,,,,,265,m,29,2023_Mar_26_1537,RL,2021.2.3,59.871312610516824,
1,-0.3,-0.225,0,60,60,60,,,,,,,,,,,,,,,None,None,None,None,None,761.7795743000461,None,761.7795743000461,None,761.7795743000461,None,761.7795743000461,None,j,0.5198889999883249,761.7795743000461,None,761.7795743000461,None,762.348367700004,None,762.348367700004,None,762.348367700004,None,762.348367700004,None,762.348367700004,None,762.348367700004,None,762.6428636000492,None,762.6428636000492,None,764.4626219000202,None,764.4626219000202,None,764.4626219000202,None,764.4626219000202,None,764.4626219000202,None,764.4626219000202,None,764.4626219000202,None,764.4626219000202,None,764.4626219000202,None,70,44,60,45,45,40,None,None,None,None,None,None,None,None,None,None,None,None,,None,None,,None,None,None,None,None,None,None,None,None,None,None,None,None,None,None,None,None,None,-0.2,1,767.0039022000274,None,767.0039022000274,None,767.0039022000274,None,767.0039022000274,None,767.0039022000274,None,767.0039022000274,None,42,767.0039022000274,None,767.0039022000274,None,0.015876039979048073,None,767.0039022000274,None,7.953125,1.1897732999641448,773.774662700016,None,773.774662700016,None,773.774662700016,None,773.774662700016,None,None,None,774.9911378000397,None,0.12369791666666667,-0.2916666666666667,1,0,0,6.738484099972993,tijiao_random_2,,,,,,,,,265,m,29,2023_Mar_26_1537,RL,2021.2.3,59.871312610516824,
0,0.3,0.225,0,61,61,61,,,,,,,,,,,,,,,None,None,None,None,None,776.7902068000985,None,776.7902068000985,None,776.7902068000985,None,776.7902068000985,None,f,0.29930140008218586,776.7902068000985,None,776.7902068000985,None,777.146009500022,None,777.146009500022,None,777.146009500022,None,777.146009500022,None,777.146009500022,None,777.146009500022,None,777.4362212000415,778.8710159000475,777.4362212000415,778.8710159000475,778.9027876000619,None,778.9027876000619,None,778.9027876000619,None,778.9027876000619,None,778.9027876000619,None,778.9027876000619,None,778.9027876000619,None,778.9027876000619,None,778.9027876000619,None,64,49,59,46,49,52,None,None,None,None,None,None,None,None,None,None,None,None,,None,None,,None,None,None,None,None,None,None,None,None,None,None,None,None,None,None,None,None,None,0.6,1,781.4507915000431,None,781.4507915000431,None,781.4507915000431,None,781.4507915000431,None,781.4507915000431,None,781.4507915000431,None,48,781.4507915000431,None,781.4507915000431,None,0.012315739993937314,None,781.4507915000431,None,6.924479166666666,1.543523299973458,788.3517373000504,None,788.3517373000504,None,788.3517373000504,None,788.3517373000504,None,None,None,789.9109597000061,None,0.1328125,-0.2903645833333333,1,0,0,6.86871800001245,tijiao_random_2,,,,,,,,,265,m,29,2023_Mar_26_1537,RL,2021.2.3,59.871312610516824,
1,-0.3,-0.225,0,62,62,62,,,,,,,,,,,,,,,None,None,None,None,None,791.7334138000151,None,791.7334138000151,None,791.7334138000151,None,791.7334138000151,None,j,0.2663783000316471,791.7334138000151,None,791.7334138000151,None,792.0517421000404,None,792.0517421000404,None,792.0517421000404,None,792.0517421000404,None,792.0517421000404,None,792.0517421000404,None,792.3468292000471,None,792.3468292000471,None,794.212610400049,None,794.212610400049,None,794.212610400049,None,794.212610400049,None,794.212610400049,None,794.212610400049,None,794.212610400049,None,794.212610400049,None,794.212610400049,None,64,49,61,59,59,46,None,None,None,None,None,None,None,None,None,None,None,None,58,796.7426721000811,None,58,796.7426721000811,None,796.7426721000811,None,796.7426721000811,None,796.7426721000811,None,796.7426721000811,None,796.7426721000811,None,796.7426721000811,None,0.015643629943951964,None,796.7426721000811,None,-0.2,0,None,None,None,None,None,None,None,None,None,None,None,None,,None,None,None,None,None,None,None,None,7.901041666666666,1.8717557000927627,800.9074854000937,None,800.9074854000937,None,800.9074854000937,None,800.9074854000937,None,None,None,802.786734900088,None,,,,,,,,0.07552083333333333,-0.265625,1,0,0,4.103163799969479,tijiao,,265,m,29,2023_Mar_26_1537,RL,2021.2.3,59.871312610516824,
0,0.3,0.225,0,63,63,63,,,,,,,,,,,,,,,None,None,None,None,None,804.7430808000499,None,804.7430808000499,None,804.7430808000499,None,804.7430808000499,None,j,0.2965934999519959,804.7430808000499,None,804.7430808000499,None,805.079462200054,None,805.079462200054,None,805.079462200054,None,805.079462200054,None,805.079462200054,None,805.079462200054,None,805.3723307000473,None,805.3723307000473,None,806.7700928000268,None,806.7700928000268,None,806.7700928000268,None,806.7700928000268,None,806.7700928000268,None,806.7700928000268,None,806.7700928000268,None,806.7700928000268,None,806.7700928000268,None,66,47,55,58,58,46,809.2908112000441,None,7.0,1.6372027999022976,809.2908112000441,None,809.2908112000441,None,809.2908112000441,None,809.2908112000441,None,,None,None,,None,None,None,None,None,None,None,None,None,None,None,None,None,None,None,None,None,None,0.2,2,None,None,None,None,None,None,None,None,None,None,None,None,,None,None,None,None,None,None,None,None,None,None,None,None,None,None,None,None,None,None,None,None,811.007265000022,None,,,,,,,,,,,,,,,,265,m,29,2023_Mar_26_1537,RL,2021.2.3,59.871312610516824,
1,-0.3,-0.225,0,64,64,64,,,,,,,,,,,,,,,None,None,None,None,None,812.5979953000788,None,812.5979953000788,None,812.5979953000788,None,812.5979953000788,None,i,1.1921802000142634,812.5979953000788,None,812.5979953000788,None,813.8358820000431,None,813.8358820000431,None,813.8358820000431,None,813.8358820000431,None,813.8358820000431,None,813.8358820000431,None,814.1287630000152,None,814.1287630000152,None,814.9758140000049,None,814.9758140000049,None,814.9758140000049,None,814.9758140000049,None,814.9758140000049,None,814.9758140000049,None,814.9758140000049,None,814.9758140000049,None,814.9758140000049,None,65,46,60,56,60,59,None,None,None,None,None,None,None,None,None,None,None,None,,None,None,,None,None,None,None,None,None,None,None,None,None,None,None,None,None,None,None,None,None,-0.6,1,817.524748200085,None,817.524748200085,None,817.524748200085,None,817.524748200085,None,817.524748200085,None,817.524748200085,None,35,817.524748200085,None,817.524748200085,None,0.014324539923109114,None,817.524748200085,None,7.067708333333334,3.0436868000542745,822.5606597000733,None,822.5606597000733,None,822.5606597000733,None,822.5606597000733,None,None,None,825.6191387000727,None,0.09635416666666667,-0.28515625,1,0,0,5.002253700047731,tijiao_random_2,,,,,,,,,265,m,29,2023_Mar_26_1537,RL,2021.2.3,59.871312610516824,
0,0.3,0.225,0,65,65,65,,,,,,,,,,,,,,,None,None,None,None,None,827.5418043000391,None,827.5418043000391,None,827.5418043000391,None,827.5418043000391,None,r,0.9580369000323117,827.5418043000391,None,827.5418043000391,None,828.5424923000392,None,828.5424923000392,None,828.5424923000392,None,828.5424923000392,None,828.5424923000392,None,828.5424923000392,None,828.8388440000126,829.8226824000012,828.8388440000126,829.8226824000012,829.8548621000955,None,829.8548621000955,None,829.8548621000955,None,829.8548621000955,None,829.8548621000955,None,829.8548621000955,None,829.8548621000955,None,829.8548621000955,None,829.8548621000955,None,65,51,58,50,65,54,None,None,None,None,None,None,None,None,None,None,None,None,60,832.3846359000308,None,60,832.3846359000308,None,832.3846359000308,None,832.3846359000308,None,832.3846359000308,None,832.3846359000308,None,832.3846359000308,None,832.3846359000308,None,0.01577162998728454,None,832.3846359000308,None,0.2,0,None,None,None,None,None,None,None,None,None,None,None,None,,None,None,None,None,None,None,None,None,7.979166666666666,1.5572706999955699,838.7013008000795,None,838.7013008000795,None,838.7013008000795,None,838.7013008000795,None,None,None,840.2792969000293,None,,,,,,,,-0.0013020833333333333,-0.25390625,1,0,0,6.270654799998738,tijiao,,265,m,29,2023_Mar_26_1537,RL,2021.2.3,59.871312610516824,
1,-0.3,-0.225,0,66,66,66,,,,,,,,,,,,,,,None,None,None,None,None,841.8688466000604,None,841.8688466000604,None,841.8688466000604,None,841.8688466000604,None,r,0.4616122000152245,841.8688466000604,None,841.8688466000604,None,842.3722648000112,None,842.3722648000112,None,842.3722648000112,None,842.3722648000112,None,842.3722648000112,None,842.3722648000112,None,842.6652513000881,843.799254200072,842.6652513000881,843.799254200072,843.8355946000665,None,843.8355946000665,None,843.8355946000665,None,843.8355946000665,None,843.8355946000665,None,843.8355946000665,None,843.8355946000665,None,843.8355946000665,None,843.8355946000665,None,71,57,50,54,71,51,None,None,None,None,None,None,None,None,None,None,None,None,,None,None,,None,None,None,None,None,None,None,None,None,None,None,None,None,None,None,None,None,None,0.6,1,846.3834902000381,None,846.3834902000381,None,846.3834902000381,None,846.3834902000381,None,846.3834902000381,None,846.3834902000381,None,48,846.3834902000381,None,846.3834902000381,None,0.008457439951598644,None,846.3834902000381,None,6.989583333333334,2.8157652999507263,851.2775673000142,None,851.2775673000142,None,851.2775673000142,None,851.2775673000142,None,None,None,854.1214849000098,None,0.12239583333333333,-0.2981770833333333,1,0,0,4.86253379995469,tijiao_random_2,,,,,,,,,265,m,29,2023_Mar_26_1537,RL,2021.2.3,59.871312610516824,
0,0.3,0.225,0,67,67,67,,,,,,,,,,,,,,,None,None,None,None,None,855.8284057000419,None,855.8284057000419,None,855.8284057000419,None,855.8284057000419,None,j,0.7026147999567911,855.8284057000419,None,855.8284057000419,None,856.582812000066,None,856.582812000066,None,856.582812000066,None,856.582812000066,None,856.582812000066,None,856.582812000066,None,856.8749769000569,858.659379000077,856.8749769000569,858.659379000077,858.6907104999991,None,858.6907104999991,None,858.6907104999991,None,858.6907104999991,None,858.6907104999991,None,858.6907104999991,None,858.6907104999991,None,858.6907104999991,None,858.6907104999991,None,65,59,51,59,59,60,None,None,None,None,None,None,None,None,None,None,None,None,,None,None,,None,None,None,None,None,None,None,None,None,None,None,None,None,None,None,None,None,None,-0.6,1,861.2445178000489,None,861.2445178000489,None,861.2445178000489,None,861.2445178000489,None,861.2445178000489,None,861.2445178000489,None,38,861.2445178000489,None,861.2445178000489,None,0.007392339990474284,None,861.2445178000489,None,7.041666666666666,1.810840699938126,870.8271001999965,None,870.8271001999965,None,870.8271001999965,None,870.8271001999965,None,None,None,872.6518645000178,None,0.048177083333333336,-0.26953125,1,0,0,9.548674000077881,tijiao_random_2,,,,,,,,,265,m,29,2023_Mar_26_1537,RL,2021.2.3,59.871312610516824,
1,-0.3,-0.225,0,68,68,68,,,,,,,,,,,,,,,None,None,None,None,None,874.474621100002,None,874.474621100002,None,874.474621100002,None,874.474621100002,None,j,0.6068502999842167,874.474621100002,None,874.474621100002,None,875.1243463000283,None,875.1243463000283,None,875.1243463000283,None,875.1243463000283,None,875.1243463000283,None,875.1243463000283,None,875.4211807000684,877.4058415000327,875.4211807000684,877.4058415000327,877.4367726000492,None,877.4367726000492,None,877.4367726000492,None,877.4367726000492,None,877.4367726000492,None,877.4367726000492,None,877.4367726000492,None,877.4367726000492,None,877.4367726000492,None,70,57,61,52,52,58,None,None,None,None,None,None,None,None,None,None,None,None,50,879.9734769000206,None,50,879.9734769000206,None,879.9734769000206,None,879.9734769000206,None,879.9734769000206,None,879.9734769000206,None,879.9734769000206,None,879.9734769000206,None,0.009711530059576035,None,879.9734769000206,None,-0.2,0,None,None,None,None,None,None,None,None,None,None,None,None,,None,None,None,None,None,None,None,None,7.861979166666666,1.5717722999397665,883.8941362000769,None,883.8941362000769,None,883.8941362000769,None,883.8941362000769,None,None,None,885.4861407000571,None,,,,,,,,0.010416666666666666,-0.2799479166666667,1,0,0,3.863331399974413,tijiao,,265,m,29,2023_Mar_26_1537,RL,2021.2.3,59.871312610516824,
0,0.3,0.225,0,69,69,69,,,,,,,,,,,,,,,None,None,None,None,None,887.3331846001092,None,887.3331846001092,None,887.3331846001092,None,887.3331846001092,None,j,0.38851019996218383,887.3331846001092,None,887.3331846001092,None,887.770965200034,None,887.770965200034,None,887.770965200034,None,887.770965200034,None,887.770965200034,None,887.770965200034,None,888.0633383000968,None,888.0633383000968,None,889.6611971000675,None,889.6611971000675,None,889.6611971000675,None,889.6611971000675,None,889.6611971000675,None,889.6611971000675,None,889.6611971000675,None,889.6611971000675,None,889.6611971000675,None,68,59,58,56,56,47,892.1834815000184,None,7.0,2.304685200098902,892.1834815000184,None,892.1834815000184,None,892.1834815000184,None,892.1834815000184,None,,None,None,,None,None,None,None,None,None,None,None,None,None,None,None,None,None,None,None,None,None,0.6,2,None,None,None,None,None,None,None,None,None,None,None,None,,None,None,None,None,None,None,None,None,None,None,None,None,None,None,None,None,None,None,None,None,894.5442582000978,None,,,,,,,,,,,,,,,,265,m,29,2023_Mar_26_1537,RL,2021.2.3,59.871312610516824,
1,-0.3,-0.225,0,70,70,70,,,,,,,,,,,,,,,None,None,None,None,None,896.4396653000731,None,896.4396653000731,None,896.4396653000731,None,896.4396653000731,None,r,1.3317379000363871,896.4396653000731,None,896.4396653000731,None,897.8104316000827,None,897.8104316000827,None,897.8104316000827,None,897.8104316000827,None,897.8104316000827,None,897.8104316000827,None,898.1034836000763,899.8880899000214,898.1034836000763,899.8880899000214,899.9192259000847,None,899.9192259000847,None,899.9192259000847,None,899.9192259000847,None,899.9192259000847,None,899.9192259000847,None,899.9192259000847,None,899.9192259000847,None,899.9192259000847,None,76,55,66,57,76,56,None,None,None,None,None,None,None,None,None,None,None,None,78,902.4559107000241,None,78,902.4559107000241,None,902.4559107000241,None,902.4559107000241,None,902.4559107000241,None,902.4559107000241,None,902.4559107000241,None,902.4559107000241,None,0.00936703011393547,None,902.4559107000241,None,0.6,0,None,None,None,None,None,None,None,None,None,None,None,None,,None,None,None,None,None,None,None,None,7.9921875,1.264283400028944,905.9990258000325,None,905.9990258000325,None,905.9990258000325,None,905.9990258000325,None,None,None,907.2863807000685,None,,,,,,,,0.05078125,-0.2799479166666667,1,0,0,3.4972319999942556,tijiao,,265,m,29,2023_Mar_26_1537,RL,2021.2.3,59.871312610516824,
0,0.3,0.225,0,71,71,71,,,,,,,,,,,,,,,None,None,None,None,None,908.9815230000531,None,908.9815230000531,None,908.9815230000531,None,908.9815230000531,None,r,0.41991469997446984,908.9815230000531,None,908.9815230000531,None,909.4491001000861,None,909.4491001000861,None,909.4491001000861,None,909.4491001000861,None,909.4491001000861,None,909.4491001000861,None,909.7451755000511,None,909.7451755000511,None,910.8096165000461,None,910.8096165000461,None,910.8096165000461,None,910.8096165000461,None,910.8096165000461,None,910.8096165000461,None,910.8096165000461,None,910.8096165000461,None,910.8096165000461,None,68,54,64,68,68,57,None,None,None,None,None,None,None,None,None,None,None,None,,None,None,,None,None,None,None,None,None,None,None,None,None,None,None,None,None,None,None,None,None,-0.6,1,913.3568482000846,None,913.3568482000846,None,913.3568482000846,None,913.3568482000846,None,913.3568482000846,None,913.3568482000846,None,70,913.3568482000846,None,913.3568482000846,None,0.015295939985662699,None,913.3568482000846,None,7.106770833333334,3.0163099999772385,917.4731080000056,None,917.4731080000056,None,917.4731080000056,None,917.4731080000056,None,None,None,920.5017140000127,None,0.08984375,-0.3046875,1,0,0,4.085069000022486,tijiao_random_2,,,,,,,,,265,m,29,2023_Mar_26_1537,RL,2021.2.3,59.871312610516824,
1,-0.3,-0.225,0,72,72,72,,,,,,,,,,,,,,,None,None,None,None,None,922.207214300055,None,922.207214300055,None,922.207214300055,None,922.207214300055,None,r,0.654300499940291,922.207214300055,None,922.207214300055,None,922.9105290001025,None,922.9105290001025,None,922.9105290001025,None,922.9105290001025,None,922.9105290001025,None,922.9105290001025,None,923.2043193000136,924.68857940007,923.2043193000136,924.68857940007,924.7205482000718,None,924.7205482000718,None,924.7205482000718,None,924.7205482000718,None,924.7205482000718,None,924.7205482000718,None,924.7205482000718,None,924.7205482000718,None,924.7205482000718,None,62,59,53,65,62,41,None,None,None,None,None,None,None,None,None,None,None,None,,None,None,,None,None,None,None,None,None,None,None,None,None,None,None,None,None,None,None,None,None,0.6,1,927.264925000025,None,927.264925000025,None,927.264925000025,None,927.264925000025,None,927.264925000025,None,927.264925000025,None,50,927.264925000025,None,927.264925000025,None,0.01649914006702602,None,927.264925000025,None,8.005208333333334,2.511539199971594,932.5186059999978,None,932.5186059999978,None,932.5186059999978,None,932.5186059999978,None,None,None,935.0450713000027,None,0.16666666666666666,-0.2721354166666667,1,0,0,5.220613099983893,tijiao_random_2,,,,,,,,,265,m,29,2023_Mar_26_1537,RL,2021.2.3,59.871312610516824,
0,0.3,0.225,0,73,73,73,,,,,,,,,,,,,,,None,None,None,None,None,936.5679879001109,None,936.5679879001109,None,936.5679879001109,None,936.5679879001109,None,j,0.81378590001259,936.5679879001109,None,936.5679879001109,None,937.4180947000859,None,937.4180947000859,None,937.4180947000859,None,937.4180947000859,None,937.4180947000859,None,937.4180947000859,None,937.7144696000032,None,937.7144696000032,None,938.7449639000697,None,938.7449639000697,None,938.7449639000697,None,938.7449639000697,None,938.7449639000697,None,938.7449639000697,None,938.7449639000697,None,938.7449639000697,None,938.7449639000697,None,61,48,51,68,68,50,941.2714117000578,None,6.0,3.35185580002144,941.2714117000578,None,941.2714117000578,None,941.2714117000578,None,941.2714117000578,None,,None,None,,None,None,None,None,None,None,None,None,None,None,None,None,None,None,None,None,None,None,-0.6,2,None,None,None,None,None,None,None,None,None,None,None,None,,None,None,None,None,None,None,None,None,None,None,None,None,None,None,None,None,None,None,None,None,944.6819063000148,None,,,,,,,,,,,,,,,,265,m,29,2023_Mar_26_1537,RL,2021.2.3,59.871312610516824,
