bandit0,black_x_pos_random,black_y_pos_random,trials.thisRepN,trials.thisTrialN,trials.thisN,trials.thisIndex,instru_img1.started,instru_resp.started,instru_resp.keys,instru_resp.rt,instru_img2.started,instru_resp2.started,instru_resp2.keys,instru_resp2.rt,fixbefore_2.started,rest_response.keys,red.started,green.started,yellow.started,blue.started,choose_bandit.started,Fixation.started,choose_bandit.keys,choose_bandit.rt,black.started,red_2.started,green_2.started,yellow_2.started,blue_2.started,fixation_2.started,docs.started,wait_playerB.started,docs.stopped,wait_playerB.stopped,black.stopped,red_2.stopped,green_2.stopped,yellow_2.stopped,blue_2.stopped,fixation_2.stopped,black_com.started,reward_sub.started,palyerb.started,reward__sub.started,compare.started,red_compare.started,green_com.started,yellow_com.started,blue_com.started,rewardyellow,rewardred,rewardblue,rewardgreen,subchoose,playerb,slider.response,slider.rt,expectself.started,expect_self_black.started,expect_self.started,expect_self_red.started,expect_self_green.started,expect_self_yellow.started,expect_self_blue.started,tijiao.started,tijiao_click.started,check.started,expectself.text,value_expect_self,tijiao_click.x,tijiao_click.y,tijiao_click.leftButton,tijiao_click.midButton,tijiao_click.rightButton,tijiao_click.time,tijiao_click.clicked_name,random_whicharm,whether_ask,expect_random_3.text,tijiao_random.x,tijiao_random.y,tijiao_random.leftButton,tijiao_random.midButton,tijiao_random.rightButton,tijiao_random.time,tijiao_random.clicked_name,slider_2.started,image_7.started,confi.started,notconfi.started,slider_2.response,slider_2.rt,intertrialfix.started,intertrialfix.stopped,jiantou_random.started,expect_red.started,expect_green.started,expect_yellow.started,expect_blue.started,expect_random_2.started,expect_random_3.started,tijiao_random_2.started,tijiao_random.started,check_2.started,image_3.started,slider.started,text.started,image_4.started,image_5.started,bigx.started,bigx.stopped,rest_image.started,rest_response.started,rest_response.rt,participant,Gender,Age,date,expName,psychopyVersion,frameRate,
,,,,,,,22.517686099978164,22.517686099978164,space,4.218328499933705,,,,,,,,,,,,,,,,,,,,,,,,,,,,,,,,,,,,,,,,,,,,,,,,,,,,,,,,,,,,,,,,,,,,,,,,,,,,,,,,,,,,,,,,,,,,,,,,,,,,,,,,,266,m,22,2023-03-26_15h37.23.649,RL,2022.2.4,59.92336998299895,
,,,,,,,,,,,26.780080699943937,26.780080699943937,s,5.505503699998371,,,,,,,,,,,,,,,,,,,,,,,,,,,,,,,,,,,,,,,,,,,,,,,,,,,,,,,,,,,,,,,,,,,,,,,,,,,,,,,,,,,,,,,,,,,,,,,,,,,,,266,m,22,2023-03-26_15h37.23.649,RL,2022.2.4,59.92336998299895,
1,-0.3,-0.225,0,0,0,0,,,,,,,,,32.30256349989213,None,33.330707799992524,33.330707799992524,33.330707799992524,33.330707799992524,33.330707799992524,33.330707799992524,j,0.45850199996493757,33.83693069999572,33.83693069999572,33.83693069999572,33.83693069999572,33.83693069999572,33.83693069999572,34.114478099974804,34.114478099974804,35.560176500002854,35.560176500002854,35.57775199995376,35.57775199995376,35.57775199995376,35.57775199995376,35.57775199995376,35.57775199995376,35.57775199995376,35.57775199995376,35.57775199995376,35.57775199995376,35.57775199995376,35.57775199995376,35.57775199995376,35.57775199995376,35.57775199995376,62,24,66,47,47,42,None,None,38.11080259992741,38.11080259992741,38.11080259992741,38.11080259992741,38.11080259992741,38.11080259992741,38.11080259992741,38.11080259992741,0.005896599963307381,38.11080259992741,50,50,[0.03888888888888889],[-0.30185185185185187],[1],[0],[0],[5.145905000041239],['tijiao'],0.2,0,,[],[],[],[],[],[],[],43.371829899959266,43.371829899959266,43.371829899959266,43.371829899959266,3.083333333333333,1.9821059999521822,45.41452109999955,47.36103829997592,,,,,,,,,,,,,,,,,,,,,266,m,22,2023-03-26_15h37.23.649,RL,2022.2.4,59.92336998299895,
0,0.3,0.225,0,1,1,1,,,,,,,,,,None,47.36103829997592,47.36103829997592,47.36103829997592,47.36103829997592,47.36103829997592,47.36103829997592,j,0.5693323999876156,47.96255579998251,47.96255579998251,47.96255579998251,47.96255579998251,47.96255579998251,47.96255579998251,48.25916159991175,48.25916159991175,49.18966269993689,49.18966269993689,49.18966269993689,49.18966269993689,49.18966269993689,49.18966269993689,49.18966269993689,49.18966269993689,49.18966269993689,49.18966269993689,49.18966269993689,49.18966269993689,49.18966269993689,49.18966269993689,49.18966269993689,49.18966269993689,49.18966269993689,69,19,60,51,51,39,None,None,,,,,,,,,,,,,[],[],[],[],[],[],[],0.6,1,50,[0.07592592592592592],[-0.30277777777777776],[1],[0],[0],[3.405800300068222],['tijiao_random_2'],55.1270645998884,55.1270645998884,55.1270645998884,55.1270645998884,3.8425925925925926,1.2069306999910623,56.35220629989635,57.998862299951725,51.71189359994605,51.71189359994605,51.71189359994605,51.71189359994605,51.71189359994605,51.71189359994605,51.71189359994605,51.71189359994605,0.0069608999183401465,51.71189359994605,,,,,,,,,,,266,m,22,2023-03-26_15h37.23.649,RL,2022.2.4,59.92336998299895,
1,-0.3,-0.225,0,2,2,2,,,,,,,,,,None,57.998862299951725,57.998862299951725,57.998862299951725,57.998862299951725,57.998862299951725,57.998862299951725,j,0.6903722999850288,58.713718299986795,58.713718299986795,58.713718299986795,58.713718299986795,58.713718299986795,58.713718299986795,59.01307169999927,59.01307169999927,60.72516969998833,60.72516969998833,60.72516969998833,60.72516969998833,60.72516969998833,60.72516969998833,60.72516969998833,60.72516969998833,60.72516969998833,60.72516969998833,60.72516969998833,60.72516969998833,60.72516969998833,60.72516969998833,60.72516969998833,60.72516969998833,60.72516969998833,65,26,61,52,52,54,None,None,63.23486599989701,63.23486599989701,63.23486599989701,63.23486599989701,63.23486599989701,63.23486599989701,63.23486599989701,63.23486599989701,0.006007599993608892,63.23486599989701,53,53,"[0.08425925925925926, 0.10833333333333334]","[-0.36666666666666664, -0.2962962962962963]","[1, 1]","[0, 0]","[0, 0]","[4.461665999959223, 4.844551799935289]",['tijiao'],0.2,0,,[],[],[],[],[],[],[],68.1018193999771,68.1018193999771,68.1018193999771,68.1018193999771,5.231481481481482,1.2792001999914646,69.40027199999895,71.39554099994712,,,,,,,,,,,,,,,,,,,,,266,m,22,2023-03-26_15h37.23.649,RL,2022.2.4,59.92336998299895,
0,0.3,0.225,0,3,3,3,,,,,,,,,,None,71.39554099994712,71.39554099994712,71.39554099994712,71.39554099994712,71.39554099994712,71.39554099994712,j,0.4648434000555426,71.87997779995203,71.87997779995203,71.87997779995203,71.87997779995203,71.87997779995203,71.87997779995203,72.17717429995537,72.17717429995537,73.44028019998223,73.44028019998223,73.44028019998223,73.44028019998223,73.44028019998223,73.44028019998223,73.44028019998223,73.44028019998223,73.44028019998223,73.44028019998223,73.44028019998223,73.44028019998223,73.44028019998223,73.44028019998223,73.44028019998223,73.44028019998223,73.44028019998223,62,15,63,54,54,44,6.0,2.376327099977061,,,,,,,,,,,,,[],[],[],[],[],[],[],0.2,2,,[],[],[],[],[],[],[],,,,,None,None,78.35720339999534,80.13831079995725,,,,,,,,,,,75.94980819988996,75.94980819988996,75.94980819988996,75.94980819988996,75.94980819988996,,,,,,266,m,22,2023-03-26_15h37.23.649,RL,2022.2.4,59.92336998299895,
1,-0.3,-0.225,0,4,4,4,,,,,,,,,,None,80.13831079995725,80.13831079995725,80.13831079995725,80.13831079995725,80.13831079995725,80.13831079995725,j,0.7178081000456586,80.88665030000266,80.88665030000266,80.88665030000266,80.88665030000266,80.88665030000266,80.88665030000266,81.18584799999371,81.18584799999371,82.13290109997615,82.13290109997615,82.13290109997615,82.13290109997615,82.13290109997615,82.13290109997615,82.13290109997615,82.13290109997615,82.13290109997615,82.13290109997615,82.13290109997615,82.13290109997615,82.13290109997615,82.13290109997615,82.13290109997615,82.13290109997615,82.13290109997615,59,15,55,52,52,44,None,None,,,,,,,,,,,,,[],[],[],[],[],[],[],0.2,1,52,[0.10277777777777777],[-0.2796296296296296],[1],[0],[0],[3.0741582000628114],['tijiao_random_2'],87.73805859999266,87.73805859999266,87.73805859999266,87.73805859999266,5.75,2.3209716998972,90.07729099993594,92.00590219988953,84.65063539997209,84.65063539997209,84.65063539997209,84.65063539997209,84.65063539997209,84.65063539997209,84.65063539997209,84.65063539997209,0.006388499983586371,84.65063539997209,,,,,,,,,,,266,m,22,2023-03-26_15h37.23.649,RL,2022.2.4,59.92336998299895,
0,0.3,0.225,0,5,5,5,,,,,,,,,,None,92.00590219988953,92.00590219988953,92.00590219988953,92.00590219988953,92.00590219988953,92.00590219988953,j,0.4471269999630749,92.47267649997957,92.47267649997957,92.47267649997957,92.47267649997957,92.47267649997957,92.47267649997957,92.77096979995258,92.77096979995258,94.58236439991742,94.58236439991742,94.58236439991742,94.58236439991742,94.58236439991742,94.58236439991742,94.58236439991742,94.58236439991742,94.58236439991742,94.58236439991742,94.58236439991742,94.58236439991742,94.58236439991742,94.58236439991742,94.58236439991742,94.58236439991742,94.58236439991742,56,18,56,52,52,54,None,None,,,,,,,,,,,,,[],[],[],[],[],[],[],0.2,1,52,[0.07314814814814814],[-0.2972222222222222],[1],[0],[0],[2.3412172000389546],['tijiao_random_2'],99.45784679998178,99.45784679998178,99.45784679998178,99.45784679998178,6.87037037037037,0.6411549999611452,100.11655259993859,101.96228599990718,97.10273429995868,97.10273429995868,97.10273429995868,97.10273429995868,97.10273429995868,97.10273429995868,97.10273429995868,97.10273429995868,0.006592499907128513,97.10273429995868,,,,,,,,,,,266,m,22,2023-03-26_15h37.23.649,RL,2022.2.4,59.92336998299895,
1,-0.3,-0.225,0,6,6,6,,,,,,,,,,None,101.96228599990718,101.96228599990718,101.96228599990718,101.96228599990718,101.96228599990718,101.96228599990718,j,0.49984970001969486,102.49431019998156,102.49431019998156,102.49431019998156,102.49431019998156,102.49431019998156,102.49431019998156,102.79369939991739,102.79369939991739,104.13962139992509,104.13962139992509,104.13962139992509,104.13962139992509,104.13962139992509,104.13962139992509,104.13962139992509,104.13962139992509,104.13962139992509,104.13962139992509,104.13962139992509,104.13962139992509,104.13962139992509,104.13962139992509,104.13962139992509,104.13962139992509,104.13962139992509,54,14,49,57,57,69,1.0,1.9939023000188172,,,,,,,,,,,,,[],[],[],[],[],[],[],0.6,3,,[],[],[],[],[],[],[],,,,,None,None,108.66852209996432,110.33941199991386,,,,,,,,,,,106.64896429993678,106.64896429993678,106.64896429993678,106.64896429993678,106.64896429993678,,,,,,266,m,22,2023-03-26_15h37.23.649,RL,2022.2.4,59.92336998299895,
0,0.3,0.225,0,7,7,7,,,,,,,,,,None,110.33941199991386,110.33941199991386,110.33941199991386,110.33941199991386,110.33941199991386,110.33941199991386,r,0.7292705000145361,111.09476239990909,111.09476239990909,111.09476239990909,111.09476239990909,111.09476239990909,111.09476239990909,111.38686400000006,111.38686400000006,112.45029670000076,112.45029670000076,112.46709509997163,112.46709509997163,112.46709509997163,112.46709509997163,112.46709509997163,112.46709509997163,112.46709509997163,112.46709509997163,112.46709509997163,112.46709509997163,112.46709509997163,112.46709509997163,112.46709509997163,112.46709509997163,112.46709509997163,47,12,54,55,47,70,1.0,1.6279636999825016,,,,,,,,,,,,,[],[],[],[],[],[],[],0.2,2,,[],[],[],[],[],[],[],,,,,None,None,116.63019359996542,118.28439749998506,,,,,,,,,,,114.97587289998773,114.97587289998773,114.97587289998773,114.97587289998773,114.97587289998773,,,,,,266,m,22,2023-03-26_15h37.23.649,RL,2022.2.4,59.92336998299895,
1,-0.3,-0.225,0,8,8,8,,,,,,,,,,None,118.28439749998506,118.28439749998506,118.28439749998506,118.28439749998506,118.28439749998506,118.28439749998506,r,0.5626653000945225,118.86800559994299,118.86800559994299,118.86800559994299,118.86800559994299,118.86800559994299,118.86800559994299,119.16565310000442,119.16565310000442,120.01306159992237,120.01306159992237,120.01306159992237,120.01306159992237,120.01306159992237,120.01306159992237,120.01306159992237,120.01306159992237,120.01306159992237,120.01306159992237,120.01306159992237,120.01306159992237,120.01306159992237,120.01306159992237,120.01306159992237,120.01306159992237,120.01306159992237,51,24,62,63,51,48,None,None,122.5251613999717,122.5251613999717,122.5251613999717,122.5251613999717,122.5251613999717,122.5251613999717,122.5251613999717,122.5251613999717,0.007364200078882277,122.5251613999717,49,49,"[0.019444444444444445, 0.02962962962962963]","[-0.35648148148148145, -0.3175925925925926]","[1, 1]","[0, 0]","[0, 0]","[4.609949600067921, 5.656229100073688]",['tijiao'],0.6,0,,[],[],[],[],[],[],[],128.19947339990176,128.19947339990176,128.19947339990176,128.19947339990176,2.944444444444444,1.8501948000630364,130.0679129998898,131.94721239991486,,,,,,,,,,,,,,,,,,,,,266,m,22,2023-03-26_15h37.23.649,RL,2022.2.4,59.92336998299895,
0,0.3,0.225,0,9,9,9,,,,,,,,,,None,131.94721239991486,131.94721239991486,131.94721239991486,131.94721239991486,131.94721239991486,131.94721239991486,r,0.41979800001718104,132.39603309996892,132.39603309996892,132.39603309996892,132.39603309996892,132.39603309996892,132.39603309996892,132.69540299999062,132.69540299999062,134.2244589999318,134.2244589999318,134.2244589999318,134.2244589999318,134.2244589999318,134.2244589999318,134.2244589999318,134.2244589999318,134.2244589999318,134.2244589999318,134.2244589999318,134.2244589999318,134.2244589999318,134.2244589999318,134.2244589999318,134.2244589999318,134.2244589999318,54,15,54,57,54,36,None,None,136.7364465999417,136.7364465999417,136.7364465999417,136.7364465999417,136.7364465999417,136.7364465999417,136.7364465999417,136.7364465999417,0.007489600102417171,136.7364465999417,52,52,[0.016666666666666666],[-0.2777777777777778],[1],[0],[0],[3.3794350000098348],['tijiao'],-0.2,0,,[],[],[],[],[],[],[],140.13570049998816,140.13570049998816,140.13570049998816,140.13570049998816,4.916666666666666,4.290835799998604,144.4451230999548,146.00869849999435,,,,,,,,,,,,,,,,,,,,,266,m,22,2023-03-26_15h37.23.649,RL,2022.2.4,59.92336998299895,
1,-0.3,-0.225,0,10,10,10,,,,,,,,,,None,146.00869849999435,146.00869849999435,146.00869849999435,146.00869849999435,146.00869849999435,146.00869849999435,r,0.45857450005132705,146.49388309998903,146.49388309998903,146.49388309998903,146.49388309998903,146.49388309998903,146.49388309998903,146.7900955999503,146.7900955999503,148.08658649993595,148.08658649993595,148.08658649993595,148.08658649993595,148.08658649993595,148.08658649993595,148.08658649993595,148.08658649993595,148.08658649993595,148.08658649993595,148.08658649993595,148.08658649993595,148.08658649993595,148.08658649993595,148.08658649993595,148.08658649993595,148.08658649993595,61,21,63,64,61,60,None,None,,,,,,,,,,,,,[],[],[],[],[],[],[],-0.6,1,61,[-0.05740740740740741],[-0.2916666666666667],[1],[0],[0],[6.630144100054167],['tijiao_random_2'],157.24831719999202,157.24831719999202,157.24831719999202,157.24831719999202,10.87962962962963,1.0404305999400094,158.30741919996217,159.90408459992614,150.6053685999941,150.6053685999941,150.6053685999941,150.6053685999941,150.6053685999941,150.6053685999941,150.6053685999941,150.6053685999941,0.006963899941183627,150.6053685999941,,,,,,,,,,,266,m,22,2023-03-26_15h37.23.649,RL,2022.2.4,59.92336998299895,
0,0.3,0.225,0,11,11,11,,,,,,,,,,None,159.90408459992614,159.90408459992614,159.90408459992614,159.90408459992614,159.90408459992614,159.90408459992614,i,1.228174400050193,161.15842110000085,161.15842110000085,161.15842110000085,161.15842110000085,161.15842110000085,161.15842110000085,161.4498406999046,161.4498406999046,162.6796354999533,162.6796354999533,162.69665159995202,162.69665159995202,162.69665159995202,162.69665159995202,162.69665159995202,162.69665159995202,162.69665159995202,162.69665159995202,162.69665159995202,162.69665159995202,162.69665159995202,162.69665159995202,162.69665159995202,162.69665159995202,162.69665159995202,63,20,54,58,54,47,1.0,2.15943919995334,,,,,,,,,,,,,[],[],[],[],[],[],[],-0.2,3,,[],[],[],[],[],[],[],,,,,None,None,167.39229889994022,169.24493729998358,,,,,,,,,,,165.2058658999158,165.2058658999158,165.2058658999158,165.2058658999158,165.2058658999158,,,,,,266,m,22,2023-03-26_15h37.23.649,RL,2022.2.4,59.92336998299895,
1,-0.3,-0.225,0,12,12,12,,,,,,,,,,None,169.24493729998358,169.24493729998358,169.24493729998358,169.24493729998358,169.24493729998358,169.24493729998358,r,0.7589759000111371,170.02804389991798,170.02804389991798,170.02804389991798,170.02804389991798,170.02804389991798,170.02804389991798,170.3259446999291,170.3259446999291,171.82185690000188,171.82185690000188,171.82185690000188,171.82185690000188,171.82185690000188,171.82185690000188,171.82185690000188,171.82185690000188,171.82185690000188,171.82185690000188,171.82185690000188,171.82185690000188,171.82185690000188,171.82185690000188,171.82185690000188,171.82185690000188,171.82185690000188,63,19,69,54,63,49,6.0,4.985606399946846,,,,,,,,,,,,,[],[],[],[],[],[],[],0.2,3,,[],[],[],[],[],[],[],,,,,None,None,179.34216649993323,181.0796560999006,,,,,,,,,,,174.33073149994016,174.33073149994016,174.33073149994016,174.33073149994016,174.33073149994016,,,,,,266,m,22,2023-03-26_15h37.23.649,RL,2022.2.4,59.92336998299895,
0,0.3,0.225,0,13,13,13,,,,,,,,,,None,181.0796560999006,181.0796560999006,181.0796560999006,181.0796560999006,181.0796560999006,181.0796560999006,r,0.6578424000181258,181.7630865999963,181.7630865999963,181.7630865999963,181.7630865999963,181.7630865999963,181.7630865999963,182.06024629995227,182.06024629995227,183.4568930999376,183.4568930999376,183.4568930999376,183.4568930999376,183.4568930999376,183.4568930999376,183.4568930999376,183.4568930999376,183.4568930999376,183.4568930999376,183.4568930999376,183.4568930999376,183.4568930999376,183.4568930999376,183.4568930999376,183.4568930999376,183.4568930999376,58,16,58,48,58,48,None,None,185.9666454999242,185.9666454999242,185.9666454999242,185.9666454999242,185.9666454999242,185.9666454999242,185.9666454999242,185.9666454999242,0.006197200040332973,185.9666454999242,58,58,[0.08333333333333333],[-0.27870370370370373],[1],[0],[0],[6.789059799979441],['tijiao'],-0.2,0,,[],[],[],[],[],[],[],192.77795099990908,192.77795099990908,192.77795099990908,192.77795099990908,6.055555555555555,1.778203200083226,194.57506719999947,196.27128729992546,,,,,,,,,,,,,,,,,,,,,266,m,22,2023-03-26_15h37.23.649,RL,2022.2.4,59.92336998299895,
1,-0.3,-0.225,0,14,14,14,,,,,,,,,,None,196.27128729992546,196.27128729992546,196.27128729992546,196.27128729992546,196.27128729992546,196.27128729992546,r,0.47590379999019206,196.77271059993654,196.77271059993654,196.77271059993654,196.77271059993654,196.77271059993654,196.77271059993654,197.06969379994553,197.06969379994553,198.86463759990875,198.86463759990875,198.88119989994448,198.88119989994448,198.88119989994448,198.88119989994448,198.88119989994448,198.88119989994448,198.88119989994448,198.88119989994448,198.88119989994448,198.88119989994448,198.88119989994448,198.88119989994448,198.88119989994448,198.88119989994448,198.88119989994448,61,15,60,49,61,58,4.0,2.2763208000687882,,,,,,,,,,,,,[],[],[],[],[],[],[],0.6,3,,[],[],[],[],[],[],[],,,,,None,None,203.69275659997948,205.49641589995008,,,,,,,,,,,201.39056709990837,201.39056709990837,201.39056709990837,201.39056709990837,201.39056709990837,,,,,,266,m,22,2023-03-26_15h37.23.649,RL,2022.2.4,59.92336998299895,
0,0.3,0.225,0,15,15,15,,,,,,,,,,None,205.49641589995008,205.49641589995008,205.49641589995008,205.49641589995008,205.49641589995008,205.49641589995008,r,0.5944206999847665,206.11157969990745,206.11157969990745,206.11157969990745,206.11157969990745,206.11157969990745,206.11157969990745,206.410913300002,206.410913300002,207.82363959995564,207.82363959995564,207.82363959995564,207.82363959995564,207.82363959995564,207.82363959995564,207.82363959995564,207.82363959995564,207.82363959995564,207.82363959995564,207.82363959995564,207.82363959995564,207.82363959995564,207.82363959995564,207.82363959995564,207.82363959995564,207.82363959995564,65,19,59,55,65,50,None,None,,,,,,,,,,,,,[],[],[],[],[],[],[],0.6,1,52,[0.1648148148148148],[-0.31296296296296294],[1],[0],[0],[5.881778799928725],['tijiao_random_2'],216.2363420999609,216.2363420999609,216.2363420999609,216.2363420999609,5.2407407407407405,1.839663099963218,218.09430149989203,219.84039669996127,210.34302469994873,210.34302469994873,210.34302469994873,210.34302469994873,210.34302469994873,210.34302469994873,210.34302469994873,210.34302469994873,0.006652600015513599,210.34302469994873,,,,,,,,,,,266,m,22,2023-03-26_15h37.23.649,RL,2022.2.4,59.92336998299895,
1,-0.3,-0.225,0,16,16,16,,,,,,,,,,None,219.84039669996127,219.84039669996127,219.84039669996127,219.84039669996127,219.84039669996127,219.84039669996127,j,0.5700150999473408,220.44067209993955,220.44067209993955,220.44067209993955,220.44067209993955,220.44067209993955,220.44067209993955,220.73798209999222,220.73798209999222,221.68575959990267,221.68575959990267,221.68575959990267,221.68575959990267,221.68575959990267,221.68575959990267,221.68575959990267,221.68575959990267,221.68575959990267,221.68575959990267,221.68575959990267,221.68575959990267,221.68575959990267,221.68575959990267,221.68575959990267,221.68575959990267,221.68575959990267,65,25,48,47,47,64,1.0,1.7274261000566185,,,,,,,,,,,,,[],[],[],[],[],[],[],0.6,3,,[],[],[],[],[],[],[],,,,,None,None,225.9483069999842,227.71912179992069,,,,,,,,,,,224.19461839995347,224.19461839995347,224.19461839995347,224.19461839995347,224.19461839995347,,,,,,266,m,22,2023-03-26_15h37.23.649,RL,2022.2.4,59.92336998299895,
0,0.3,0.225,0,17,17,17,,,,,,,,,,None,227.71912179992069,227.71912179992069,227.71912179992069,227.71912179992069,227.71912179992069,227.71912179992069,r,0.7029002000344917,228.45152459992096,228.45152459992096,228.45152459992096,228.45152459992096,228.45152459992096,228.45152459992096,228.74954289989546,228.74954289989546,230.5279747999739,230.5279747999739,230.5279747999739,230.5279747999739,230.5279747999739,230.5279747999739,230.5279747999739,230.5279747999739,230.5279747999739,230.5279747999739,230.5279747999739,230.5279747999739,230.5279747999739,230.5279747999739,230.5279747999739,230.5279747999739,230.5279747999739,62,17,62,47,62,58,6.0,1.9601248999824747,,,,,,,,,,,,,[],[],[],[],[],[],[],-0.6,2,,[],[],[],[],[],[],[],,,,,None,None,235.0258329999633,236.96051309991162,,,,,,,,,,,233.0372839999618,233.0372839999618,233.0372839999618,233.0372839999618,233.0372839999618,,,,,,266,m,22,2023-03-26_15h37.23.649,RL,2022.2.4,59.92336998299895,
1,-0.3,-0.225,0,18,18,18,,,,,,,,,,None,236.96051309991162,236.96051309991162,236.96051309991162,236.96051309991162,236.96051309991162,236.96051309991162,r,0.6930811000056565,237.6754955999786,237.6754955999786,237.6754955999786,237.6754955999786,237.6754955999786,237.6754955999786,237.9744390998967,237.9744390998967,239.5035475998884,239.5035475998884,239.5035475998884,239.5035475998884,239.5035475998884,239.5035475998884,239.5035475998884,239.5035475998884,239.5035475998884,239.5035475998884,239.5035475998884,239.5035475998884,239.5035475998884,239.5035475998884,239.5035475998884,239.5035475998884,239.5035475998884,61,28,50,51,61,73,None,None,242.01377709989902,242.01377709989902,242.01377709989902,242.01377709989902,242.01377709989902,242.01377709989902,242.01377709989902,242.01377709989902,0.00612820009700954,242.01377709989902,62,62,[0.002777777777777778],[-0.27037037037037037],[1],[0],[0],[4.11269999993965],['tijiao'],0.6,0,,[],[],[],[],[],[],[],246.15011579997372,246.15011579997372,246.15011579997372,246.15011579997372,4.768518518518519,1.3454398999456316,247.51395289995708,249.42603390000295,,,,,,,,,,,,,,,,,,,,,266,m,22,2023-03-26_15h37.23.649,RL,2022.2.4,59.92336998299895,
0,0.3,0.225,0,19,19,19,,,,,,,,,,None,249.42603390000295,249.42603390000295,249.42603390000295,249.42603390000295,249.42603390000295,249.42603390000295,r,0.5891240000491962,250.04300859989598,250.04300859989598,250.04300859989598,250.04300859989598,250.04300859989598,250.04300859989598,250.34062079992145,250.34062079992145,251.33805839996785,251.33805839996785,251.35485159989912,251.35485159989912,251.35485159989912,251.35485159989912,251.35485159989912,251.35485159989912,251.35485159989912,251.35485159989912,251.35485159989912,251.35485159989912,251.35485159989912,251.35485159989912,251.35485159989912,251.35485159989912,251.35485159989912,64,27,46,45,64,68,1.0,1.744685599929653,,,,,,,,,,,,,[],[],[],[],[],[],[],0.6,3,,[],[],[],[],[],[],[],,,,,None,None,255.63623819989152,257.52109969989397,,,,,,,,,,,253.86399649991654,253.86399649991654,253.86399649991654,253.86399649991654,253.86399649991654,,,,,,266,m,22,2023-03-26_15h37.23.649,RL,2022.2.4,59.92336998299895,
1,-0.3,-0.225,0,20,20,20,,,,,,,,,,None,257.52109969989397,257.52109969989397,257.52109969989397,257.52109969989397,257.52109969989397,257.52109969989397,r,0.7351539999945089,258.2869411999127,258.2869411999127,258.2869411999127,258.2869411999127,258.2869411999127,258.2869411999127,258.58511739992537,258.58511739992537,260.5131820999086,260.5131820999086,260.52977619995363,260.52977619995363,260.52977619995363,260.52977619995363,260.52977619995363,260.52977619995363,260.52977619995363,260.52977619995363,260.52977619995363,260.52977619995363,260.52977619995363,260.52977619995363,260.52977619995363,260.52977619995363,260.52977619995363,67,18,51,41,67,72,1.0,1.5444337000371888,,,,,,,,,,,,,[],[],[],[],[],[],[],-0.2,3,,[],[],[],[],[],[],[],,,,,None,None,264.61146329995245,266.47987869998906,,,,,,,,,,,263.0389455999248,263.0389455999248,263.0389455999248,263.0389455999248,263.0389455999248,,,,,,266,m,22,2023-03-26_15h37.23.649,RL,2022.2.4,59.92336998299895,
0,0.3,0.225,0,21,21,21,,,,,,,,,,None,266.47987869998906,266.47987869998906,266.47987869998906,266.47987869998906,266.47987869998906,266.47987869998906,f,0.4465834000147879,266.95273229992017,266.95273229992017,266.95273229992017,266.95273229992017,266.95273229992017,266.95273229992017,267.2448434999678,267.2448434999678,268.6741502999794,268.6741502999794,268.6741502999794,268.6741502999794,268.6741502999794,268.6741502999794,268.6741502999794,268.6741502999794,268.6741502999794,268.6741502999794,268.6741502999794,268.6741502999794,268.6741502999794,268.6741502999794,268.6741502999794,268.6741502999794,268.6741502999794,71,37,57,50,37,49,1.0,1.128732300014235,,,,,,,,,,,,,[],[],[],[],[],[],[],-0.6,3,,[],[],[],[],[],[],[],,,,,None,None,272.3352958000032,273.8927208998939,,,,,,,,,,,271.1833870999981,271.1833870999981,271.1833870999981,271.1833870999981,271.1833870999981,,,,,,266,m,22,2023-03-26_15h37.23.649,RL,2022.2.4,59.92336998299895,
1,-0.3,-0.225,0,22,22,22,,,,,,,,,,None,273.8927208998939,273.8927208998939,273.8927208998939,273.8927208998939,273.8927208998939,273.8927208998939,f,0.6405176999978721,274.55863529990893,274.55863529990893,274.55863529990893,274.55863529990893,274.55863529990893,274.55863529990893,274.8573475999292,274.8573475999292,276.1535951999249,276.1535951999249,276.1535951999249,276.1535951999249,276.1535951999249,276.1535951999249,276.1535951999249,276.1535951999249,276.1535951999249,276.1535951999249,276.1535951999249,276.1535951999249,276.1535951999249,276.1535951999249,276.1535951999249,276.1535951999249,276.1535951999249,71,24,52,48,24,48,1.0,1.5947901000035927,,,,,,,,,,,,,[],[],[],[],[],[],[],-0.2,2,,[],[],[],[],[],[],[],,,,,None,None,280.2857636999106,281.93751379998866,,,,,,,,,,,278.6628829999827,278.6628829999827,278.6628829999827,278.6628829999827,278.6628829999827,,,,,,266,m,22,2023-03-26_15h37.23.649,RL,2022.2.4,59.92336998299895,
0,0.3,0.225,0,23,23,23,,,,,,,,,,None,281.93751379998866,281.93751379998866,281.93751379998866,281.93751379998866,281.93751379998866,281.93751379998866,j,0.4971116000087932,282.45588309993036,282.45588309993036,282.45588309993036,282.45588309993036,282.45588309993036,282.45588309993036,282.7523794999579,282.7523794999579,284.46442909992766,284.46442909992766,284.46442909992766,284.46442909992766,284.46442909992766,284.46442909992766,284.46442909992766,284.46442909992766,284.46442909992766,284.46442909992766,284.46442909992766,284.46442909992766,284.46442909992766,284.46442909992766,284.46442909992766,284.46442909992766,284.46442909992766,81,33,59,45,45,32,7.0,1.5780736999586225,,,,,,,,,,,,,[],[],[],[],[],[],[],-0.2,2,,[],[],[],[],[],[],[],,,,,None,None,288.57777579990216,290.3813304998912,,,,,,,,,,,286.9734701999696,286.9734701999696,286.9734701999696,286.9734701999696,286.9734701999696,,,,,,266,m,22,2023-03-26_15h37.23.649,RL,2022.2.4,59.92336998299895,
1,-0.3,-0.225,0,24,24,24,,,,,,,,,,None,290.3813304998912,290.3813304998912,290.3813304998912,290.3813304998912,290.3813304998912,290.3813304998912,i,0.4097073000157252,290.81519549991935,290.81519549991935,290.81519549991935,290.81519549991935,290.81519549991935,290.81519549991935,291.11307799990755,291.11307799990755,292.80825229990296,292.80825229990296,292.80825229990296,292.80825229990296,292.80825229990296,292.80825229990296,292.80825229990296,292.80825229990296,292.80825229990296,292.80825229990296,292.80825229990296,292.80825229990296,292.80825229990296,292.80825229990296,292.80825229990296,292.80825229990296,292.80825229990296,70,27,56,43,56,63,2.0,2.027117699966766,,,,,,,,,,,,,[],[],[],[],[],[],[],-0.6,2,,[],[],[],[],[],[],[],,,,,None,None,297.3685692999279,299.29043489997275,,,,,,,,,,,295.31692819995806,295.31692819995806,295.31692819995806,295.31692819995806,295.31692819995806,,,,,,266,m,22,2023-03-26_15h37.23.649,RL,2022.2.4,59.92336998299895,
0,0.3,0.225,0,25,25,25,,,,,,,,,,None,299.29043489997275,299.29043489997275,299.29043489997275,299.29043489997275,299.29043489997275,299.29043489997275,i,0.47581799991894513,299.7892838999396,299.7892838999396,299.7892838999396,299.7892838999396,299.7892838999396,299.7892838999396,300.0885422999272,300.0885422999272,302.066436199937,302.066436199937,302.066436199937,302.066436199937,302.066436199937,302.066436199937,302.066436199937,302.066436199937,302.066436199937,302.066436199937,302.066436199937,302.066436199937,302.066436199937,302.066436199937,302.066436199937,302.066436199937,302.066436199937,76,36,58,44,58,64,None,None,304.57794219988864,304.57794219988864,304.57794219988864,304.57794219988864,304.57794219988864,304.57794219988864,304.57794219988864,304.57794219988864,0.007163300062529743,304.57794219988864,57,57,"[-0.16574074074074074, -0.13518518518518519]","[-0.21944444444444444, -0.25833333333333336]","[1, 1]","[0, 0]","[0, 0]","[4.943155099987052, 5.291610699961893]",['tijiao'],-0.2,0,,[],[],[],[],[],[],[],309.8901108999271,309.8901108999271,309.8901108999271,309.8901108999271,3.962962962962963,1.364801699994132,311.27337089995854,312.9362671999261,,,,,,,,,,,,,,,,,,,,,266,m,22,2023-03-26_15h37.23.649,RL,2022.2.4,59.92336998299895,
1,-0.3,-0.225,0,26,26,26,,,,,,,,,,None,312.9362671999261,312.9362671999261,312.9362671999261,312.9362671999261,312.9362671999261,312.9362671999261,i,0.6312238000100479,313.586680599954,313.586680599954,313.586680599954,313.586680599954,313.586680599954,313.586680599954,313.8842173999874,313.8842173999874,315.8782927999273,315.8782927999273,315.8782927999273,315.8782927999273,315.8782927999273,315.8782927999273,315.8782927999273,315.8782927999273,315.8782927999273,315.8782927999273,315.8782927999273,315.8782927999273,315.8782927999273,315.8782927999273,315.8782927999273,315.8782927999273,315.8782927999273,78,35,50,44,50,41,7.0,1.4120104999747127,,,,,,,,,,,,,[],[],[],[],[],[],[],0.2,3,,[],[],[],[],[],[],[],,,,,None,None,319.8287151999539,321.61281510000117,,,,,,,,,,,318.38798739993945,318.38798739993945,318.38798739993945,318.38798739993945,318.38798739993945,,,,,,266,m,22,2023-03-26_15h37.23.649,RL,2022.2.4,59.92336998299895,
0,0.3,0.225,0,27,27,27,,,,,,,,,,None,321.61281510000117,321.61281510000117,321.61281510000117,321.61281510000117,321.61281510000117,321.61281510000117,i,0.47427960007917136,322.11176439991686,322.11176439991686,322.11176439991686,322.11176439991686,322.11176439991686,322.11176439991686,322.41095759999007,322.41095759999007,324.08940429997165,324.08940429997165,324.08940429997165,324.08940429997165,324.08940429997165,324.08940429997165,324.08940429997165,324.08940429997165,324.08940429997165,324.08940429997165,324.08940429997165,324.08940429997165,324.08940429997165,324.08940429997165,324.08940429997165,324.08940429997165,324.08940429997165,74,47,54,46,54,42,7.0,1.4449211000464857,,,,,,,,,,,,,[],[],[],[],[],[],[],-0.2,2,,[],[],[],[],[],[],[],,,,,None,None,328.06908729998395,329.82368749997113,,,,,,,,,,,326.5985678998986,326.5985678998986,326.5985678998986,326.5985678998986,326.5985678998986,,,,,,266,m,22,2023-03-26_15h37.23.649,RL,2022.2.4,59.92336998299895,
1,-0.3,-0.225,0,28,28,28,,,,,,,,,,None,329.82368749997113,329.82368749997113,329.82368749997113,329.82368749997113,329.82368749997113,329.82368749997113,i,0.5052455998957157,330.35627039999235,330.35627039999235,330.35627039999235,330.35627039999235,330.35627039999235,330.35627039999235,330.6550594998989,330.6550594998989,331.60263839992695,331.60263839992695,331.60263839992695,331.60263839992695,331.60263839992695,331.60263839992695,331.60263839992695,331.60263839992695,331.60263839992695,331.60263839992695,331.60263839992695,331.60263839992695,331.60263839992695,331.60263839992695,331.60263839992695,331.60263839992695,331.60263839992695,73,51,55,44,55,44,7.0,1.22962420003023,,,,,,,,,,,,,[],[],[],[],[],[],[],0.6,3,,[],[],[],[],[],[],[],,,,,None,None,335.36648959992453,336.8878655999433,,,,,,,,,,,334.11150159989484,334.11150159989484,334.11150159989484,334.11150159989484,334.11150159989484,,,,,,266,m,22,2023-03-26_15h37.23.649,RL,2022.2.4,59.92336998299895,
0,0.3,0.225,0,29,29,29,,,,,,,,,,None,336.8878655999433,336.8878655999433,336.8878655999433,336.8878655999433,336.8878655999433,336.8878655999433,i,0.41329179995227605,337.32089469989296,337.32089469989296,337.32089469989296,337.32089469989296,337.32089469989296,337.32089469989296,337.619669699925,337.619669699925,339.0656160999788,339.0656160999788,339.0656160999788,339.0656160999788,339.0656160999788,339.0656160999788,339.0656160999788,339.0656160999788,339.0656160999788,339.0656160999788,339.0656160999788,339.0656160999788,339.0656160999788,339.0656160999788,339.0656160999788,339.0656160999788,339.0656160999788,66,56,44,38,44,42,None,None,,,,,,,,,,,,,[],[],[],[],[],[],[],-0.2,1,24,[0.18703703703703703],[-0.26851851851851855],[1],[0],[0],[7.493229000014253],['tijiao_random_2'],349.0927589999046,349.0927589999046,349.0927589999046,349.0927589999046,3.0092592592592595,1.455127299996093,350.56602159992326,352.44537159998436,341.58644029998686,341.58644029998686,341.58644029998686,341.58644029998686,341.58644029998686,341.58644029998686,341.58644029998686,341.58644029998686,0.0067122000036761165,341.58644029998686,,,,,,,,,,,266,m,22,2023-03-26_15h37.23.649,RL,2022.2.4,59.92336998299895,
1,-0.3,-0.225,0,30,30,30,,,,,,,,,,None,352.44537159998436,352.44537159998436,352.44537159998436,352.44537159998436,352.44537159998436,352.44537159998436,f,0.8028198999818414,353.2801360999001,353.2801360999001,353.2801360999001,353.2801360999001,353.2801360999001,353.2801360999001,353.5759143999312,353.5759143999312,354.5567067998927,354.5567067998927,354.5567067998927,354.5567067998927,354.5567067998927,354.5567067998927,354.5567067998927,354.5567067998927,354.5567067998927,354.5567067998927,354.5567067998927,354.5567067998927,354.5567067998927,354.5567067998927,354.5567067998927,354.5567067998927,354.5567067998927,78,50,50,41,50,68,1.0,1.595128900022246,,,,,,,,,,,,,[],[],[],[],[],[],[],-0.2,2,,[],[],[],[],[],[],[],,,,,None,None,358.68611879996024,360.30727099999785,,,,,,,,,,,357.06553599995095,357.06553599995095,357.06553599995095,357.06553599995095,357.06553599995095,,,,,,266,m,22,2023-03-26_15h37.23.649,RL,2022.2.4,59.92336998299895,
0,0.3,0.225,0,31,31,31,,,,,,,,,,None,360.30727099999785,360.30727099999785,360.30727099999785,360.30727099999785,360.30727099999785,360.30727099999785,f,0.49744589999318123,360.823750999989,360.823750999989,360.823750999989,360.823750999989,360.823750999989,360.823750999989,361.1218323999783,361.1218323999783,362.78359209990595,362.78359209990595,362.78359209990595,362.78359209990595,362.78359209990595,362.78359209990595,362.78359209990595,362.78359209990595,362.78359209990595,362.78359209990595,362.78359209990595,362.78359209990595,362.78359209990595,362.78359209990595,362.78359209990595,362.78359209990595,362.78359209990595,74,61,63,42,61,67,None,None,,,,,,,,,,,,,[],[],[],[],[],[],[],0.2,1,70,[-0.1287037037037037],[-0.275],[1],[0],[0],[4.302686200011522],['tijiao_random_2'],369.62117349996697,369.62117349996697,369.62117349996697,369.62117349996697,5.101851851851852,2.135934800026007,371.7749538999051,373.3715772998985,365.3044159999117,365.3044159999117,365.3044159999117,365.3044159999117,365.3044159999117,365.3044159999117,365.3044159999117,365.3044159999117,0.006618899991735816,365.3044159999117,,,,,,,,,,,266,m,22,2023-03-26_15h37.23.649,RL,2022.2.4,59.92336998299895,
1,-0.3,-0.225,0,32,32,32,,,,,,,,,,None,373.3715772998985,373.3715772998985,373.3715772998985,373.3715772998985,373.3715772998985,373.3715772998985,i,0.30960909998975694,373.7056860999437,373.7056860999437,373.7056860999437,373.7056860999437,373.7056860999437,373.7056860999437,374.0031336999964,374.0031336999964,375.16679889999796,375.16679889999796,375.16679889999796,375.16679889999796,375.16679889999796,375.16679889999796,375.16679889999796,375.16679889999796,375.16679889999796,375.16679889999796,375.16679889999796,375.16679889999796,375.16679889999796,375.16679889999796,375.16679889999796,375.16679889999796,375.16679889999796,67,63,53,37,53,67,1.0,1.4119406000245363,,,,,,,,,,,,,[],[],[],[],[],[],[],-0.2,3,,[],[],[],[],[],[],[],,,,,None,None,379.11371109995525,380.8841976999538,,,,,,,,,,,377.6758673998993,377.6758673998993,377.6758673998993,377.6758673998993,377.6758673998993,,,,,,266,m,22,2023-03-26_15h37.23.649,RL,2022.2.4,59.92336998299895,
0,0.3,0.225,0,33,33,33,,,,,,,,,,None,380.8841976999538,380.8841976999538,380.8841976999538,380.8841976999538,380.8841976999538,380.8841976999538,i,0.763388599967584,381.6659092999762,381.6659092999762,381.6659092999762,381.6659092999762,381.6659092999762,381.6659092999762,381.9650344999973,381.9650344999973,383.41094029997475,383.41094029997475,383.41094029997475,383.41094029997475,383.41094029997475,383.41094029997475,383.41094029997475,383.41094029997475,383.41094029997475,383.41094029997475,383.41094029997475,383.41094029997475,383.41094029997475,383.41094029997475,383.41094029997475,383.41094029997475,383.41094029997475,61,65,62,40,62,60,None,None,,,,,,,,,,,,,[],[],[],[],[],[],[],0.6,1,50,"[-0.11018518518518519, -0.09444444444444444, -0.0962962962962963]","[-0.2351851851851852, -0.24814814814814815, -0.28888888888888886]","[1, 1, 1]","[0, 0, 0]","[0, 0, 0]","[3.505177800077945, 3.919705200009048, 4.219035200076178]",['tijiao_random_2'],390.1647470999742,390.1647470999742,390.1647470999742,390.1647470999742,4.851851851851852,2.0704382999101654,392.2526461998932,393.76587299990933,385.930380799924,385.930380799924,385.930380799924,385.930380799924,385.930380799924,385.930380799924,385.930380799924,385.930380799924,0.006286100018769503,385.930380799924,,,,,,,,,,,266,m,22,2023-03-26_15h37.23.649,RL,2022.2.4,59.92336998299895,
1,-0.3,-0.225,0,34,34,34,,,,,,,,,,None,393.76587299990933,393.76587299990933,393.76587299990933,393.76587299990933,393.76587299990933,393.76587299990933,i,0.42882469994947314,394.2172782999696,394.2172782999696,394.2172782999696,394.2172782999696,394.2172782999696,394.2172782999696,394.514258399955,394.514258399955,395.66101789998356,395.66101789998356,395.66101789998356,395.66101789998356,395.66101789998356,395.66101789998356,395.66101789998356,395.66101789998356,395.66101789998356,395.66101789998356,395.66101789998356,395.66101789998356,395.66101789998356,395.66101789998356,395.66101789998356,395.66101789998356,395.66101789998356,53,52,63,44,63,55,7.0,1.2956804999848828,,,,,,,,,,,,,[],[],[],[],[],[],[],-0.2,3,,[],[],[],[],[],[],[],,,,,None,None,399.4940427999245,401.2121886999812,,,,,,,,,,,398.1702069999883,398.1702069999883,398.1702069999883,398.1702069999883,398.1702069999883,,,,,,266,m,22,2023-03-26_15h37.23.649,RL,2022.2.4,59.92336998299895,
0,0.3,0.225,0,35,35,35,,,,,,,,,,None,401.2121886999812,401.2121886999812,401.2121886999812,401.2121886999812,401.2121886999812,401.2121886999812,i,0.4688478000462055,401.71122869988903,401.71122869988903,401.71122869988903,401.71122869988903,401.71122869988903,401.71122869988903,402.0100367999403,402.0100367999403,403.77211919997353,403.77211919997353,403.77211919997353,403.77211919997353,403.77211919997353,403.77211919997353,403.77211919997353,403.77211919997353,403.77211919997353,403.77211919997353,403.77211919997353,403.77211919997353,403.77211919997353,403.77211919997353,403.77211919997353,403.77211919997353,403.77211919997353,55,68,61,40,61,32,None,None,,,,,,,,,,,,,[],[],[],[],[],[],[],0.2,1,60,[0.1824074074074074],[-0.2638888888888889],[1],[0],[0],[2.9720070000039414],['tijiao_random_2'],409.2774339999305,409.2774339999305,409.2774339999305,409.2774339999305,8.018518518518519,1.6722745000151917,410.9680371999275,412.84678779996466,406.29285349999554,406.29285349999554,406.29285349999554,406.29285349999554,406.29285349999554,406.29285349999554,406.29285349999554,406.29285349999554,0.006661700084805489,406.29285349999554,,,,,,,,,,,266,m,22,2023-03-26_15h37.23.649,RL,2022.2.4,59.92336998299895,
1,-0.3,-0.225,0,36,36,36,,,,,,,,,,None,412.84678779996466,412.84678779996466,412.84678779996466,412.84678779996466,412.84678779996466,412.84678779996466,i,0.40112989989575,413.2805784998927,413.2805784998927,413.2805784998927,413.2805784998927,413.2805784998927,413.2805784998927,413.5788622999098,413.5788622999098,415.207306999946,415.207306999946,415.207306999946,415.207306999946,415.207306999946,415.207306999946,415.207306999946,415.207306999946,415.207306999946,415.207306999946,415.207306999946,415.207306999946,415.207306999946,415.207306999946,415.207306999946,415.207306999946,415.207306999946,62,70,66,42,66,64,None,None,,,,,,,,,,,,,[],[],[],[],[],[],[],-0.6,1,50,"[0.22037037037037038, 0.15648148148148147]","[-0.2833333333333333, -0.2833333333333333]","[1, 1]","[0, 0]","[0, 0]","[3.5698957999702543, 4.185213499935344]",['tijiao_random_2'],421.92682399996556,421.92682399996556,421.92682399996556,421.92682399996556,5.453703703703703,1.6053338999627158,423.5504665999906,425.08038149995264,417.72801869991235,417.72801869991235,417.72801869991235,417.72801869991235,417.72801869991235,417.72801869991235,417.72801869991235,417.72801869991235,0.006654800032265484,417.72801869991235,,,,,,,,,,,266,m,22,2023-03-26_15h37.23.649,RL,2022.2.4,59.92336998299895,
0,0.3,0.225,0,37,37,37,,,,,,,,,,None,425.08038149995264,425.08038149995264,425.08038149995264,425.08038149995264,425.08038149995264,425.08038149995264,i,0.42030519992113113,425.53039269999135,425.53039269999135,425.53039269999135,425.53039269999135,425.53039269999135,425.53039269999135,425.82842079992406,425.82842079992406,427.2415046999231,427.2415046999231,427.2415046999231,427.2415046999231,427.2415046999231,427.2415046999231,427.2415046999231,427.2415046999231,427.2415046999231,427.2415046999231,427.2415046999231,427.2415046999231,427.2415046999231,427.2415046999231,427.2415046999231,427.2415046999231,427.2415046999231,51,73,67,35,67,33,None,None,429.7534128999105,429.7534128999105,429.7534128999105,429.7534128999105,429.7534128999105,429.7534128999105,429.7534128999105,429.7534128999105,0.0078023000387474895,429.7534128999105,67,67,[0.07314814814814814],[-0.3111111111111111],[1],[0],[0],[4.82559120003134],['tijiao'],-0.6,0,,[],[],[],[],[],[],[],434.6001164999325,434.6001164999325,434.6001164999325,434.6001164999325,5.574074074074074,1.8459243000252172,436.46496309991926,438.2277251998894,,,,,,,,,,,,,,,,,,,,,266,m,22,2023-03-26_15h37.23.649,RL,2022.2.4,59.92336998299895,
1,-0.3,-0.225,0,38,38,38,,,,,,,,,,None,438.2277251998894,438.2277251998894,438.2277251998894,438.2277251998894,438.2277251998894,438.2277251998894,i,0.23345569998491555,438.49432699999306,438.49432699999306,438.49432699999306,438.49432699999306,438.49432699999306,438.49432699999306,438.7935958999442,438.7935958999442,440.77142709994223,440.77142709994223,440.77142709994223,440.77142709994223,440.77142709994223,440.77142709994223,440.77142709994223,440.77142709994223,440.77142709994223,440.77142709994223,440.77142709994223,440.77142709994223,440.77142709994223,440.77142709994223,440.77142709994223,440.77142709994223,440.77142709994223,56,72,60,41,60,47,7.0,1.5115404999814928,,,,,,,,,,,,,[],[],[],[],[],[],[],0.6,3,,[],[],[],[],[],[],[],,,,,None,None,444.8187745999312,446.63835039990954,,,,,,,,,,,443.2798114999896,443.2798114999896,443.2798114999896,443.2798114999896,443.2798114999896,,,,,,266,m,22,2023-03-26_15h37.23.649,RL,2022.2.4,59.92336998299895,
0,0.3,0.225,0,39,39,39,,,,,,,,,,None,446.63835039990954,446.63835039990954,446.63835039990954,446.63835039990954,446.63835039990954,446.63835039990954,i,0.6521887000417337,447.3211587999249,447.3211587999249,447.3211587999249,447.3211587999249,447.3211587999249,447.3211587999249,447.6192701999098,447.6192701999098,448.7657532999292,448.7657532999292,448.7657532999292,448.7657532999292,448.7657532999292,448.7657532999292,448.7657532999292,448.7657532999292,448.7657532999292,448.7657532999292,448.7657532999292,448.7657532999292,448.7657532999292,448.7657532999292,448.7657532999292,448.7657532999292,448.7657532999292,58,75,68,49,68,65,None,None,451.27609729999676,451.27609729999676,451.27609729999676,451.27609729999676,451.27609729999676,451.27609729999676,451.27609729999676,451.27609729999676,0.005806599976494908,451.27609729999676,66,66,"[0.18981481481481483, 0.05648148148148148]","[-0.24722222222222223, -0.26944444444444443]","[1, 1]","[0, 0]","[0, 0]","[3.6971638000104576, 4.4789989000419155]",['tijiao'],0.2,0,,[],[],[],[],[],[],[],455.77643519989215,455.77643519989215,455.77643519989215,455.77643519989215,11,1.7292733000358567,457.52426809992176,459.22071689995937,,,,,,,,,,,,,,,,,,,,,266,m,22,2023-03-26_15h37.23.649,RL,2022.2.4,59.92336998299895,
1,-0.3,-0.225,0,40,40,40,,,,,,,,,,None,459.22071689995937,459.22071689995937,459.22071689995937,459.22071689995937,459.22071689995937,459.22071689995937,i,0.4458497999003157,459.6873897999758,459.6873897999758,459.6873897999758,459.6873897999758,459.6873897999758,459.6873897999758,459.9855122999288,459.9855122999288,460.98269799991976,460.98269799991976,460.98269799991976,460.98269799991976,460.98269799991976,460.98269799991976,460.98269799991976,460.98269799991976,460.98269799991976,460.98269799991976,460.98269799991976,460.98269799991976,460.98269799991976,460.98269799991976,460.98269799991976,460.98269799991976,460.98269799991976,62,77,64,52,64,54,None,None,463.49384859995916,463.49384859995916,463.49384859995916,463.49384859995916,463.49384859995916,463.49384859995916,463.49384859995916,463.49384859995916,0.0066781999776139855,463.49384859995916,65,65,[0.075],[-0.3],[1],[0],[0],[3.296768899890594],['tijiao'],0.6,0,,[],[],[],[],[],[],[],466.81140729994513,466.81140729994513,466.81140729994513,466.81140729994513,5.777777777777778,1.5647754000965506,468.39471689995844,470.1573981998954,,,,,,,,,,,,,,,,,,,,,266,m,22,2023-03-26_15h37.23.649,RL,2022.2.4,59.92336998299895,
0,0.3,0.225,0,41,41,41,,,,,,,,,,None,470.1573981998954,470.1573981998954,470.1573981998954,470.1573981998954,470.1573981998954,470.1573981998954,i,0.2328065000474453,470.4258209998952,470.4258209998952,470.4258209998952,470.4258209998952,470.4258209998952,470.4258209998952,470.72280609991867,470.72280609991867,472.15212729992345,472.15212729992345,472.15212729992345,472.15212729992345,472.15212729992345,472.15212729992345,472.15212729992345,472.15212729992345,472.15212729992345,472.15212729992345,472.15212729992345,472.15212729992345,472.15212729992345,472.15212729992345,472.15212729992345,472.15212729992345,472.15212729992345,58,77,59,47,59,34,7.0,1.9764686999842525,,,,,,,,,,,,,[],[],[],[],[],[],[],-0.2,2,,[],[],[],[],[],[],[],,,,,None,None,476.66502149996813,478.5678687999025,,,,,,,,,,,474.66102050000336,474.66102050000336,474.66102050000336,474.66102050000336,474.66102050000336,,,,,,266,m,22,2023-03-26_15h37.23.649,RL,2022.2.4,59.92336998299895,
1,-0.3,-0.225,0,42,42,42,,,,,,,,,,None,478.5678687999025,478.5678687999025,478.5678687999025,478.5678687999025,478.5678687999025,478.5678687999025,i,0.34312509989831597,478.933817199897,478.933817199897,478.933817199897,478.933817199897,478.933817199897,478.933817199897,479.2330711999675,479.2330711999675,480.36314499995206,480.36314499995206,480.36314499995206,480.36314499995206,480.36314499995206,480.36314499995206,480.36314499995206,480.36314499995206,480.36314499995206,480.36314499995206,480.36314499995206,480.36314499995206,480.36314499995206,480.36314499995206,480.36314499995206,480.36314499995206,480.36314499995206,55,83,62,44,62,57,None,None,482.87315999995917,482.87315999995917,482.87315999995917,482.87315999995917,482.87315999995917,482.87315999995917,482.87315999995917,482.87315999995917,0.005896599963307381,482.87315999995917,55,55,[0.05740740740740741],[-0.2722222222222222],[1],[0],[0],[4.179201200022362],['tijiao'],0.6,0,,[],[],[],[],[],[],[],487.07324479997624,487.07324479997624,487.07324479997624,487.07324479997624,8.787037037037036,2.094264000072144,489.1718402999686,490.7846273999894,,,,,,,,,,,,,,,,,,,,,266,m,22,2023-03-26_15h37.23.649,RL,2022.2.4,59.92336998299895,
0,0.3,0.225,0,43,43,43,,,,,,,,,,None,490.7846273999894,490.7846273999894,490.7846273999894,490.7846273999894,490.7846273999894,490.7846273999894,i,0.3033961000619456,491.1184737998992,491.1184737998992,491.1184737998992,491.1184737998992,491.1184737998992,491.1184737998992,491.4164479000028,491.4164479000028,492.5798555999063,492.5798555999063,492.5798555999063,492.5798555999063,492.5798555999063,492.5798555999063,492.5798555999063,492.5798555999063,492.5798555999063,492.5798555999063,492.5798555999063,492.5798555999063,492.5798555999063,492.5798555999063,492.5798555999063,492.5798555999063,492.5798555999063,53,68,62,49,62,59,7.0,1.345228600082919,,,,,,,,,,,,,[],[],[],[],[],[],[],0.6,2,,[],[],[],[],[],[],[],,,,,None,None,496.46288219990674,498.11447899998166,,,,,,,,,,,495.0889934999868,495.0889934999868,495.0889934999868,495.0889934999868,495.0889934999868,,,,,,266,m,22,2023-03-26_15h37.23.649,RL,2022.2.4,59.92336998299895,
1,-0.3,-0.225,0,44,44,44,,,,,,,,,,None,498.11447899998166,498.11447899998166,498.11447899998166,498.11447899998166,498.11447899998166,498.11447899998166,i,0.39019470009952784,498.53163739992306,498.53163739992306,498.53163739992306,498.53163739992306,498.53163739992306,498.53163739992306,498.8295603999868,498.8295603999868,500.50827079999726,500.50827079999726,500.50827079999726,500.50827079999726,500.50827079999726,500.50827079999726,500.50827079999726,500.50827079999726,500.50827079999726,500.50827079999726,500.50827079999726,500.50827079999726,500.50827079999726,500.50827079999726,500.50827079999726,500.50827079999726,500.50827079999726,56,71,68,51,68,63,7.0,0.9300661999732256,,,,,,,,,,,,,[],[],[],[],[],[],[],0.2,2,,[],[],[],[],[],[],[],,,,,None,None,503.97265059989877,505.8766796999844,,,,,,,,,,,503.01736379996873,503.01736379996873,503.01736379996873,503.01736379996873,503.01736379996873,,,,,,266,m,22,2023-03-26_15h37.23.649,RL,2022.2.4,59.92336998299895,
0,0.3,0.225,0,45,45,45,,,,,,,,,,None,505.8766796999844,505.8766796999844,505.8766796999844,505.8766796999844,505.8766796999844,505.8766796999844,i,0.25434060010593385,506.1604976999806,506.1604976999806,506.1604976999806,506.1604976999806,506.1604976999806,506.1604976999806,506.45836249995045,506.45836249995045,508.1205350999953,508.1205350999953,508.1205350999953,508.1205350999953,508.1205350999953,508.1205350999953,508.1205350999953,508.1205350999953,508.1205350999953,508.1205350999953,508.1205350999953,508.1205350999953,508.1205350999953,508.1205350999953,508.1205350999953,508.1205350999953,508.1205350999953,60,71,69,49,69,41,None,None,,,,,,,,,,,,,[],[],[],[],[],[],[],-0.6,1,50,"[0.18981481481481483, 0.1537037037037037]","[-0.23055555555555557, -0.25925925925925924]","[1, 1]","[0, 0]","[0, 0]","[3.55431919998955, 3.9033480000216514]",['tijiao_random_2'],514.5566991999513,514.5566991999513,514.5566991999513,514.5566991999513,6.175925925925926,1.7881294999970123,516.3635473999893,518.1431540999329,510.6405124999583,510.6405124999583,510.6405124999583,510.6405124999583,510.6405124999583,510.6405124999583,510.6405124999583,510.6405124999583,0.007139599998481572,510.6405124999583,,,,,,,,,,,266,m,22,2023-03-26_15h37.23.649,RL,2022.2.4,59.92336998299895,
1,-0.3,-0.225,0,46,46,46,,,,,,,,,,None,518.1431540999329,518.1431540999329,518.1431540999329,518.1431540999329,518.1431540999329,518.1431540999329,i,0.24573840002994984,518.4099468999775,518.4099468999775,518.4099468999775,518.4099468999775,518.4099468999775,518.4099468999775,518.7085602999432,518.7085602999432,519.5562917999923,519.5562917999923,519.5562917999923,519.5562917999923,519.5562917999923,519.5562917999923,519.5562917999923,519.5562917999923,519.5562917999923,519.5562917999923,519.5562917999923,519.5562917999923,519.5562917999923,519.5562917999923,519.5562917999923,519.5562917999923,519.5562917999923,44,70,65,53,65,46,7.0,1.611697499989532,,,,,,,,,,,,,[],[],[],[],[],[],[],-0.6,2,,[],[],[],[],[],[],[],,,,,None,None,523.7025605998933,525.3901155999629,,,,,,,,,,,522.0652694999008,522.0652694999008,522.0652694999008,522.0652694999008,522.0652694999008,,,,,,266,m,22,2023-03-26_15h37.23.649,RL,2022.2.4,59.92336998299895,
0,0.3,0.225,0,47,47,47,,,,,,,,,,None,525.3901155999629,525.3901155999629,525.3901155999629,525.3901155999629,525.3901155999629,525.3901155999629,i,0.3598168999888003,525.7747563999146,525.7747563999146,525.7747563999146,525.7747563999146,525.7747563999146,525.7747563999146,526.0717155999737,526.0717155999737,527.6006676999386,527.6006676999386,527.6006676999386,527.6006676999386,527.6006676999386,527.6006676999386,527.6006676999386,527.6006676999386,527.6006676999386,527.6006676999386,527.6006676999386,527.6006676999386,527.6006676999386,527.6006676999386,527.6006676999386,527.6006676999386,527.6006676999386,43,85,74,54,74,62,None,None,530.1122434999561,530.1122434999561,530.1122434999561,530.1122434999561,530.1122434999561,530.1122434999561,530.1122434999561,530.1122434999561,0.0071853999979794025,530.1122434999561,78,78,[0.12407407407407407],[-0.275],[1],[0],[0],[4.7936951000010595],['tijiao'],-0.2,0,,[],[],[],[],[],[],[],534.9257856999757,534.9257856999757,534.9257856999757,534.9257856999757,5.416666666666666,2.146192100015469,537.0908539999509,538.8700297999894,,,,,,,,,,,,,,,,,,,,,266,m,22,2023-03-26_15h37.23.649,RL,2022.2.4,59.92336998299895,
1,-0.3,-0.225,0,48,48,48,,,,,,,,,,None,538.8700297999894,538.8700297999894,538.8700297999894,538.8700297999894,538.8700297999894,538.8700297999894,i,0.3547687000827864,539.2531834999099,539.2531834999099,539.2531834999099,539.2531834999099,539.2531834999099,539.2531834999099,539.5516366999364,539.5516366999364,541.5462809999008,541.5462809999008,541.5462809999008,541.5462809999008,541.5462809999008,541.5462809999008,541.5462809999008,541.5462809999008,541.5462809999008,541.5462809999008,541.5462809999008,541.5462809999008,541.5462809999008,541.5462809999008,541.5462809999008,541.5462809999008,541.5462809999008,57,80,70,49,70,71,1.0,1.9604048000182956,,,,,,,,,,,,,[],[],[],[],[],[],[],0.2,2,,[],[],[],[],[],[],[],,,,,None,None,546.0417022999609,547.9449094999582,,,,,,,,,,,544.0553801999195,544.0553801999195,544.0553801999195,544.0553801999195,544.0553801999195,,,,,,266,m,22,2023-03-26_15h37.23.649,RL,2022.2.4,59.92336998299895,
0,0.3,0.225,0,49,49,49,,,,,,,,,,None,547.9449094999582,547.9449094999582,547.9449094999582,547.9449094999582,547.9449094999582,547.9449094999582,i,0.38041209999937564,548.3468113999115,548.3468113999115,548.3468113999115,548.3468113999115,548.3468113999115,548.3468113999115,548.6435694999527,548.6435694999527,550.3882770999335,550.3882770999335,550.405233599944,550.405233599944,550.405233599944,550.405233599944,550.405233599944,550.405233599944,550.405233599944,550.405233599944,550.405233599944,550.405233599944,550.405233599944,550.405233599944,550.405233599944,550.405233599944,550.405233599944,59,78,61,60,61,71,None,None,,,,,,,,,,,,,[],[],[],[],[],[],[],-0.6,1,50,[-0.028703703703703703],[-0.29444444444444445],[1],[0],[0],[2.8742899999488145],['tijiao_random_2'],555.8110339998966,555.8110339998966,555.8110339998966,555.8110339998966,5.425925925925926,2.004779599956237,557.8337957999902,559.71318839991,552.9238243999425,552.9238243999425,552.9238243999425,552.9238243999425,552.9238243999425,552.9238243999425,552.9238243999425,552.9238243999425,0.006382299936376512,552.9238243999425,,,,,,,,,,,266,m,22,2023-03-26_15h37.23.649,RL,2022.2.4,59.92336998299895,
1,-0.3,-0.225,0,50,50,50,,,,,,,,,,None,559.71318839991,559.71318839991,559.71318839991,559.71318839991,559.71318839991,559.71318839991,r,0.4630462999921292,560.1975365999388,560.1975365999388,560.1975365999388,560.1975365999388,560.1975365999388,560.1975365999388,560.494256899925,560.494256899925,561.6410608999431,561.6410608999431,561.6410608999431,561.6410608999431,561.6410608999431,561.6410608999431,561.6410608999431,561.6410608999431,561.6410608999431,561.6410608999431,561.6410608999431,561.6410608999431,561.6410608999431,561.6410608999431,561.6410608999431,561.6410608999431,561.6410608999431,64,89,57,53,64,63,7.0,1.4118555000750348,,,,,,,,,,,,,[],[],[],[],[],[],[],0.2,2,,[],[],[],[],[],[],[],,,,,None,None,565.588829999906,567.4752415999537,,,,,,,,,,,564.150451799971,564.150451799971,564.150451799971,564.150451799971,564.150451799971,,,,,,266,m,22,2023-03-26_15h37.23.649,RL,2022.2.4,59.92336998299895,
0,0.3,0.225,0,51,51,51,,,,,,,,,,None,567.4752415999537,567.4752415999537,567.4752415999537,567.4752415999537,567.4752415999537,567.4752415999537,r,0.42257010005414486,567.9243180999765,567.9243180999765,567.9243180999765,567.9243180999765,567.9243180999765,567.9243180999765,568.2231318999548,568.2231318999548,569.9187517999671,569.9187517999671,569.9354176999768,569.9354176999768,569.9354176999768,569.9354176999768,569.9354176999768,569.9354176999768,569.9354176999768,569.9354176999768,569.9354176999768,569.9354176999768,569.9354176999768,569.9354176999768,569.9354176999768,569.9354176999768,569.9354176999768,73,83,64,52,73,61,7.0,1.2125271999975666,,,,,,,,,,,,,[],[],[],[],[],[],[],0.2,3,,[],[],[],[],[],[],[],,,,,None,None,573.6842380999587,575.5032269998919,,,,,,,,,,,572.4444735998986,572.4444735998986,572.4444735998986,572.4444735998986,572.4444735998986,,,,,,266,m,22,2023-03-26_15h37.23.649,RL,2022.2.4,59.92336998299895,
1,-0.3,-0.225,0,52,52,52,,,,,,,,,,None,575.5032269998919,575.5032269998919,575.5032269998919,575.5032269998919,575.5032269998919,575.5032269998919,r,0.3915130998939276,575.9198095999891,575.9198095999891,575.9198095999891,575.9198095999891,575.9198095999891,575.9198095999891,576.2183974999934,576.2183974999934,577.7472088999348,577.7472088999348,577.7472088999348,577.7472088999348,577.7472088999348,577.7472088999348,577.7472088999348,577.7472088999348,577.7472088999348,577.7472088999348,577.7472088999348,577.7472088999348,577.7472088999348,577.7472088999348,577.7472088999348,577.7472088999348,577.7472088999348,73,92,64,37,73,45,None,None,580.2588372000027,580.2588372000027,580.2588372000027,580.2588372000027,580.2588372000027,580.2588372000027,580.2588372000027,580.2588372000027,0.00686119997408241,580.2588372000027,73,73,[0.11574074074074074],[-0.30462962962962964],[1],[0],[0],[4.14533919992391],['tijiao'],-0.6,0,,[],[],[],[],[],[],[],584.4234339999966,584.4234339999966,584.4234339999966,584.4234339999966,5.6759259259259265,0.7350490000098944,585.1757849999703,586.9052958999528,,,,,,,,,,,,,,,,,,,,,266,m,22,2023-03-26_15h37.23.649,RL,2022.2.4,59.92336998299895,
0,0.3,0.225,0,53,53,53,,,,,,,,,,None,586.9052958999528,586.9052958999528,586.9052958999528,586.9052958999528,586.9052958999528,586.9052958999528,r,0.3511768999742344,587.2883752998896,587.2883752998896,587.2883752998896,587.2883752998896,587.2883752998896,587.2883752998896,587.586939199944,587.586939199944,589.332375500002,589.332375500002,589.332375500002,589.332375500002,589.332375500002,589.332375500002,589.332375500002,589.332375500002,589.332375500002,589.332375500002,589.332375500002,589.332375500002,589.332375500002,589.332375500002,589.332375500002,589.332375500002,589.332375500002,66,92,58,46,66,46,7.0,0.8799377999966964,,,,,,,,,,,,,[],[],[],[],[],[],[],0.2,2,,[],[],[],[],[],[],[],,,,,None,None,592.7479582999367,594.3186862999573,,,,,,,,,,,591.8416742999107,591.8416742999107,591.8416742999107,591.8416742999107,591.8416742999107,,,,,,266,m,22,2023-03-26_15h37.23.649,RL,2022.2.4,59.92336998299895,
1,-0.3,-0.225,0,54,54,54,,,,,,,,,,None,594.3186862999573,594.3186862999573,594.3186862999573,594.3186862999573,594.3186862999573,594.3186862999573,r,0.484178299899213,594.8344227999914,594.8344227999914,594.8344227999914,594.8344227999914,594.8344227999914,594.8344227999914,595.1332529999781,595.1332529999781,596.1305654000025,596.1305654000025,596.1472164998995,596.1472164998995,596.1472164998995,596.1472164998995,596.1472164998995,596.1472164998995,596.1472164998995,596.1472164998995,596.1472164998995,596.1472164998995,596.1472164998995,596.1472164998995,596.1472164998995,596.1472164998995,596.1472164998995,71,95,64,48,71,68,None,None,598.6594183999114,598.6594183999114,598.6594183999114,598.6594183999114,598.6594183999114,598.6594183999114,598.6594183999114,598.6594183999114,0.008114100084640086,598.6594183999114,68,68,"[-0.05185185185185185, -0.03148148148148148, 0.011111111111111112]","[-0.18796296296296297, -0.21481481481481482, -0.30833333333333335]","[1, 1, 1]","[0, 0, 0]","[0, 0, 0]","[4.941021799924783, 5.291115899919532, 5.523699199897237]",['tijiao'],-0.2,0,,[],[],[],[],[],[],[],604.2036235999549,604.2036235999549,604.2036235999549,604.2036235999549,8.203703703703702,1.6641869000159204,605.8860403998988,607.5160798999714,,,,,,,,,,,,,,,,,,,,,266,m,22,2023-03-26_15h37.23.649,RL,2022.2.4,59.92336998299895,
0,0.3,0.225,0,55,55,55,,,,,,,,,,None,607.5160798999714,607.5160798999714,607.5160798999714,607.5160798999714,607.5160798999714,607.5160798999714,r,0.34224140003789216,607.8832066999748,607.8832066999748,607.8832066999748,607.8832066999748,607.8832066999748,607.8832066999748,608.1811134999152,608.1811134999152,609.577241599909,609.577241599909,609.577241599909,609.577241599909,609.577241599909,609.577241599909,609.577241599909,609.577241599909,609.577241599909,609.577241599909,609.577241599909,609.577241599909,609.577241599909,609.577241599909,609.577241599909,609.577241599909,609.577241599909,63,87,56,39,63,64,None,None,,,,,,,,,,,,,[],[],[],[],[],[],[],-0.6,1,63,[-0.006481481481481481],[-0.30648148148148147],[1],[0],[0],[4.152474600006826],['tijiao_random_2'],616.2624193999218,616.2624193999218,616.2624193999218,616.2624193999218,11,1.2403965999837965,617.5209630999016,619.2171533999499,612.0974193000002,612.0974193000002,612.0974193000002,612.0974193000002,612.0974193000002,612.0974193000002,612.0974193000002,612.0974193000002,0.006952299969270825,612.0974193000002,,,,,,,,,,,266,m,22,2023-03-26_15h37.23.649,RL,2022.2.4,59.92336998299895,
1,-0.3,-0.225,0,56,56,56,,,,,,,,,,None,619.2171533999499,619.2171533999499,619.2171533999499,619.2171533999499,619.2171533999499,619.2171533999499,r,1.0196029000217095,620.2658317999449,620.2658317999449,620.2658317999449,620.2658317999449,620.2658317999449,620.2658317999449,620.5638460998889,620.5638460998889,621.6274770000018,621.6274770000018,621.6274770000018,621.6274770000018,621.6274770000018,621.6274770000018,621.6274770000018,621.6274770000018,621.6274770000018,621.6274770000018,621.6274770000018,621.6274770000018,621.6274770000018,621.6274770000018,621.6274770000018,621.6274770000018,621.6274770000018,63,77,62,46,63,41,None,None,624.1375862999121,624.1375862999121,624.1375862999121,624.1375862999121,624.1375862999121,624.1375862999121,624.1375862999121,624.1375862999121,0.005524500040337443,624.1375862999121,65,65,"[-0.06388888888888888, -0.03888888888888889, -0.009259259259259259]","[-0.21296296296296297, -0.23981481481481481, -0.2675925925925926]","[1, 1, 1]","[0, 0, 0]","[0, 0, 0]","[3.5643830000190064, 3.8135941999498755, 4.113361999974586]",['tijiao'],0.6,0,,[],[],[],[],[],[],[],628.2749365998898,628.2749365998898,628.2749365998898,628.2749365998898,10.925925925925926,1.0122885000891984,629.3054154999554,630.9851736999117,,,,,,,,,,,,,,,,,,,,,266,m,22,2023-03-26_15h37.23.649,RL,2022.2.4,59.92336998299895,
0,0.3,0.225,0,57,57,57,,,,,,,,,,None,630.9851736999117,630.9851736999117,630.9851736999117,630.9851736999117,630.9851736999117,630.9851736999117,r,0.2992872999748215,631.3012974999147,631.3012974999147,631.3012974999147,631.3012974999147,631.3012974999147,631.3012974999147,631.6003203999717,631.6003203999717,633.3953198998934,633.3953198998934,633.3953198998934,633.3953198998934,633.3953198998934,633.3953198998934,633.3953198998934,633.3953198998934,633.3953198998934,633.3953198998934,633.3953198998934,633.3953198998934,633.3953198998934,633.3953198998934,633.3953198998934,633.3953198998934,633.3953198998934,69,75,67,41,69,65,7.0,0.6805917000165209,,,,,,,,,,,,,[],[],[],[],[],[],[],-0.6,3,,[],[],[],[],[],[],[],,,,,None,None,636.6137052999111,638.5978605999844,,,,,,,,,,,635.9047352999914,635.9047352999914,635.9047352999914,635.9047352999914,635.9047352999914,,,,,,266,m,22,2023-03-26_15h37.23.649,RL,2022.2.4,59.92336998299895,
1,-0.3,-0.225,0,58,58,58,,,,,,,,,,None,638.5978605999844,638.5978605999844,638.5978605999844,638.5978605999844,638.5978605999844,638.5978605999844,r,0.6079820001032203,639.2315456999931,639.2315456999931,639.2315456999931,639.2315456999931,639.2315456999931,639.2315456999931,639.5289128998993,639.5289128998993,641.2407211998943,641.2407211998943,641.2407211998943,641.2407211998943,641.2407211998943,641.2407211998943,641.2407211998943,641.2407211998943,641.2407211998943,641.2407211998943,641.2407211998943,641.2407211998943,641.2407211998943,641.2407211998943,641.2407211998943,641.2407211998943,641.2407211998943,75,80,76,47,75,57,None,None,,,,,,,,,,,,,[],[],[],[],[],[],[],0.6,1,50,[-0.04722222222222222],[-0.28703703703703703],[1],[0],[0],[3.1044955000979826],['tijiao_random_2'],646.8808061999734,646.8808061999734,646.8808061999734,646.8808061999734,5.324074074074074,1.4725277000106871,648.3701932999538,650.1829639999196,643.7620105999522,643.7620105999522,643.7620105999522,643.7620105999522,643.7620105999522,643.7620105999522,643.7620105999522,643.7620105999522,0.006643199943937361,643.7620105999522,,,,,,,,,,,266,m,22,2023-03-26_15h37.23.649,RL,2022.2.4,59.92336998299895,
0,0.3,0.225,0,59,59,59,,,,,,,,,,None,650.1829639999196,650.1829639999196,650.1829639999196,650.1829639999196,650.1829639999196,650.1829639999196,r,0.3400934999808669,650.550994399935,650.550994399935,650.550994399935,650.550994399935,650.550994399935,650.550994399935,650.8480085999472,650.8480085999472,652.2772735999897,652.2772735999897,652.2772735999897,652.2772735999897,652.2772735999897,652.2772735999897,652.2772735999897,652.2772735999897,652.2772735999897,652.2772735999897,652.2772735999897,652.2772735999897,652.2772735999897,652.2772735999897,652.2772735999897,652.2772735999897,652.2772735999897,71,86,70,44,71,65,7.0,2.043730500037782,,,,,,,,,,,,,[],[],[],[],[],[],[],0.6,2,,[],[],[],[],[],[],[],,,,,None,None,656.8567729999777,658.5098981999326,,,,,,,,,,,654.7861480999272,654.7861480999272,654.7861480999272,654.7861480999272,654.7861480999272,,,,,,266,m,22,2023-03-26_15h37.23.649,RL,2022.2.4,59.92336998299895,
1,-0.3,-0.225,0,60,60,60,,,,,,,,,,None,658.5098981999326,658.5098981999326,658.5098981999326,658.5098981999326,658.5098981999326,658.5098981999326,r,0.34477700002025813,658.8764259999152,658.8764259999152,658.8764259999152,658.8764259999152,658.8764259999152,658.8764259999152,659.1752668999834,659.1752668999834,660.7872011999134,660.7872011999134,660.7872011999134,660.7872011999134,660.7872011999134,660.7872011999134,660.7872011999134,660.7872011999134,660.7872011999134,660.7872011999134,660.7872011999134,660.7872011999134,660.7872011999134,660.7872011999134,660.7872011999134,660.7872011999134,660.7872011999134,76,79,68,50,76,65,None,None,,,,,,,,,,,,,[],[],[],[],[],[],[],0.6,1,50,[0.1111111111111111],[-0.28055555555555556],[1],[0],[0],[2.822909599984996],['tijiao_random_2'],666.1437853999669,666.1437853999669,666.1437853999669,666.1437853999669,6.416666666666666,2.6853090999647975,668.8474365998991,670.3944954999024,663.3080360000022,663.3080360000022,663.3080360000022,663.3080360000022,663.3080360000022,663.3080360000022,663.3080360000022,663.3080360000022,0.0065122999949380755,663.3080360000022,,,,,,,,,,,266,m,22,2023-03-26_15h37.23.649,RL,2022.2.4,59.92336998299895,
0,0.3,0.225,0,61,61,61,,,,,,,,,,None,670.3944954999024,670.3944954999024,670.3944954999024,670.3944954999024,670.3944954999024,670.3944954999024,r,0.2871906999498606,670.7127011999255,670.7127011999255,670.7127011999255,670.7127011999255,670.7127011999255,670.7127011999255,671.0092941999901,671.0092941999901,672.0900903999573,672.0900903999573,672.0900903999573,672.0900903999573,672.0900903999573,672.0900903999573,672.0900903999573,672.0900903999573,672.0900903999573,672.0900903999573,672.0900903999573,672.0900903999573,672.0900903999573,672.0900903999573,672.0900903999573,672.0900903999573,672.0900903999573,70,88,67,53,70,59,7.0,1.1463973999489099,,,,,,,,,,,,,[],[],[],[],[],[],[],-0.2,2,,[],[],[],[],[],[],[],,,,,None,None,675.7738707999233,677.6746619999176,,,,,,,,,,,674.5989967999049,674.5989967999049,674.5989967999049,674.5989967999049,674.5989967999049,,,,,,266,m,22,2023-03-26_15h37.23.649,RL,2022.2.4,59.92336998299895,
1,-0.3,-0.225,0,62,62,62,,,,,,,,,,None,677.6746619999176,677.6746619999176,677.6746619999176,677.6746619999176,677.6746619999176,677.6746619999176,r,0.384053900022991,678.0919226999395,678.0919226999395,678.0919226999395,678.0919226999395,678.0919226999395,678.0919226999395,678.3894006999908,678.3894006999908,680.234087199904,680.234087199904,680.2509673999157,680.2509673999157,680.2509673999157,680.2509673999157,680.2509673999157,680.2509673999157,680.2509673999157,680.2509673999157,680.2509673999157,680.2509673999157,680.2509673999157,680.2509673999157,680.2509673999157,680.2509673999157,680.2509673999157,68,94,64,43,68,51,None,None,,,,,,,,,,,,,[],[],[],[],[],[],[],0.2,1,45,[0.14722222222222223],[-0.25925925925925924],[1],[0],[0],[5.697276999941096],['tijiao_random_2'],688.4817128999857,688.4817128999857,688.4817128999857,688.4817128999857,3.4074074074074074,1.6890123001066968,690.189191399957,691.9189439999172,682.7715461999178,682.7715461999178,682.7715461999178,682.7715461999178,682.7715461999178,682.7715461999178,682.7715461999178,682.7715461999178,0.006679299985989928,682.7715461999178,,,,,,,,,,,266,m,22,2023-03-26_15h37.23.649,RL,2022.2.4,59.92336998299895,
0,0.3,0.225,0,63,63,63,,,,,,,,,,None,691.9189439999172,691.9189439999172,691.9189439999172,691.9189439999172,691.9189439999172,691.9189439999172,r,0.3300772999646142,692.2714690999128,692.2714690999128,692.2714690999128,692.2714690999128,692.2714690999128,692.2714690999128,692.5675264999736,692.5675264999736,694.2297025999287,694.2297025999287,694.2297025999287,694.2297025999287,694.2297025999287,694.2297025999287,694.2297025999287,694.2297025999287,694.2297025999287,694.2297025999287,694.2297025999287,694.2297025999287,694.2297025999287,694.2297025999287,694.2297025999287,694.2297025999287,694.2297025999287,68,90,64,48,68,44,None,None,696.7396367999027,696.7396367999027,696.7396367999027,696.7396367999027,696.7396367999027,696.7396367999027,696.7396367999027,696.7396367999027,0.00672649999614805,696.7396367999027,65,65,[-0.09166666666666666],[-0.33611111111111114],[1],[0],[0],[6.057397599914111],['tijiao'],0.2,0,,[],[],[],[],[],[],[],702.8203281000024,702.8203281000024,702.8203281000024,702.8203281000024,10.231481481481481,1.345495699904859,704.1844067999627,705.9639833999099,,,,,,,,,,,,,,,,,,,,,266,m,22,2023-03-26_15h37.23.649,RL,2022.2.4,59.92336998299895,
1,-0.3,-0.225,0,64,64,64,,,,,,,,,,None,705.9639833999099,705.9639833999099,705.9639833999099,705.9639833999099,705.9639833999099,705.9639833999099,r,0.22073820000514388,706.2156427999726,706.2156427999726,706.2156427999726,706.2156427999726,706.2156427999726,706.2156427999726,706.5129199998919,706.5129199998919,708.1582871999126,708.1582871999126,708.1582871999126,708.1582871999126,708.1582871999126,708.1582871999126,708.1582871999126,708.1582871999126,708.1582871999126,708.1582871999126,708.1582871999126,708.1582871999126,708.1582871999126,708.1582871999126,708.1582871999126,708.1582871999126,708.1582871999126,57,89,64,45,57,61,None,None,710.670023099985,710.670023099985,710.670023099985,710.670023099985,710.670023099985,710.670023099985,710.670023099985,710.670023099985,0.007572300033643842,710.670023099985,50,50,[0.1527777777777778],[-0.25462962962962965],[1],[0],[0],[6.970340200001374],['tijiao'],0.2,0,,[],[],[],[],[],[],[],717.6621086999075,717.6621086999075,717.6621086999075,717.6621086999075,3.851851851851852,3.390898899990134,721.0717192000011,722.9176792999497,,,,,,,,,,,,,,,,,,,,,266,m,22,2023-03-26_15h37.23.649,RL,2022.2.4,59.92336998299895,
0,0.3,0.225,0,65,65,65,,,,,,,,,,None,722.9176792999497,722.9176792999497,722.9176792999497,722.9176792999497,722.9176792999497,722.9176792999497,i,0.5572526999749243,723.5003622999648,723.5003622999648,723.5003622999648,723.5003622999648,723.5003622999648,723.5003622999648,723.798947299947,723.798947299947,725.4611908999505,725.4611908999505,725.4611908999505,725.4611908999505,725.4611908999505,725.4611908999505,725.4611908999505,725.4611908999505,725.4611908999505,725.4611908999505,725.4611908999505,725.4611908999505,725.4611908999505,725.4611908999505,725.4611908999505,725.4611908999505,725.4611908999505,60,83,67,43,67,56,7.0,1.462553899968043,,,,,,,,,,,,,[],[],[],[],[],[],[],-0.2,2,,[],[],[],[],[],[],[],,,,,None,None,729.4586480999133,731.078788899933,,,,,,,,,,,727.9698246999178,727.9698246999178,727.9698246999178,727.9698246999178,727.9698246999178,,,,,,266,m,22,2023-03-26_15h37.23.649,RL,2022.2.4,59.92336998299895,
1,-0.3,-0.225,0,66,66,66,,,,,,,,,,None,731.078788899933,731.078788899933,731.078788899933,731.078788899933,731.078788899933,731.078788899933,i,0.08964389993343502,731.1976732999319,731.1976732999319,731.1976732999319,731.1976732999319,731.1976732999319,731.1976732999319,731.4947413998889,731.4947413998889,732.8571647999343,732.8571647999343,732.8571647999343,732.8571647999343,732.8571647999343,732.8571647999343,732.8571647999343,732.8571647999343,732.8571647999343,732.8571647999343,732.8571647999343,732.8571647999343,732.8571647999343,732.8571647999343,732.8571647999343,732.8571647999343,732.8571647999343,61,84,62,47,62,60,7.0,0.43134290003217757,,,,,,,,,,,,,[],[],[],[],[],[],[],-0.6,2,,[],[],[],[],[],[],[],,,,,None,None,735.8243173999945,737.4112126999535,,,,,,,,,,,735.3662155999336,735.3662155999336,735.3662155999336,735.3662155999336,735.3662155999336,,,,,,266,m,22,2023-03-26_15h37.23.649,RL,2022.2.4,59.92336998299895,
0,0.3,0.225,0,67,67,67,,,,,,,,,,None,737.4112126999535,737.4112126999535,737.4112126999535,737.4112126999535,737.4112126999535,737.4112126999535,i,0.23373199999332428,737.6776687999954,737.6776687999954,737.6776687999954,737.6776687999954,737.6776687999954,737.6776687999954,737.9769743999932,737.9769743999932,739.6557005998911,739.6557005998911,739.6557005998911,739.6557005998911,739.6557005998911,739.6557005998911,739.6557005998911,739.6557005998911,739.6557005998911,739.6557005998911,739.6557005998911,739.6557005998911,739.6557005998911,739.6557005998911,739.6557005998911,739.6557005998911,739.6557005998911,56,89,62,47,62,59,7.0,0.46475899999495596,,,,,,,,,,,,,[],[],[],[],[],[],[],-0.2,3,,[],[],[],[],[],[],[],,,,,None,None,742.6543775999453,744.442354299943,,,,,,,,,,,742.1644558999687,742.1644558999687,742.1644558999687,742.1644558999687,742.1644558999687,,,,,,266,m,22,2023-03-26_15h37.23.649,RL,2022.2.4,59.92336998299895,
1,-0.3,-0.225,0,68,68,68,,,,,,,,,,None,744.442354299943,744.442354299943,744.442354299943,744.442354299943,744.442354299943,744.442354299943,i,0.21536290005315095,744.6753101999639,744.6753101999639,744.6753101999639,744.6753101999639,744.6753101999639,744.6753101999639,744.9744603999425,744.9744603999425,746.3205909999087,746.3205909999087,746.3205909999087,746.3205909999087,746.3205909999087,746.3205909999087,746.3205909999087,746.3205909999087,746.3205909999087,746.3205909999087,746.3205909999087,746.3205909999087,746.3205909999087,746.3205909999087,746.3205909999087,746.3205909999087,746.3205909999087,50,85,58,47,58,60,None,None,748.8320778999478,748.8320778999478,748.8320778999478,748.8320778999478,748.8320778999478,748.8320778999478,748.8320778999478,748.8320778999478,0.007206800044514239,748.8320778999478,70,70,"[0.004629629629629629, 0.0]","[-0.24166666666666667, -0.3037037037037037]","[1, 1]","[0, 0]","[0, 0]","[3.995134200085886, 4.310927300015464]",['tijiao'],-0.6,0,,[],[],[],[],[],[],[],753.1636824999005,753.1636824999005,753.1636824999005,753.1636824999005,7.75,0.6667205999838188,753.848949899897,755.7946629999205,,,,,,,,,,,,,,,,,,,,,266,m,22,2023-03-26_15h37.23.649,RL,2022.2.4,59.92336998299895,
0,0.3,0.225,0,69,69,69,,,,,,,,,,None,755.7946629999205,755.7946629999205,755.7946629999205,755.7946629999205,755.7946629999205,755.7946629999205,r,0.21177449997048825,756.0288215999026,756.0288215999026,756.0288215999026,756.0288215999026,756.0288215999026,756.0288215999026,756.3269201999065,756.3269201999065,757.9057052999269,757.9057052999269,757.9057052999269,757.9057052999269,757.9057052999269,757.9057052999269,757.9057052999269,757.9057052999269,757.9057052999269,757.9057052999269,757.9057052999269,757.9057052999269,757.9057052999269,757.9057052999269,757.9057052999269,757.9057052999269,757.9057052999269,55,89,58,43,55,58,None,None,760.4168519999366,760.4168519999366,760.4168519999366,760.4168519999366,760.4168519999366,760.4168519999366,760.4168519999366,760.4168519999366,0.006918500061146915,760.4168519999366,60,60,"[-0.1425925925925926, -0.14629629629629629, -0.125]","[-0.24444444444444444, -0.24444444444444444, -0.25462962962962965]","[1, 1, 1]","[0, 0, 0]","[0, 0, 0]","[3.928860899992287, 4.328632400021888, 4.593884400092065]",['tijiao'],-0.2,0,,[],[],[],[],[],[],[],765.0315920999274,765.0315920999274,765.0315920999274,765.0315920999274,4.361111111111112,1.879876899998635,766.92979189998,768.6926322999643,,,,,,,,,,,,,,,,,,,,,266,m,22,2023-03-26_15h37.23.649,RL,2022.2.4,59.92336998299895,
1,-0.3,-0.225,0,70,70,70,,,,,,,,,,None,768.6926322999643,768.6926322999643,768.6926322999643,768.6926322999643,768.6926322999643,768.6926322999643,j,0.0098094999557361,768.7268020999618,768.7268020999618,768.7268020999618,768.7268020999618,768.7268020999618,768.7268020999618,769.0251748999581,769.0251748999581,770.2720640999032,770.2720640999032,770.2720640999032,770.2720640999032,770.2720640999032,770.2720640999032,770.2720640999032,770.2720640999032,770.2720640999032,770.2720640999032,770.2720640999032,770.2720640999032,770.2720640999032,770.2720640999032,770.2720640999032,770.2720640999032,770.2720640999032,54,85,60,46,46,59,None,None,,,,,,,,,,,,,[],[],[],[],[],[],[],0.2,1,60,[-0.06481481481481481],[-0.3111111111111111],[1],[0],[0],[4.288446900085546],['tijiao_random_2'],777.0909093999071,777.0909093999071,777.0909093999071,777.0909093999071,8.49074074074074,1.5713811999885365,778.6810765999835,780.4937643999001,772.790162499994,772.790162499994,772.790162499994,772.790162499994,772.790162499994,772.790162499994,772.790162499994,772.790162499994,0.006887099938467145,772.790162499994,,,,,,,,,,,266,m,22,2023-03-26_15h37.23.649,RL,2022.2.4,59.92336998299895,
0,0.3,0.225,0,71,71,71,,,,,,,,,,None,780.4937643999001,780.4937643999001,780.4937643999001,780.4937643999001,780.4937643999001,780.4937643999001,i,0.4358496000058949,780.9596958999755,780.9596958999755,780.9596958999755,780.9596958999755,780.9596958999755,780.9596958999755,781.2588712999132,781.2588712999132,783.1369017999386,783.1369017999386,783.1369017999386,783.1369017999386,783.1369017999386,783.1369017999386,783.1369017999386,783.1369017999386,783.1369017999386,783.1369017999386,783.1369017999386,783.1369017999386,783.1369017999386,783.1369017999386,783.1369017999386,783.1369017999386,783.1369017999386,49,77,52,51,52,48,7.0,1.195891399984248,,,,,,,,,,,,,[],[],[],[],[],[],[],-0.2,2,,[],[],[],[],[],[],[],,,,,None,None,786.8684115998913,788.6881128998939,,,,,,,,,,,785.646185599966,785.646185599966,785.646185599966,785.646185599966,785.646185599966,,,,,,266,m,22,2023-03-26_15h37.23.649,RL,2022.2.4,59.92336998299895,
1,-0.3,-0.225,0,72,72,72,,,,,,,,,,None,788.6881128998939,788.6881128998939,788.6881128998939,788.6881128998939,788.6881128998939,788.6881128998939,i,0.19273850007448345,788.9056339999661,788.9056339999661,788.9056339999661,788.9056339999661,788.9056339999661,788.9056339999661,789.2038676999509,789.2038676999509,790.1176898999838,790.1176898999838,790.1176898999838,790.1176898999838,790.1176898999838,790.1176898999838,790.1176898999838,790.1176898999838,790.1176898999838,790.1176898999838,790.1176898999838,790.1176898999838,790.1176898999838,790.1176898999838,790.1176898999838,790.1176898999838,790.1176898999838,50,85,63,48,63,64,1.0,1.013136199908331,,,,,,,,,,,,,[],[],[],[],[],[],[],0.2,2,,[],[],[],[],[],[],[],,,,,None,None,793.665951599949,795.4030320999445,,,,,,,,,,,792.6265097999712,792.6265097999712,792.6265097999712,792.6265097999712,792.6265097999712,,,,,,266,m,22,2023-03-26_15h37.23.649,RL,2022.2.4,59.92336998299895,
0,0.3,0.225,0,73,73,73,,,,,,,,,,None,795.4030320999445,795.4030320999445,795.4030320999445,795.4030320999445,795.4030320999445,795.4030320999445,i,0.09616469999309629,795.522345699952,795.522345699952,795.522345699952,795.522345699952,795.522345699952,795.522345699952,795.8191215998959,795.8191215998959,796.8163016999606,796.8163016999606,796.8163016999606,796.8163016999606,796.8163016999606,796.8163016999606,796.8163016999606,796.8163016999606,796.8163016999606,796.8163016999606,796.8163016999606,796.8163016999606,796.8163016999606,796.8163016999606,796.8163016999606,796.8163016999606,796.8163016999606,53,87,53,46,53,56,1.0,0.7306901999982074,,,,,,,,,,,,,[],[],[],[],[],[],[],0.6,3,,[],[],[],[],[],[],[],,,,,None,None,800.0841183000011,801.5865329999942,,,,,,,,,,,799.325456499937,799.325456499937,799.325456499937,799.325456499937,799.325456499937,,,,,,266,m,22,2023-03-26_15h37.23.649,RL,2022.2.4,59.92336998299895,
1,-0.3,-0.225,0,74,74,74,,,,,,,,,,None,801.5865329999942,801.5865329999942,801.5865329999942,801.5865329999942,801.5865329999942,801.5865329999942,None,,,,,,,,,,,,,,,,,,,,,,,,,,,54,79,59,47,0,**,None,None,,,,,,,,,,,,,[],[],[],[],[],[],[],0.6,3,,[],[],[],[],[],[],[],,,,,None,None,809.1318994999165,810.9769982999424,,,,,,,,,,,,,,,,803.121356699965,809.1318994999165,,,,266,m,22,2023-03-26_15h37.23.649,RL,2022.2.4,59.92336998299895,
0,0.3,0.225,0,75,75,75,,,,,,,,,,q,1079.7617084999802,1079.7617084999802,1079.7617084999802,1079.7617084999802,1079.7617084999802,1079.7617084999802,r,0.7887439000187442,1080.5778635999886,1080.5778635999886,1080.5778635999886,1080.5778635999886,1080.5778635999886,1080.5778635999886,1080.8745312999235,1080.8745312999235,1082.2039832998998,1082.2039832998998,1082.2039832998998,1082.2039832998998,1082.2039832998998,1082.2039832998998,1082.2039832998998,1082.2039832998998,1082.2039832998998,1082.2039832998998,1082.2039832998998,1082.2039832998998,1082.2039832998998,1082.2039832998998,1082.2039832998998,1082.2039832998998,1082.2039832998998,53,82,54,47,53,52,6.0,2.0436177999945357,,,,,,,,,,,,,[],[],[],[],[],[],[],0.2,3,,[],[],[],[],[],[],[],,,,,None,None,1086.7835189999314,1088.5365604999242,,,,,,,,,,,1084.713305799989,1084.713305799989,1084.713305799989,1084.713305799989,1084.713305799989,,,810.9769982999424,810.9769982999424,268.75525719998404,266,m,22,2023-03-26_15h37.23.649,RL,2022.2.4,59.92336998299895,
1,-0.3,-0.225,0,76,76,76,,,,,,,,,,None,1088.5365604999242,1088.5365604999242,1088.5365604999242,1088.5365604999242,1088.5365604999242,1088.5365604999242,r,0.41357350000180304,1088.9711705999216,1088.9711705999216,1088.9711705999216,1088.9711705999216,1088.9711705999216,1088.9711705999216,1089.2682798999595,1089.2682798999595,1090.6477480999893,1090.6477480999893,1090.6477480999893,1090.6477480999893,1090.6477480999893,1090.6477480999893,1090.6477480999893,1090.6477480999893,1090.6477480999893,1090.6477480999893,1090.6477480999893,1090.6477480999893,1090.6477480999893,1090.6477480999893,1090.6477480999893,1090.6477480999893,1090.6477480999893,55,83,58,47,55,34,None,None,,,,,,,,,,,,,[],[],[],[],[],[],[],0.2,1,40,[0.03981481481481482],[-0.2898148148148148],[1],[0],[0],[3.4875179000664502],['tijiao_random_2'],1096.6701347999042,1096.6701347999042,1096.6701347999042,1096.6701347999042,3.592592592592593,1.2721713000210002,1097.9599967999384,1099.7725729999365,1093.167492199922,1093.167492199922,1093.167492199922,1093.167492199922,1093.167492199922,1093.167492199922,1093.167492199922,1093.167492199922,0.0063396000768989325,1093.167492199922,,,,,,,,,,,266,m,22,2023-03-26_15h37.23.649,RL,2022.2.4,59.92336998299895,
0,0.3,0.225,0,77,77,77,,,,,,,,,,None,1099.7725729999365,1099.7725729999365,1099.7725729999365,1099.7725729999365,1099.7725729999365,1099.7725729999365,r,0.3441118999617174,1100.1395664999727,1100.1395664999727,1100.1395664999727,1100.1395664999727,1100.1395664999727,1100.1395664999727,1100.437712199986,1100.437712199986,1102.0666530999588,1102.0666530999588,1102.0666530999588,1102.0666530999588,1102.0666530999588,1102.0666530999588,1102.0666530999588,1102.0666530999588,1102.0666530999588,1102.0666530999588,1102.0666530999588,1102.0666530999588,1102.0666530999588,1102.0666530999588,1102.0666530999588,1102.0666530999588,1102.0666530999588,60,81,60,52,60,62,2.0,1.412316800095141,,,,,,,,,,,,,[],[],[],[],[],[],[],0.2,2,,[],[],[],[],[],[],[],,,,,None,None,1106.0129335999954,1107.6510768999578,,,,,,,,,,,1104.5754994999152,1104.5754994999152,1104.5754994999152,1104.5754994999152,1104.5754994999152,,,,,,266,m,22,2023-03-26_15h37.23.649,RL,2022.2.4,59.92336998299895,
1,-0.3,-0.225,0,78,78,78,,,,,,,,,,None,1107.6510768999578,1107.6510768999578,1107.6510768999578,1107.6510768999578,1107.6510768999578,1107.6510768999578,r,0.9210927999811247,1108.599328899989,1108.599328899989,1108.599328899989,1108.599328899989,1108.599328899989,1108.599328899989,1108.8981217999244,1108.8981217999244,1110.5102023999207,1110.5102023999207,1110.5102023999207,1110.5102023999207,1110.5102023999207,1110.5102023999207,1110.5102023999207,1110.5102023999207,1110.5102023999207,1110.5102023999207,1110.5102023999207,1110.5102023999207,1110.5102023999207,1110.5102023999207,1110.5102023999207,1110.5102023999207,1110.5102023999207,67,77,63,50,67,55,7.0,0.9304679000051692,,,,,,,,,,,,,[],[],[],[],[],[],[],0.6,2,,[],[],[],[],[],[],[],,,,,None,None,1113.977908599889,1115.7458518999629,,,,,,,,,,,1113.0191045999527,1113.0191045999527,1113.0191045999527,1113.0191045999527,1113.0191045999527,,,,,,266,m,22,2023-03-26_15h37.23.649,RL,2022.2.4,59.92336998299895,
0,0.3,0.225,0,79,79,79,,,,,,,,,,None,1115.7458518999629,1115.7458518999629,1115.7458518999629,1115.7458518999629,1115.7458518999629,1115.7458518999629,r,0.2320035999873653,1115.9977615999524,1115.9977615999524,1115.9977615999524,1115.9977615999524,1115.9977615999524,1115.9977615999524,1116.2945773999672,1116.2945773999672,1118.1060135998996,1118.1060135998996,1118.1060135998996,1118.1060135998996,1118.1060135998996,1118.1060135998996,1118.1060135998996,1118.1060135998996,1118.1060135998996,1118.1060135998996,1118.1060135998996,1118.1060135998996,1118.1060135998996,1118.1060135998996,1118.1060135998996,1118.1060135998996,1118.1060135998996,62,72,61,46,62,54,7.0,0.3996500000357628,,,,,,,,,,,,,[],[],[],[],[],[],[],0.2,2,,[],[],[],[],[],[],[],,,,,None,None,1121.0385337999323,1122.726747599896,,,,,,,,,,,1120.6153376000002,1120.6153376000002,1120.6153376000002,1120.6153376000002,1120.6153376000002,,,,,,266,m,22,2023-03-26_15h37.23.649,RL,2022.2.4,59.92336998299895,
1,-0.3,-0.225,0,80,80,80,,,,,,,,,,None,1122.726747599896,1122.726747599896,1122.726747599896,1122.726747599896,1122.726747599896,1122.726747599896,r,0.23776859999634326,1122.9939627998974,1122.9939627998974,1122.9939627998974,1122.9939627998974,1122.9939627998974,1122.9939627998974,1123.2921357000014,1123.2921357000014,1124.3723121999064,1124.3723121999064,1124.3723121999064,1124.3723121999064,1124.3723121999064,1124.3723121999064,1124.3723121999064,1124.3723121999064,1124.3723121999064,1124.3723121999064,1124.3723121999064,1124.3723121999064,1124.3723121999064,1124.3723121999064,1124.3723121999064,1124.3723121999064,1124.3723121999064,63,70,60,40,63,58,None,None,1126.882781799999,1126.882781799999,1126.882781799999,1126.882781799999,1126.882781799999,1126.882781799999,1126.882781799999,1126.882781799999,0.005887899897061288,1126.882781799999,60,60,"[0.2722222222222222, 0.17685185185185184, 0.08981481481481482, 0.10555555555555556]","[-0.32407407407407407, -0.2351851851851852, -0.20833333333333334, -0.3138888888888889]","[1, 1, 1, 1]","[0, 0, 0, 0]","[0, 0, 0, 0]","[3.0832658000290394, 3.564407299971208, 3.7810190999880433, 4.013244100031443]",['tijiao'],-0.6,0,,[],[],[],[],[],[],[],1130.9167290999321,1130.9167290999321,1130.9167290999321,1130.9167290999321,6.138888888888888,1.4480929999845102,1132.3827863999177,1134.1456647999585,,,,,,,,,,,,,,,,,,,,,266,m,22,2023-03-26_15h37.23.649,RL,2022.2.4,59.92336998299895,
0,0.3,0.225,0,81,81,81,,,,,,,,,,None,1134.1456647999585,1134.1456647999585,1134.1456647999585,1134.1456647999585,1134.1456647999585,1134.1456647999585,r,0.11560459993779659,1134.2820958999218,1134.2820958999218,1134.2820958999218,1134.2820958999218,1134.2820958999218,1134.2820958999218,1134.5780238999287,1134.5780238999287,1135.5580973000033,1135.5580973000033,1135.5580973000033,1135.5580973000033,1135.5580973000033,1135.5580973000033,1135.5580973000033,1135.5580973000033,1135.5580973000033,1135.5580973000033,1135.5580973000033,1135.5580973000033,1135.5580973000033,1135.5580973000033,1135.5580973000033,1135.5580973000033,1135.5580973000033,57,78,54,40,57,40,7.0,0.49790429999120533,,,,,,,,,,,,,[],[],[],[],[],[],[],0.2,2,,[],[],[],[],[],[],[],,,,,None,None,1138.5912689999677,1140.295306099928,,,,,,,,,,,1138.0674149999395,1138.0674149999395,1138.0674149999395,1138.0674149999395,1138.0674149999395,,,,,,266,m,22,2023-03-26_15h37.23.649,RL,2022.2.4,59.92336998299895,
1,-0.3,-0.225,0,82,82,82,,,,,,,,,,None,1140.295306099928,1140.295306099928,1140.295306099928,1140.295306099928,1140.295306099928,1140.295306099928,r,0.22340140002779663,1140.5471515998943,1140.5471515998943,1140.5471515998943,1140.5471515998943,1140.5471515998943,1140.5471515998943,1140.8443383999402,1140.8443383999402,1141.841310299933,1141.841310299933,1141.841310299933,1141.841310299933,1141.841310299933,1141.841310299933,1141.841310299933,1141.841310299933,1141.841310299933,1141.841310299933,1141.841310299933,1141.841310299933,1141.841310299933,1141.841310299933,1141.841310299933,1141.841310299933,1141.841310299933,52,76,57,40,52,55,1.0,1.744677200098522,,,,,,,,,,,,,[],[],[],[],[],[],[],-0.6,3,,[],[],[],[],[],[],[],,,,,None,None,1146.1201536000008,1148.107507299981,,,,,,,,,,,1144.3504110999638,1144.3504110999638,1144.3504110999638,1144.3504110999638,1144.3504110999638,,,,,,266,m,22,2023-03-26_15h37.23.649,RL,2022.2.4,59.92336998299895,
0,0.3,0.225,0,83,83,83,,,,,,,,,,None,1148.107507299981,1148.107507299981,1148.107507299981,1148.107507299981,1148.107507299981,1148.107507299981,r,0.03796670003794134,1148.1760886999546,1148.1760886999546,1148.1760886999546,1148.1760886999546,1148.1760886999546,1148.1760886999546,1148.47337719996,1148.47337719996,1150.0023057999788,1150.0023057999788,1150.0023057999788,1150.0023057999788,1150.0023057999788,1150.0023057999788,1150.0023057999788,1150.0023057999788,1150.0023057999788,1150.0023057999788,1150.0023057999788,1150.0023057999788,1150.0023057999788,1150.0023057999788,1150.0023057999788,1150.0023057999788,1150.0023057999788,58,65,52,50,58,49,None,None,1152.5146401999518,1152.5146401999518,1152.5146401999518,1152.5146401999518,1152.5146401999518,1152.5146401999518,1152.5146401999518,1152.5146401999518,0.00779009994585067,1152.5146401999518,60,60,"[-0.10648148148148148, -0.030555555555555555]","[-0.19537037037037036, -0.275]","[1, 1]","[0, 0]","[0, 0]","[3.9115703999996185, 4.061309599899687]",['tijiao'],-0.2,0,,[],[],[],[],[],[],[],1156.5966216999805,1156.5966216999805,1156.5966216999805,1156.5966216999805,6.935185185185185,1.3815060999477282,1157.995961299981,1159.6592190999072,,,,,,,,,,,,,,,,,,,,,266,m,22,2023-03-26_15h37.23.649,RL,2022.2.4,59.92336998299895,
1,-0.3,-0.225,0,84,84,84,,,,,,,,,,None,1159.6592190999072,1159.6592190999072,1159.6592190999072,1159.6592190999072,1159.6592190999072,1159.6592190999072,r,0.15232930006459355,1159.8423231999623,1159.8423231999623,1159.8423231999623,1159.8423231999623,1159.8423231999623,1159.8423231999623,1160.1416710999329,1160.1416710999329,1161.2382536999648,1161.2382536999648,1161.2382536999648,1161.2382536999648,1161.2382536999648,1161.2382536999648,1161.2382536999648,1161.2382536999648,1161.2382536999648,1161.2382536999648,1161.2382536999648,1161.2382536999648,1161.2382536999648,1161.2382536999648,1161.2382536999648,1161.2382536999648,1161.2382536999648,54,65,59,44,54,56,None,None,,,,,,,,,,,,,[],[],[],[],[],[],[],0.2,1,50,"[0.03611111111111111, 0.03518518518518519, 0.041666666666666664]","[-0.36944444444444446, -0.35185185185185186, -0.2962962962962963]","[1, 1, 1]","[0, 0, 0]","[0, 0, 0]","[2.5568528999574482, 2.8565490999026224, 3.1886516999220476]",['tijiao_random_2'],1166.9593177998904,1166.9593177998904,1166.9593177998904,1166.9593177998904,5.62037037037037,1.04119899997022,1168.018646499957,1169.6486253999174,1163.7578456999036,1163.7578456999036,1163.7578456999036,1163.7578456999036,1163.7578456999036,1163.7578456999036,1163.7578456999036,1163.7578456999036,0.006472699926234782,1163.7578456999036,,,,,,,,,,,266,m,22,2023-03-26_15h37.23.649,RL,2022.2.4,59.92336998299895,
0,0.3,0.225,0,85,85,85,,,,,,,,,,None,1169.6486253999174,1169.6486253999174,1169.6486253999174,1169.6486253999174,1169.6486253999174,1169.6486253999174,r,0.03299360000528395,1169.6991183999926,1169.6991183999926,1169.6991183999926,1169.6991183999926,1169.6991183999926,1169.6991183999926,1169.9980275999987,1169.9980275999987,1170.8455737999175,1170.8455737999175,1170.8455737999175,1170.8455737999175,1170.8455737999175,1170.8455737999175,1170.8455737999175,1170.8455737999175,1170.8455737999175,1170.8455737999175,1170.8455737999175,1170.8455737999175,1170.8455737999175,1170.8455737999175,1170.8455737999175,1170.8455737999175,1170.8455737999175,43,73,55,54,43,51,None,None,,,,,,,,,,,,,[],[],[],[],[],[],[],-0.6,1,60,"[0.1425925925925926, 0.14814814814814814]","[-0.36574074074074076, -0.29074074074074074]","[1, 1]","[0, 0]","[0, 0]","[4.050724599976093, 4.167531199986115]",['tijiao_random_2'],1177.548392299912,1177.548392299912,1177.548392299912,1177.548392299912,1.2037037037037037,1.7874945999355987,1179.3544073998928,1181.2004648000002,1173.3671051999554,1173.3671051999554,1173.3671051999554,1173.3671051999554,1173.3671051999554,1173.3671051999554,1173.3671051999554,1173.3671051999554,0.00821270002052188,1173.3671051999554,,,,,,,,,,,266,m,22,2023-03-26_15h37.23.649,RL,2022.2.4,59.92336998299895,
1,-0.3,-0.225,0,86,86,86,,,,,,,,,,None,1181.2004648000002,1181.2004648000002,1181.2004648000002,1181.2004648000002,1181.2004648000002,1181.2004648000002,r,0.1669758000643924,1181.401336699957,1181.401336699957,1181.401336699957,1181.401336699957,1181.401336699957,1181.401336699957,1181.699332499993,1181.699332499993,1183.0787654999876,1183.0787654999876,1183.0787654999876,1183.0787654999876,1183.0787654999876,1183.0787654999876,1183.0787654999876,1183.0787654999876,1183.0787654999876,1183.0787654999876,1183.0787654999876,1183.0787654999876,1183.0787654999876,1183.0787654999876,1183.0787654999876,1183.0787654999876,1183.0787654999876,39,73,54,55,39,32,None,None,,,,,,,,,,,,,[],[],[],[],[],[],[],-0.2,1,60,"[-0.14351851851851852, -0.09259259259259259]","[-0.22962962962962963, -0.2916666666666667]","[1, 1]","[0, 0]","[0, 0]","[3.67060119996313, 3.96974189998582]",['tijiao_random_2'],1189.580210999935,1189.580210999935,1189.580210999935,1189.580210999935,4.268518518518518,1.5399246999295428,1191.1387912998907,1193.0013558999635,1185.5985684999032,1185.5985684999032,1185.5985684999032,1185.5985684999032,1185.5985684999032,1185.5985684999032,1185.5985684999032,1185.5985684999032,0.006620400003157556,1185.5985684999032,,,,,,,,,,,266,m,22,2023-03-26_15h37.23.649,RL,2022.2.4,59.92336998299895,
0,0.3,0.225,0,87,87,87,,,,,,,,,,None,1193.0013558999635,1193.0013558999635,1193.0013558999635,1193.0013558999635,1193.0013558999635,1193.0013558999635,f,0.23823679995257407,1193.2699353999924,1193.2699353999924,1193.2699353999924,1193.2699353999924,1193.2699353999924,1193.2699353999924,1193.5668986999663,1193.5668986999663,1195.1123676999705,1195.1123676999705,1195.1123676999705,1195.1123676999705,1195.1123676999705,1195.1123676999705,1195.1123676999705,1195.1123676999705,1195.1123676999705,1195.1123676999705,1195.1123676999705,1195.1123676999705,1195.1123676999705,1195.1123676999705,1195.1123676999705,1195.1123676999705,1195.1123676999705,41,71,57,56,71,52,None,None,,,,,,,,,,,,,[],[],[],[],[],[],[],-0.2,1,71,[0.062037037037037036],[-0.31203703703703706],[1],[0],[0],[2.8723337000701576],['tijiao_random_2'],1200.519173199893,1200.519173199893,1200.519173199893,1200.519173199893,11,1.53826649999246,1202.0756957998965,1203.9381507999497,1197.6322152999928,1197.6322152999928,1197.6322152999928,1197.6322152999928,1197.6322152999928,1197.6322152999928,1197.6322152999928,1197.6322152999928,0.006749300053343177,1197.6322152999928,,,,,,,,,,,266,m,22,2023-03-26_15h37.23.649,RL,2022.2.4,59.92336998299895,
1,-0.3,-0.225,0,88,88,88,,,,,,,,,,None,1203.9381507999497,1203.9381507999497,1203.9381507999497,1203.9381507999497,1203.9381507999497,1203.9381507999497,f,0.2540682000108063,1204.2223142998992,1204.2223142998992,1204.2223142998992,1204.2223142998992,1204.2223142998992,1204.2223142998992,1204.5204525999725,1204.5204525999725,1206.1491052999627,1206.1491052999627,1206.1491052999627,1206.1491052999627,1206.1491052999627,1206.1491052999627,1206.1491052999627,1206.1491052999627,1206.1491052999627,1206.1491052999627,1206.1491052999627,1206.1491052999627,1206.1491052999627,1206.1491052999627,1206.1491052999627,1206.1491052999627,1206.1491052999627,48,74,48,47,74,66,7.0,1.4782487000338733,,,,,,,,,,,,,[],[],[],[],[],[],[],0.2,3,,[],[],[],[],[],[],[],,,,,None,None,1210.1648290999,1211.916691499995,,,,,,,,,,,1208.6582362999907,1208.6582362999907,1208.6582362999907,1208.6582362999907,1208.6582362999907,,,,,,266,m,22,2023-03-26_15h37.23.649,RL,2022.2.4,59.92336998299895,
