bandit0,black_x_pos_random,black_y_pos_random,trials.thisRepN,trials.thisTrialN,trials.thisN,trials.thisIndex,instru_img1.started,instru_img1.stopped,instru_resp.keys,instru_resp.rt,instru_resp.started,instru_resp.stopped,instru_img2.started,instru_img2.stopped,instru_resp2.keys,instru_resp2.rt,instru_resp2.started,instru_resp2.stopped,fixbefore_2.started,fixbefore_2.stopped,rest_image.started,rest_image.stopped,rest_response.keys,rest_response.started,rest_response.stopped,red.started,red.stopped,green.started,green.stopped,yellow.started,yellow.stopped,blue.started,blue.stopped,choose_bandit.keys,choose_bandit.rt,choose_bandit.started,choose_bandit.stopped,Fixation.started,Fixation.stopped,black.started,black.stopped,red_2.started,red_2.stopped,green_2.started,green_2.stopped,yellow_2.started,yellow_2.stopped,blue_2.started,blue_2.stopped,fixation_2.started,fixation_2.stopped,docs.started,docs.stopped,wait_playerB.started,wait_playerB.stopped,black_com.started,black_com.stopped,reward_sub.started,reward_sub.stopped,palyerb.started,palyerb.stopped,reward__sub.started,reward__sub.stopped,compare.started,compare.stopped,red_compare.started,red_compare.stopped,green_com.started,green_com.stopped,yellow_com.started,yellow_com.stopped,blue_com.started,blue_com.stopped,rewardyellow,rewardred,rewardblue,rewardgreen,subchoose,playerb,image_3.started,image_3.stopped,slider.response,slider.rt,slider.started,slider.stopped,text.started,text.stopped,image_4.started,image_4.stopped,image_5.started,image_5.stopped,expectself.text,expectself.started,expectself.stopped,value_expect_self,expect_self_black.started,expect_self_black.stopped,expect_self.started,expect_self.stopped,expect_self_red.started,expect_self_red.stopped,expect_self_green.started,expect_self_green.stopped,expect_self_yellow.started,expect_self_yellow.stopped,expect_self_blue.started,expect_self_blue.stopped,tijiao.started,tijiao.stopped,tijiao_click.started,tijiao_click.stopped,check.started,check.stopped,random_whicharm,whether_ask,jiantou_random.started,jiantou_random.stopped,expect_red.started,expect_red.stopped,expect_green.started,expect_green.stopped,expect_yellow.started,expect_yellow.stopped,expect_blue.started,expect_blue.stopped,expect_random_2.started,expect_random_2.stopped,expect_random_3.text,expect_random_3.started,expect_random_3.stopped,tijiao_random_2.started,tijiao_random_2.stopped,tijiao_random.x,tijiao_random.y,tijiao_random.leftButton,tijiao_random.midButton,tijiao_random.rightButton,tijiao_random.time,tijiao_random.clicked_name,tijiao_random.started,tijiao_random.stopped,check_2.started,check_2.stopped,slider_2.response,slider_2.rt,slider_2.started,slider_2.stopped,image_7.started,image_7.stopped,confi.started,confi.stopped,notconfi.started,notconfi.stopped,bigx.started,bigx.stopped,intertrialfix.started,intertrialfix.stopped,tijiao_click.x,tijiao_click.y,tijiao_click.leftButton,tijiao_click.midButton,tijiao_click.rightButton,tijiao_click.time,tijiao_click.clicked_name,rest_response.rt,participant,Gender,Age,date,expName,psychopyVersion,frameRate,
,,,,,,,13.987057599937543,None,space,0.7758779999567196,13.987057599937543,None,,,,,,,,,,,,,,,,,,,,,,,,,,,,,,,,,,,,,,,,,,,,,,,,,,,,,,,,,,,,,,,,,,,,,,,,,,,,,,,,,,,,,,,,,,,,,,,,,,,,,,,,,,,,,,,,,,,,,,,,,,,,,,,,,,,,,,,,,,,,,,,,,,,,,,,,,,267,f,23,2023_Mar_26_1701,RL,2021.2.3,59.99286086503693,
,,,,,,,,,,,,,14.792171200038865,None,s,1.9206951999804005,14.792171200038865,None,,,,,,,,,,,,,,,,,,,,,,,,,,,,,,,,,,,,,,,,,,,,,,,,,,,,,,,,,,,,,,,,,,,,,,,,,,,,,,,,,,,,,,,,,,,,,,,,,,,,,,,,,,,,,,,,,,,,,,,,,,,,,,,,,,,,,,,,,,,,,,,,,,,,267,f,23,2023_Mar_26_1701,RL,2021.2.3,59.99286086503693,
1,-0.3,-0.225,0,0,0,0,,,,,,,,,,,,,16.742820600047708,None,None,None,None,None,None,17.82530709996354,None,17.82530709996354,None,17.82530709996354,None,17.82530709996354,None,r,0.26735560002271086,17.82530709996354,None,17.82530709996354,None,18.206917900010012,None,18.206917900010012,None,18.206917900010012,None,18.206917900010012,None,18.206917900010012,None,18.206917900010012,None,18.49991290003527,19.58391219994519,18.49991290003527,19.58391219994519,19.673321999958716,None,19.673321999958716,None,19.673321999958716,None,19.673321999958716,None,19.673321999958716,None,19.673321999958716,None,19.673321999958716,None,19.673321999958716,None,19.673321999958716,None,51,57,41,28,51,32,None,None,None,None,None,None,None,None,None,None,None,None,,None,None,,None,None,None,None,None,None,None,None,None,None,None,None,None,None,None,None,None,None,0.2,1,22.59488520002924,None,22.59488520002924,None,22.59488520002924,None,22.59488520002924,None,22.59488520002924,None,22.59488520002924,None,45,22.59488520002924,None,22.59488520002924,None,0.006510416666666667,-0.28125,1,0,0,3.221864999970421,tijiao_random_2,0.0014002498937770724,None,22.59488520002924,None,2.888020833333333,3.0014210999943316,25.987206600024365,None,25.987206600024365,None,25.987206600024365,None,25.987206600024365,None,None,None,29.073101799935102,None,,,,,,,,,267,f,23,2023_Mar_26_1701,RL,2021.2.3,59.99286086503693,
0,0.3,0.225,0,1,1,1,,,,,,,,,,,,,,,None,None,None,None,None,30.729297399986535,None,30.729297399986535,None,30.729297399986535,None,30.729297399986535,None,j,0.1935195999685675,30.729297399986535,None,30.729297399986535,None,30.969765400048345,None,30.969765400048345,None,30.969765400048345,None,30.969765400048345,None,30.969765400048345,None,30.969765400048345,None,31.258743999991566,33.07667490001768,31.258743999991566,33.07667490001768,33.10988969996106,None,33.10988969996106,None,33.10988969996106,None,33.10988969996106,None,33.10988969996106,None,33.10988969996106,None,33.10988969996106,None,33.10988969996106,None,33.10988969996106,None,46,63,38,32,32,33,35.636517900042236,None,1.0,1.8342732000164688,35.636517900042236,None,35.636517900042236,None,35.636517900042236,None,35.636517900042236,None,,None,None,,None,None,None,None,None,None,None,None,None,None,None,None,None,None,None,None,None,None,-0.6,2,None,None,None,None,None,None,None,None,None,None,None,None,,None,None,None,None,,,,,,,,None,None,None,None,None,None,None,None,None,None,None,None,None,None,None,None,37.64091820002068,None,,,,,,,,,267,f,23,2023_Mar_26_1701,RL,2021.2.3,59.99286086503693,
1,-0.3,-0.225,0,2,2,2,,,,,,,,,,,,,,,None,None,None,None,None,39.56875229999423,None,39.56875229999423,None,39.56875229999423,None,39.56875229999423,None,f,0.24441509996540844,39.56875229999423,None,39.56875229999423,None,39.859470100025646,None,39.859470100025646,None,39.859470100025646,None,39.859470100025646,None,39.859470100025646,None,39.859470100025646,None,40.14845810004044,None,40.14845810004044,None,41.666446799994446,None,41.666446799994446,None,41.666446799994446,None,41.666446799994446,None,41.666446799994446,None,41.666446799994446,None,41.666446799994446,None,41.666446799994446,None,41.666446799994446,None,47,63,46,31,63,29,None,None,None,None,None,None,None,None,None,None,None,None,,None,None,,None,None,None,None,None,None,None,None,None,None,None,None,None,None,None,None,None,None,-0.2,1,44.209699300001375,None,44.209699300001375,None,44.209699300001375,None,44.209699300001375,None,44.209699300001375,None,44.209699300001375,None,63,44.209699300001375,None,44.209699300001375,None,-0.0026041666666666665,-0.2903645833333333,1,0,0,4.035935600055382,tijiao_random_2,0.015805940027348697,None,44.209699300001375,None,9.9453125,2.018592199892737,48.292684499989264,None,48.292684499989264,None,48.292684499989264,None,48.292684499989264,None,None,None,50.321791799971834,None,,,,,,,,,267,f,23,2023_Mar_26_1701,RL,2021.2.3,59.99286086503693,
0,0.3,0.225,0,3,3,3,,,,,,,,,,,,,,,None,None,None,None,None,52.27698369999416,None,52.27698369999416,None,52.27698369999416,None,52.27698369999416,None,j,0.2860145999584347,52.27698369999416,None,52.27698369999416,None,52.611665899981745,None,52.611665899981745,None,52.611665899981745,None,52.611665899981745,None,52.611665899981745,None,52.611665899981745,None,52.90734249993693,None,52.90734249993693,None,54.22829220001586,None,54.22829220001586,None,54.22829220001586,None,54.22829220001586,None,54.22829220001586,None,54.22829220001586,None,54.22829220001586,None,54.22829220001586,None,54.22829220001586,None,39,65,49,23,23,41,56.73931640002411,None,1.0,1.8735520999180153,56.73931640002411,None,56.73931640002411,None,56.73931640002411,None,56.73931640002411,None,,None,None,,None,None,None,None,None,None,None,None,None,None,None,None,None,None,None,None,None,None,0.6,2,None,None,None,None,None,None,None,None,None,None,None,None,,None,None,None,None,,,,,,,,None,None,None,None,None,None,None,None,None,None,None,None,None,None,None,None,58.69987000001129,None,,,,,,,,,267,f,23,2023_Mar_26_1701,RL,2021.2.3,59.99286086503693,
1,-0.3,-0.225,0,4,4,4,,,,,,,,,,,,,,,None,None,None,None,None,60.48294709995389,None,60.48294709995389,None,60.48294709995389,None,60.48294709995389,None,f,0.22010090004187077,60.48294709995389,None,60.48294709995389,None,60.7515230999561,None,60.7515230999561,None,60.7515230999561,None,60.7515230999561,None,60.7515230999561,None,60.7515230999561,None,61.04622889996972,None,61.04622889996972,None,62.71376940002665,None,62.71376940002665,None,62.71376940002665,None,62.71376940002665,None,62.71376940002665,None,62.71376940002665,None,62.71376940002665,None,62.71376940002665,None,62.71376940002665,None,42,68,43,31,68,52,None,None,None,None,None,None,None,None,None,None,None,None,34,65.24432359996717,None,34,65.24432359996717,None,65.24432359996717,None,65.24432359996717,None,65.24432359996717,None,65.24432359996717,None,65.24432359996717,None,65.24432359996717,None,0.014636430074460804,None,65.24432359996717,None,-0.6,0,None,None,None,None,None,None,None,None,None,None,None,None,,None,None,None,None,,,,,,,,None,None,None,None,4.958333333333333,3.128906700061634,75.24702549993526,None,75.24702549993526,None,75.24702549993526,None,75.24702549993526,None,None,None,78.39072050002869,None,-0.018229166666666668,-0.26171875,1,0,0,9.937898699892685,tijiao,,267,f,23,2023_Mar_26_1701,RL,2021.2.3,59.99286086503693,
0,0.3,0.225,0,5,5,5,,,,,,,,,,,,,,,None,None,None,None,None,80.39664629998151,None,80.39664629998151,None,80.39664629998151,None,80.39664629998151,None,i,0.23756160004995763,80.39664629998151,None,80.39664629998151,None,80.67609329998959,None,80.67609329998959,None,80.67609329998959,None,80.67609329998959,None,80.67609329998959,None,80.67609329998959,None,80.95955479994882,82.71128409996163,80.95955479994882,82.71128409996163,82.74354089994449,None,82.74354089994449,None,82.74354089994449,None,82.74354089994449,None,82.74354089994449,None,82.74354089994449,None,82.74354089994449,None,82.74354089994449,None,82.74354089994449,None,53,59,43,30,43,49,None,None,None,None,None,None,None,None,None,None,None,None,45,85.28057099995203,None,45,85.28057099995203,None,85.28057099995203,None,85.28057099995203,None,85.28057099995203,None,85.28057099995203,None,85.28057099995203,None,85.28057099995203,None,0.00833992997650057,None,85.28057099995203,None,0.6,0,None,None,None,None,None,None,None,None,None,None,None,None,,None,None,None,None,,,,,,,,None,None,None,None,7.09375,2.350234300014563,89.43745249998756,None,89.43745249998756,None,89.43745249998756,None,89.43745249998756,None,None,None,91.81595740001649,None,0.09114583333333333,-0.2734375,1,0,0,4.11170010000933,tijiao,,267,f,23,2023_Mar_26_1701,RL,2021.2.3,59.99286086503693,
1,-0.3,-0.225,0,6,6,6,,,,,,,,,,,,,,,None,None,None,None,None,93.45600609993562,None,93.45600609993562,None,93.45600609993562,None,93.45600609993562,None,f,0.2285791999893263,93.45600609993562,None,93.45600609993562,None,93.72649459994864,None,93.72649459994864,None,93.72649459994864,None,93.72649459994864,None,93.72649459994864,None,93.72649459994864,None,94.01904289994854,95.67025029996876,94.01904289994854,95.67025029996876,95.70235439995304,None,95.70235439995304,None,95.70235439995304,None,95.70235439995304,None,95.70235439995304,None,95.70235439995304,None,95.70235439995304,None,95.70235439995304,None,95.70235439995304,None,42,48,35,24,48,55,98.22096129995771,None,1.0,1.7015339999925345,98.22096129995771,None,98.22096129995771,None,98.22096129995771,None,98.22096129995771,None,,None,None,,None,None,None,None,None,None,None,None,None,None,None,None,None,None,None,None,None,None,0.6,3,None,None,None,None,None,None,None,None,None,None,None,None,,None,None,None,None,,,,,,,,None,None,None,None,None,None,None,None,None,None,None,None,None,None,None,None,99.97944419994019,None,,,,,,,,,267,f,23,2023_Mar_26_1701,RL,2021.2.3,59.99286086503693,
0,0.3,0.225,0,7,7,7,,,,,,,,,,,,,,,None,None,None,None,None,101.79458370001521,None,101.79458370001521,None,101.79458370001521,None,101.79458370001521,None,r,0.26975610002409667,101.79458370001521,None,101.79458370001521,None,102.11284359998535,None,102.11284359998535,None,102.11284359998535,None,102.11284359998535,None,102.11284359998535,None,102.11284359998535,None,102.40814910002518,None,102.40814910002518,None,103.85519649996422,None,103.85519649996422,None,103.85519649996422,None,103.85519649996422,None,103.85519649996422,None,103.85519649996422,None,103.85519649996422,None,103.85519649996422,None,103.85519649996422,None,44,52,39,26,44,56,106.37659120000899,None,1.0,1.6856728999409825,106.37659120000899,None,106.37659120000899,None,106.37659120000899,None,106.37659120000899,None,,None,None,,None,None,None,None,None,None,None,None,None,None,None,None,None,None,None,None,None,None,0.6,2,None,None,None,None,None,None,None,None,None,None,None,None,,None,None,None,None,,,,,,,,None,None,None,None,None,None,None,None,None,None,None,None,None,None,None,None,108.11497560003772,None,,,,,,,,,267,f,23,2023_Mar_26_1701,RL,2021.2.3,59.99286086503693,
1,-0.3,-0.225,0,8,8,8,,,,,,,,,,,,,,,None,None,None,None,None,110.08383469993714,None,110.08383469993714,None,110.08383469993714,None,110.08383469993714,None,i,0.8809442000929266,110.08383469993714,None,110.08383469993714,None,111.00603689998388,None,111.00603689998388,None,111.00603689998388,None,111.00603689998388,None,111.00603689998388,None,111.00603689998388,None,111.29737779998686,112.68187760002911,111.29737779998686,112.68187760002911,112.71264569996856,None,112.71264569996856,None,112.71264569996856,None,112.71264569996856,None,112.71264569996856,None,112.71264569996856,None,112.71264569996856,None,112.71264569996856,None,112.71264569996856,None,51,55,35,22,35,54,115.23156820004806,None,1.0,1.5884484000271186,115.23156820004806,None,115.23156820004806,None,115.23156820004806,None,115.23156820004806,None,,None,None,,None,None,None,None,None,None,None,None,None,None,None,None,None,None,None,None,None,None,-0.6,2,None,None,None,None,None,None,None,None,None,None,None,None,,None,None,None,None,,,,,,,,None,None,None,None,None,None,None,None,None,None,None,None,None,None,None,None,116.87352180003654,None,,,,,,,,,267,f,23,2023_Mar_26_1701,RL,2021.2.3,59.99286086503693,
0,0.3,0.225,0,9,9,9,,,,,,,,,,,,,,,None,None,None,None,None,118.8236467000097,None,118.8236467000097,None,118.8236467000097,None,118.8236467000097,None,j,0.1908183000050485,118.8236467000097,None,118.8236467000097,None,119.06071370001882,None,119.06071370001882,None,119.06071370001882,None,119.06071370001882,None,119.06071370001882,None,119.06071370001882,None,119.35319289995823,120.4039150000317,119.35319289995823,120.4039150000317,120.43671669997275,None,120.43671669997275,None,120.43671669997275,None,120.43671669997275,None,120.43671669997275,None,120.43671669997275,None,120.43671669997275,None,120.43671669997275,None,120.43671669997275,None,49,58,41,28,28,42,None,None,None,None,None,None,None,None,None,None,None,None,,None,None,,None,None,None,None,None,None,None,None,None,None,None,None,None,None,None,None,None,None,0.2,1,122.98469459998887,None,122.98469459998887,None,122.98469459998887,None,122.98469459998887,None,122.98469459998887,None,122.98469459998887,None,23,122.98469459998887,None,122.98469459998887,None,0.10807291666666667,-0.2799479166666667,1,0,0,4.600006200023927,tijiao_random_2,0.01166594005189836,None,122.98469459998887,None,4.893229166666667,4.358745099976659,127.62429399997927,None,127.62429399997927,None,127.62429399997927,None,127.62429399997927,None,None,None,131.99487059994135,None,,,,,,,,,267,f,23,2023_Mar_26_1701,RL,2021.2.3,59.99286086503693,
1,-0.3,-0.225,0,10,10,10,,,,,,,,,,,,,,,None,None,None,None,None,133.7502837999491,None,133.7502837999491,None,133.7502837999491,None,133.7502837999491,None,f,0.22446030005812645,133.7502837999491,None,133.7502837999491,None,134.01783419994172,None,134.01783419994172,None,134.01783419994172,None,134.01783419994172,None,134.01783419994172,None,134.01783419994172,None,134.3139014999615,None,134.3139014999615,None,136.02944199997,None,136.02944199997,None,136.02944199997,None,136.02944199997,None,136.02944199997,None,136.02944199997,None,136.02944199997,None,136.02944199997,None,136.02944199997,None,41,49,36,21,49,57,None,None,None,None,None,None,None,None,None,None,None,None,,None,None,,None,None,None,None,None,None,None,None,None,None,None,None,None,None,None,None,None,None,0.2,1,138.58096990000922,None,138.58096990000922,None,138.58096990000922,None,138.58096990000922,None,138.58096990000922,None,138.58096990000922,None,99,138.58096990000922,None,138.58096990000922,None,0.029947916666666668,-0.2721354166666667,1,0,0,8.400439699995331,tijiao_random_2,0.010600140085443854,None,138.58096990000922,None,6.9375,2.7122127000475302,147.01206410001032,None,147.01206410001032,None,147.01206410001032,None,147.01206410001032,None,None,None,149.751618099981,None,,,,,,,,,267,f,23,2023_Mar_26_1701,RL,2021.2.3,59.99286086503693,
0,0.3,0.225,0,11,11,11,,,,,,,,,,,,,,,None,None,None,None,None,151.37912209995557,None,151.37912209995557,None,151.37912209995557,None,151.37912209995557,None,f,0.235528799938038,151.37912209995557,None,151.37912209995557,None,151.66189170000143,None,151.66189170000143,None,151.66189170000143,None,151.66189170000143,None,151.66189170000143,None,151.66189170000143,None,151.9591623999877,None,151.9591623999877,None,153.90783369995188,None,153.90783369995188,None,153.90783369995188,None,153.90783369995188,None,153.90783369995188,None,153.90783369995188,None,153.90783369995188,None,153.90783369995188,None,153.90783369995188,None,45,60,36,21,60,45,156.43108370003756,None,7.0,1.8844256000593305,156.43108370003756,None,156.43108370003756,None,156.43108370003756,None,156.43108370003756,None,,None,None,,None,None,None,None,None,None,None,None,None,None,None,None,None,None,None,None,None,None,0.6,3,None,None,None,None,None,None,None,None,None,None,None,None,,None,None,None,None,,,,,,,,None,None,None,None,None,None,None,None,None,None,None,None,None,None,None,None,158.3685118999565,None,,,,,,,,,267,f,23,2023_Mar_26_1701,RL,2021.2.3,59.99286086503693,
1,-0.3,-0.225,0,12,12,12,,,,,,,,,,,,,,,None,None,None,None,None,160.3692582999356,None,160.3692582999356,None,160.3692582999356,None,160.3692582999356,None,f,0.28548579989001155,160.3692582999356,None,160.3692582999356,None,160.70777570002247,None,160.70777570002247,None,160.70777570002247,None,160.70777570002247,None,160.70777570002247,None,160.70777570002247,None,160.9987275999738,None,160.9987275999738,None,162.4020567999687,None,162.4020567999687,None,162.4020567999687,None,162.4020567999687,None,162.4020567999687,None,162.4020567999687,None,162.4020567999687,None,162.4020567999687,None,162.4020567999687,None,38,60,31,26,60,54,164.92171539994888,None,7.0,1.1986333000240847,164.92171539994888,None,164.92171539994888,None,164.92171539994888,None,164.92171539994888,None,,None,None,,None,None,None,None,None,None,None,None,None,None,None,None,None,None,None,None,None,None,-0.6,3,None,None,None,None,None,None,None,None,None,None,None,None,,None,None,None,None,,,,,,,,None,None,None,None,None,None,None,None,None,None,None,None,None,None,None,None,166.1730482999701,None,,,,,,,,,267,f,23,2023_Mar_26_1701,RL,2021.2.3,59.99286086503693,
0,0.3,0.225,0,13,13,13,,,,,,,,,,,,,,,None,None,None,None,None,168.15779389999807,None,168.15779389999807,None,168.15779389999807,None,168.15779389999807,None,f,0.24705360003281385,168.15779389999807,None,168.15779389999807,None,168.44667189999018,None,168.44667189999018,None,168.44667189999018,None,168.44667189999018,None,168.44667189999018,None,168.44667189999018,None,168.7208238999592,170.7056617999915,168.7208238999592,170.7056617999915,170.75473499996588,None,170.75473499996588,None,170.75473499996588,None,170.75473499996588,None,170.75473499996588,None,170.75473499996588,None,170.75473499996588,None,170.75473499996588,None,170.75473499996588,None,27,56,32,21,56,55,None,None,None,None,None,None,None,None,None,None,None,None,56,173.2854253000114,None,56,173.2854253000114,None,173.2854253000114,None,173.2854253000114,None,173.2854253000114,None,173.2854253000114,None,173.2854253000114,None,173.2854253000114,None,0.013256429927423596,None,173.2854253000114,None,0.6,0,None,None,None,None,None,None,None,None,None,None,None,None,,None,None,None,None,,,,,,,,None,None,None,None,8.877604166666668,2.0149013000773266,179.41888340003788,None,179.41888340003788,None,179.41888340003788,None,179.41888340003788,None,None,None,181.4459962999681,None,0.09114583333333333,-0.2903645833333333,1,0,0,6.085775200044736,tijiao,,267,f,23,2023_Mar_26_1701,RL,2021.2.3,59.99286086503693,
1,-0.3,-0.225,0,14,14,14,,,,,,,,,,,,,,,None,None,None,None,None,183.23474690003786,None,183.23474690003786,None,183.23474690003786,None,183.23474690003786,None,f,0.29015099990647286,183.23474690003786,None,183.23474690003786,None,183.5716955999378,None,183.5716955999378,None,183.5716955999378,None,183.5716955999378,None,183.5716955999378,None,183.5716955999378,None,183.86467169993557,None,183.86467169993557,None,185.37856260000262,None,185.37856260000262,None,185.37856260000262,None,185.37856260000262,None,185.37856260000262,None,185.37856260000262,None,185.37856260000262,None,185.37856260000262,None,185.37856260000262,None,32,51,33,29,51,22,None,None,None,None,None,None,None,None,None,None,None,None,,None,None,,None,None,None,None,None,None,None,None,None,None,None,None,None,None,None,None,None,None,0.2,1,187.93161219998728,None,187.93161219998728,None,187.93161219998728,None,187.93161219998728,None,187.93161219998728,None,187.93161219998728,None,87,187.93161219998728,None,187.93161219998728,None,0.12630208333333334,-0.28515625,1,0,0,6.332443700055592,tijiao_random_2,0.010133740026503801,None,187.93161219998728,None,4.815104166666667,3.889404800022021,194.29411509993952,None,194.29411509993952,None,194.29411509993952,None,194.29411509993952,None,None,None,198.20739080000203,None,,,,,,,,,267,f,23,2023_Mar_26_1701,RL,2021.2.3,59.99286086503693,
0,0.3,0.225,0,15,15,15,,,,,,,,,,,,,,,None,None,None,None,None,199.7463936000131,None,199.7463936000131,None,199.7463936000131,None,199.7463936000131,None,f,0.3086295999819413,199.7463936000131,None,199.7463936000131,None,200.0963617999805,None,200.0963617999805,None,200.0963617999805,None,200.0963617999805,None,200.0963617999805,None,200.0963617999805,None,200.39279149996582,None,200.39279149996582,None,201.64205509994645,None,201.64205509994645,None,201.64205509994645,None,201.64205509994645,None,201.64205509994645,None,201.64205509994645,None,201.64205509994645,None,201.64205509994645,None,201.64205509994645,None,40,57,38,21,57,50,None,None,None,None,None,None,None,None,None,None,None,None,,None,None,,None,None,None,None,None,None,None,None,None,None,None,None,None,None,None,None,None,None,0.2,1,204.19333000003826,None,204.19333000003826,None,204.19333000003826,None,204.19333000003826,None,204.19333000003826,None,204.19333000003826,None,67,204.19333000003826,None,204.19333000003826,None,0.029947916666666668,-0.2760416666666667,1,0,0,6.348617600044236,tijiao_random_2,0.010300140012986958,None,204.19333000003826,None,3.890625,2.033807500032708,210.57544619997498,None,210.57544619997498,None,210.57544619997498,None,210.57544619997498,None,None,None,212.63370210002176,None,,,,,,,,,267,f,23,2023_Mar_26_1701,RL,2021.2.3,59.99286086503693,
1,-0.3,-0.225,0,16,16,16,,,,,,,,,,,,,,,None,None,None,None,None,214.58917669998482,None,214.58917669998482,None,214.58917669998482,None,214.58917669998482,None,i,0.19596799998544157,214.58917669998482,None,214.58917669998482,None,214.82427109999117,None,214.82427109999117,None,214.82427109999117,None,214.82427109999117,None,214.82427109999117,None,214.82427109999117,None,215.1199177999515,None,215.1199177999515,None,216.419706900022,None,216.419706900022,None,216.419706900022,None,216.419706900022,None,216.419706900022,None,216.419706900022,None,216.419706900022,None,216.419706900022,None,216.419706900022,None,42,58,30,23,30,25,None,None,None,None,None,None,None,None,None,None,None,None,30,218.94981729995925,None,30,218.94981729995925,None,218.94981729995925,None,218.94981729995925,None,218.94981729995925,None,218.94981729995925,None,218.94981729995925,None,218.94981729995925,None,0.013952829991467297,None,218.94981729995925,None,-0.2,0,None,None,None,None,None,None,None,None,None,None,None,None,,None,None,None,None,,,,,,,,None,None,None,None,6.911458333333334,1.7948690000921488,224.83524109993596,None,224.83524109993596,None,224.83524109993596,None,224.83524109993596,None,None,None,226.6436891000485,None,0.026041666666666668,-0.28125,1,0,0,5.835403400007635,tijiao,,267,f,23,2023_Mar_26_1701,RL,2021.2.3,59.99286086503693,
0,0.3,0.225,0,17,17,17,,,,,,,,,,,,,,,None,None,None,None,None,228.199313399964,None,228.199313399964,None,228.199313399964,None,228.199313399964,None,i,0.5961164000909775,228.199313399964,None,228.199313399964,None,228.83567810000386,None,228.83567810000386,None,228.83567810000386,None,228.83567810000386,None,228.83567810000386,None,228.83567810000386,None,229.1294888999546,230.38034349994268,229.1294888999546,230.38034349994268,230.4115385999903,None,230.4115385999903,None,230.4115385999903,None,230.4115385999903,None,230.4115385999903,None,230.4115385999903,None,230.4115385999903,None,230.4115385999903,None,230.4115385999903,None,40,49,24,32,24,47,232.93437369994354,None,1.0,1.7667266000062227,232.93437369994354,None,232.93437369994354,None,232.93437369994354,None,232.93437369994354,None,,None,None,,None,None,None,None,None,None,None,None,None,None,None,None,None,None,None,None,None,None,-0.6,3,None,None,None,None,None,None,None,None,None,None,None,None,,None,None,None,None,,,,,,,,None,None,None,None,None,None,None,None,None,None,None,None,None,None,None,None,234.75458519998938,None,,,,,,,,,267,f,23,2023_Mar_26_1701,RL,2021.2.3,59.99286086503693,
1,-0.3,-0.225,0,18,18,18,,,,,,,,,,,,,,,None,None,None,None,None,236.2882966999896,None,236.2882966999896,None,236.2882966999896,None,236.2882966999896,None,f,0.398126499960199,236.2882966999896,None,236.2882966999896,None,236.7242244000081,None,236.7242244000081,None,236.7242244000081,None,236.7242244000081,None,236.7242244000081,None,236.7242244000081,None,237.0181797000114,None,237.0181797000114,None,237.89994809997734,None,237.89994809997734,None,237.89994809997734,None,237.89994809997734,None,237.89994809997734,None,237.89994809997734,None,237.89994809997734,None,237.89994809997734,None,237.89994809997734,None,40,55,23,35,55,40,None,None,None,None,None,None,None,None,None,None,None,None,55,240.42981590004638,None,55,240.42981590004638,None,240.42981590004638,None,240.42981590004638,None,240.42981590004638,None,240.42981590004638,None,240.42981590004638,None,240.42981590004638,None,0.01615683001000434,None,240.42981590004638,None,0.2,0,None,None,None,None,None,None,None,None,None,None,None,None,,None,None,None,None,,,,,,,,None,None,None,None,7.940104166666666,1.8323449000017717,245.51498239999637,None,245.51498239999637,None,245.51498239999637,None,245.51498239999637,None,None,None,247.35798550001346,None,-0.08854166666666667,-0.2890625,1,0,0,5.037416500039399,tijiao,,267,f,23,2023_Mar_26_1701,RL,2021.2.3,59.99286086503693,
0,0.3,0.225,0,19,19,19,,,,,,,,,,,,,,,None,None,None,None,None,248.91371500003152,None,248.91371500003152,None,248.91371500003152,None,248.91371500003152,None,f,0.3228514000074938,248.91371500003152,None,248.91371500003152,None,249.28574870002922,None,249.28574870002922,None,249.28574870002922,None,249.28574870002922,None,249.28574870002922,None,249.28574870002922,None,249.57723439997062,None,249.57723439997062,None,251.5945274999831,None,251.5945274999831,None,251.5945274999831,None,251.5945274999831,None,251.5945274999831,None,251.5945274999831,None,251.5945274999831,None,251.5945274999831,None,251.5945274999831,None,42,50,24,14,50,57,254.11575939995237,None,1.0,2.003726499970071,254.11575939995237,None,254.11575939995237,None,254.11575939995237,None,254.11575939995237,None,,None,None,,None,None,None,None,None,None,None,None,None,None,None,None,None,None,None,None,None,None,-0.6,2,None,None,None,None,None,None,None,None,None,None,None,None,,None,None,None,None,,,,,,,,None,None,None,None,None,None,None,None,None,None,None,None,None,None,None,None,256.1853830999462,None,,,,,,,,,267,f,23,2023_Mar_26_1701,RL,2021.2.3,59.99286086503693,
1,-0.3,-0.225,0,20,20,20,,,,,,,,,,,,,,,None,None,None,None,None,257.92023970000446,None,257.92023970000446,None,257.92023970000446,None,257.92023970000446,None,r,0.41625110001768917,257.92023970000446,None,257.92023970000446,None,258.3947371999966,None,258.3947371999966,None,258.3947371999966,None,258.3947371999966,None,258.3947371999966,None,258.3947371999966,None,258.6835351999616,259.56713189999573,258.6835351999616,259.56713189999573,259.60141470003873,None,259.60141470003873,None,259.60141470003873,None,259.60141470003873,None,259.60141470003873,None,259.60141470003873,None,259.60141470003873,None,259.60141470003873,None,259.60141470003873,None,37,44,23,18,37,53,None,None,None,None,None,None,None,None,None,None,None,None,40,262.1344705999363,None,40,262.1344705999363,None,262.1344705999363,None,262.1344705999363,None,262.1344705999363,None,262.1344705999363,None,262.1344705999363,None,262.1344705999363,None,0.009606229956261814,None,262.1344705999363,None,0.6,0,None,None,None,None,None,None,None,None,None,None,None,None,,None,None,None,None,,,,,,,,None,None,None,None,4.059895833333334,2.8146645999513566,270.24998379999306,None,270.24998379999306,None,270.24998379999306,None,270.24998379999306,None,None,None,273.0981907999376,None,-0.010416666666666666,-0.2838541666666667,1,0,0,8.066385000012815,tijiao,,267,f,23,2023_Mar_26_1701,RL,2021.2.3,59.99286086503693,
0,0.3,0.225,0,21,21,21,,,,,,,,,,,,,,,None,None,None,None,None,274.8672009999864,None,274.8672009999864,None,274.8672009999864,None,274.8672009999864,None,i,0.40961590001825243,274.8672009999864,None,274.8672009999864,None,275.3198532999959,None,275.3198532999959,None,275.3198532999959,None,275.3198532999959,None,275.3198532999959,None,275.3198532999959,None,275.59504739998374,277.1627090999391,275.59504739998374,277.1627090999391,277.200542400009,None,277.200542400009,None,277.200542400009,None,277.200542400009,None,277.200542400009,None,277.200542400009,None,277.200542400009,None,277.200542400009,None,277.200542400009,None,52,50,31,30,31,63,279.7118041999638,None,1.0,2.207250399980694,279.7118041999638,None,279.7118041999638,None,279.7118041999638,None,279.7118041999638,None,,None,None,,None,None,None,None,None,None,None,None,None,None,None,None,None,None,None,None,None,None,-0.6,3,None,None,None,None,None,None,None,None,None,None,None,None,,None,None,None,None,,,,,,,,None,None,None,None,None,None,None,None,None,None,None,None,None,None,None,None,281.97561960003804,None,,,,,,,,,267,f,23,2023_Mar_26_1701,RL,2021.2.3,59.99286086503693,
1,-0.3,-0.225,0,22,22,22,,,,,,,,,,,,,,,None,None,None,None,None,283.53811279998627,None,283.53811279998627,None,283.53811279998627,None,283.53811279998627,None,j,0.30866870004683733,283.53811279998627,None,283.53811279998627,None,283.89128179999534,None,283.89128179999534,None,283.89128179999534,None,283.89128179999534,None,283.89128179999534,None,283.89128179999534,None,284.18454099993687,285.835337699973,284.18454099993687,285.835337699973,285.86584740004037,None,285.86584740004037,None,285.86584740004037,None,285.86584740004037,None,285.86584740004037,None,285.86584740004037,None,285.86584740004037,None,285.86584740004037,None,285.86584740004037,None,46,49,23,28,28,68,None,None,None,None,None,None,None,None,None,None,None,None,25,288.4040961000137,None,25,288.4040961000137,None,288.4040961000137,None,288.4040961000137,None,288.4040961000137,None,288.4040961000137,None,288.4040961000137,None,288.4040961000137,None,0.008365329937078059,None,288.4040961000137,None,-0.6,0,None,None,None,None,None,None,None,None,None,None,None,None,,None,None,None,None,,,,,,,,None,None,None,None,7.940104166666666,2.720796100096777,294.43140560004395,None,294.43140560004395,None,294.43140560004395,None,294.43140560004395,None,None,None,297.17503729998134,None,-0.005208333333333333,-0.2565104166666667,1,0,0,5.980858700000681,tijiao,,267,f,23,2023_Mar_26_1701,RL,2021.2.3,59.99286086503693,
0,0.3,0.225,0,23,23,23,,,,,,,,,,,,,,,None,None,None,None,None,299.14922589994967,None,299.14922589994967,None,299.14922589994967,None,299.14922589994967,None,i,0.29741280002053827,299.14922589994967,None,299.14922589994967,None,299.484964299947,None,299.484964299947,None,299.484964299947,None,299.484964299947,None,299.484964299947,None,299.484964299947,None,299.7784408000298,None,299.7784408000298,None,301.76477599993814,None,301.76477599993814,None,301.76477599993814,None,301.76477599993814,None,301.76477599993814,None,301.76477599993814,None,301.76477599993814,None,301.76477599993814,None,301.76477599993814,None,49,60,25,19,25,61,304.27870789996814,None,1.0,2.055971599998884,304.27870789996814,None,304.27870789996814,None,304.27870789996814,None,304.27870789996814,None,,None,None,,None,None,None,None,None,None,None,None,None,None,None,None,None,None,None,None,None,None,-0.2,2,None,None,None,None,None,None,None,None,None,None,None,None,,None,None,None,None,,,,,,,,None,None,None,None,None,None,None,None,None,None,None,None,None,None,None,None,306.4123813000042,None,,,,,,,,,267,f,23,2023_Mar_26_1701,RL,2021.2.3,59.99286086503693,
1,-0.3,-0.225,0,24,24,24,,,,,,,,,,,,,,,None,None,None,None,None,308.3547833999619,None,308.3547833999619,None,308.3547833999619,None,308.3547833999619,None,j,0.43195900006685406,308.3547833999619,None,308.3547833999619,None,308.82502660003956,None,308.82502660003956,None,308.82502660003956,None,308.82502660003956,None,308.82502660003956,None,308.82502660003956,None,309.1183115999447,None,309.1183115999447,None,310.3850255999714,None,310.3850255999714,None,310.3850255999714,None,310.3850255999714,None,310.3850255999714,None,310.3850255999714,None,310.3850255999714,None,310.3850255999714,None,310.3850255999714,None,43,56,21,33,33,51,None,None,None,None,None,None,None,None,None,None,None,None,,None,None,,None,None,None,None,None,None,None,None,None,None,None,None,None,None,None,None,None,None,-0.6,1,312.934900799999,None,312.934900799999,None,312.934900799999,None,312.934900799999,None,312.934900799999,None,312.934900799999,None,67,312.934900799999,None,312.934900799999,None,0.02734375,-0.2955729166666667,1,0,0,6.265915700001642,tijiao_random_2,0.010872240061871707,None,312.934900799999,None,3.942708333333334,1.8614807999692857,319.23287349997554,None,319.23287349997554,None,319.23287349997554,None,319.23287349997554,None,None,None,321.1092292999383,None,,,,,,,,,267,f,23,2023_Mar_26_1701,RL,2021.2.3,59.99286086503693,
0,0.3,0.225,0,25,25,25,,,,,,,,,,,,,,,None,None,None,None,None,322.64796339999884,None,322.64796339999884,None,322.64796339999884,None,322.64796339999884,None,j,0.22880619997158647,322.64796339999884,None,322.64796339999884,None,322.92293360002805,None,322.92293360002805,None,322.92293360002805,None,322.92293360002805,None,322.92293360002805,None,322.92293360002805,None,323.2115567999426,None,323.2115567999426,None,324.6127873000223,None,324.6127873000223,None,324.6127873000223,None,324.6127873000223,None,324.6127873000223,None,324.6127873000223,None,324.6127873000223,None,324.6127873000223,None,324.6127873000223,None,35,57,27,25,25,62,327.1289445000002,None,1.0,2.37070870003663,327.1289445000002,None,327.1289445000002,None,327.1289445000002,None,327.1289445000002,None,,None,None,,None,None,None,None,None,None,None,None,None,None,None,None,None,None,None,None,None,None,0.6,2,None,None,None,None,None,None,None,None,None,None,None,None,,None,None,None,None,,,,,,,,None,None,None,None,None,None,None,None,None,None,None,None,None,None,None,None,329.55695839994587,None,,,,,,,,,267,f,23,2023_Mar_26_1701,RL,2021.2.3,59.99286086503693,
1,-0.3,-0.225,0,26,26,26,,,,,,,,,,,,,,,None,None,None,None,None,331.3879213000182,None,331.3879213000182,None,331.3879213000182,None,331.3879213000182,None,i,0.3089731999207288,331.3879213000182,None,331.3879213000182,None,331.7441899999976,None,331.7441899999976,None,331.7441899999976,None,331.7441899999976,None,331.7441899999976,None,331.7441899999976,None,332.03448889998253,None,332.03448889998253,None,332.9002453000285,None,332.9002453000285,None,332.9002453000285,None,332.9002453000285,None,332.9002453000285,None,332.9002453000285,None,332.9002453000285,None,332.9002453000285,None,332.9002453000285,None,39,53,27,29,27,40,None,None,None,None,None,None,None,None,None,None,None,None,,None,None,,None,None,None,None,None,None,None,None,None,None,None,None,None,None,None,None,None,None,-0.6,1,335.4459586000303,None,335.4459586000303,None,335.4459586000303,None,335.4459586000303,None,335.4459586000303,None,335.4459586000303,None,65,335.4459586000303,None,335.4459586000303,None,-0.009114583333333334,-0.296875,1,0,0,6.371342199970968,tijiao_random_2,0.015662640100345016,None,335.4459586000303,None,3.916666666666666,3.1281065000221133,341.8508044000482,None,341.8508044000482,None,341.8508044000482,None,341.8508044000482,None,None,None,344.99249910004437,None,,,,,,,,,267,f,23,2023_Mar_26_1701,RL,2021.2.3,59.99286086503693,
0,0.3,0.225,0,27,27,27,,,,,,,,,,,,,,,None,None,None,None,None,346.6159236000385,None,346.6159236000385,None,346.6159236000385,None,346.6159236000385,None,r,0.24112589994911104,346.6159236000385,None,346.6159236000385,None,346.89926580002066,None,346.89926580002066,None,346.89926580002066,None,346.89926580002066,None,346.89926580002066,None,346.89926580002066,None,347.1948775999481,348.7127697999822,347.1948775999481,348.7127697999822,348.74361060000956,None,348.74361060000956,None,348.74361060000956,None,348.74361060000956,None,348.74361060000956,None,348.74361060000956,None,348.74361060000956,None,348.74361060000956,None,348.74361060000956,None,47,58,27,32,47,38,351.261711500003,None,7.0,4.023948299931362,351.261711500003,None,351.261711500003,None,351.261711500003,None,351.261711500003,None,,None,None,,None,None,None,None,None,None,None,None,None,None,None,None,None,None,None,None,None,None,-0.6,3,None,None,None,None,None,None,None,None,None,None,None,None,,None,None,None,None,,,,,,,,None,None,None,None,None,None,None,None,None,None,None,None,None,None,None,None,355.33996390004177,None,,,,,,,,,267,f,23,2023_Mar_26_1701,RL,2021.2.3,59.99286086503693,
1,-0.3,-0.225,0,28,28,28,,,,,,,,,,,,,,,None,None,None,None,None,357.17258739995304,None,357.17258739995304,None,357.17258739995304,None,357.17258739995304,None,f,0.43447860004380345,357.17258739995304,None,357.17258739995304,None,357.6634408000391,None,357.6634408000391,None,357.6634408000391,None,357.6634408000391,None,357.6634408000391,None,357.6634408000391,None,357.95224390004296,359.186395799974,357.95224390004296,359.186395799974,359.21882780001033,None,359.21882780001033,None,359.21882780001033,None,359.21882780001033,None,359.21882780001033,None,359.21882780001033,None,359.21882780001033,None,359.21882780001033,None,359.21882780001033,None,39,68,23,34,68,61,361.73697009996977,None,7.0,2.0886916000163183,361.73697009996977,None,361.73697009996977,None,361.73697009996977,None,361.73697009996977,None,,None,None,,None,None,None,None,None,None,None,None,None,None,None,None,None,None,None,None,None,None,-0.2,3,None,None,None,None,None,None,None,None,None,None,None,None,,None,None,None,None,,,,,,,,None,None,None,None,None,None,None,None,None,None,None,None,None,None,None,None,363.8842847000342,None,,,,,,,,,267,f,23,2023_Mar_26_1701,RL,2021.2.3,59.99286086503693,
0,0.3,0.225,0,29,29,29,,,,,,,,,,,,,,,None,None,None,None,None,365.57770010002423,None,365.57770010002423,None,365.57770010002423,None,365.57770010002423,None,f,0.2594467999879271,365.57770010002423,None,365.57770010002423,None,365.8807186000049,None,365.8807186000049,None,365.8807186000049,None,365.8807186000049,None,365.8807186000049,None,365.8807186000049,None,366.17466959997546,367.55893069994636,366.17466959997546,367.55893069994636,367.5913811000064,None,367.5913811000064,None,367.5913811000064,None,367.5913811000064,None,367.5913811000064,None,367.5913811000064,None,367.5913811000064,None,367.5913811000064,None,367.5913811000064,None,47,54,32,26,54,51,None,None,None,None,None,None,None,None,None,None,None,None,,None,None,,None,None,None,None,None,None,None,None,None,None,None,None,None,None,None,None,None,None,-0.6,1,370.1419295000378,None,370.1419295000378,None,370.1419295000378,None,370.1419295000378,None,370.1419295000378,None,370.1419295000378,None,98,370.1419295000378,None,370.1419295000378,None,0.028645833333333332,-0.2708333333333333,1,0,0,5.531537000089884,tijiao_random_2,0.010375840007327497,None,370.1419295000378,None,8.942708333333332,1.714339799946174,375.7069579999661,None,375.7069579999661,None,375.7069579999661,None,375.7069579999661,None,None,None,377.44565100001637,None,,,,,,,,,267,f,23,2023_Mar_26_1701,RL,2021.2.3,59.99286086503693,
1,-0.3,-0.225,0,30,30,30,,,,,,,,,,,,,,,None,None,None,None,None,379.1713555000024,None,379.1713555000024,None,379.1713555000024,None,379.1713555000024,None,r,0.26575439993757755,379.1713555000024,None,379.1713555000024,None,379.489300700021,None,379.489300700021,None,379.489300700021,None,379.489300700021,None,379.489300700021,None,379.489300700021,None,379.78400989994407,None,379.78400989994407,None,381.43282210000325,None,381.43282210000325,None,381.43282210000325,None,381.43282210000325,None,381.43282210000325,None,381.43282210000325,None,381.43282210000325,None,381.43282210000325,None,381.43282210000325,None,53,60,36,33,53,46,None,None,None,None,None,None,None,None,None,None,None,None,,None,None,,None,None,None,None,None,None,None,None,None,None,None,None,None,None,None,None,None,None,-0.6,1,383.98458309995476,None,383.98458309995476,None,383.98458309995476,None,383.98458309995476,None,383.98458309995476,None,383.98458309995476,None,89,383.98458309995476,None,383.98458309995476,None,0.08854166666666667,-0.30078125,1,0,0,5.647669399972074,tijiao_random_2,0.009856340009719133,None,383.98458309995476,None,7.9921875,2.442876600078307,389.6667920999462,None,389.6667920999462,None,389.6667920999462,None,389.6667920999462,None,None,None,392.1254787000362,None,,,,,,,,,267,f,23,2023_Mar_26_1701,RL,2021.2.3,59.99286086503693,
0,0.3,0.225,0,31,31,31,,,,,,,,,,,,,,,None,None,None,None,None,393.7811465000268,None,393.7811465000268,None,393.7811465000268,None,393.7811465000268,None,f,0.2876021999400109,393.7811465000268,None,393.7811465000268,None,394.11481950001325,None,394.11481950001325,None,394.11481950001325,None,394.11481950001325,None,394.11481950001325,None,394.11481950001325,None,394.41099959996063,None,394.41099959996063,None,395.6588481999934,None,395.6588481999934,None,395.6588481999934,None,395.6588481999934,None,395.6588481999934,None,395.6588481999934,None,395.6588481999934,None,395.6588481999934,None,395.6588481999934,None,60,62,29,30,62,57,None,None,None,None,None,None,None,None,None,None,None,None,66,398.18957799999043,None,66,398.18957799999043,None,398.18957799999043,None,398.18957799999043,None,398.18957799999043,None,398.18957799999043,None,398.18957799999043,None,398.18957799999043,None,0.01595112995710224,None,398.18957799999043,None,0.6,0,None,None,None,None,None,None,None,None,None,None,None,None,,None,None,None,None,,,,,,,,None,None,None,None,6.052083333333334,2.6314908999484032,403.5412337000016,None,403.5412337000016,None,403.5412337000016,None,403.5412337000016,None,None,None,406.1849869999569,None,-0.03515625,-0.2513020833333333,1,0,0,5.303432099986821,tijiao,,267,f,23,2023_Mar_26_1701,RL,2021.2.3,59.99286086503693,
1,-0.3,-0.225,0,32,32,32,,,,,,,,,,,,,,,None,None,None,None,None,407.80768450000323,None,407.80768450000323,None,407.80768450000323,None,407.80768450000323,None,j,0.3407325000735,407.80768450000323,None,407.80768450000323,None,408.19317660003435,None,408.19317660003435,None,408.19317660003435,None,408.19317660003435,None,408.19317660003435,None,408.19317660003435,None,408.4873768000398,None,408.4873768000398,None,409.40196950000245,None,409.40196950000245,None,409.40196950000245,None,409.40196950000245,None,409.40196950000245,None,409.40196950000245,None,409.40196950000245,None,409.40196950000245,None,409.40196950000245,None,46,63,46,37,37,35,None,None,None,None,None,None,None,None,None,None,None,None,,None,None,,None,None,None,None,None,None,None,None,None,None,None,None,None,None,None,None,None,None,-0.2,1,411.95222139998805,None,411.95222139998805,None,411.95222139998805,None,411.95222139998805,None,411.95222139998805,None,411.95222139998805,None,87,411.95222139998805,None,411.95222139998805,None,0.0026041666666666665,-0.265625,1,0,0,8.452518200036138,tijiao_random_2,0.012764240032993257,None,411.95222139998805,None,6.885416666666666,2.0146900000981987,420.43356849998236,None,420.43356849998236,None,420.43356849998236,None,420.43356849998236,None,None,None,422.4631561000133,None,,,,,,,,,267,f,23,2023_Mar_26_1701,RL,2021.2.3,59.99286086503693,
0,0.3,0.225,0,33,33,33,,,,,,,,,,,,,,,None,None,None,None,None,424.28458979993593,None,424.28458979993593,None,424.28458979993593,None,424.28458979993593,None,f,0.25394610001239926,424.28458979993593,None,424.28458979993593,None,424.5873891999945,None,424.5873891999945,None,424.5873891999945,None,424.5873891999945,None,424.5873891999945,None,424.5873891999945,None,424.882362299948,None,424.882362299948,None,426.2139422999462,None,426.2139422999462,None,426.2139422999462,None,426.2139422999462,None,426.2139422999462,None,426.2139422999462,None,426.2139422999462,None,426.2139422999462,None,426.2139422999462,None,48,54,42,37,54,65,None,None,None,None,None,None,None,None,None,None,None,None,50,428.75170130003244,None,50,428.75170130003244,None,428.75170130003244,None,428.75170130003244,None,428.75170130003244,None,428.75170130003244,None,428.75170130003244,None,428.75170130003244,None,0.008390730014070868,None,428.75170130003244,None,-0.2,0,None,None,None,None,None,None,None,None,None,None,None,None,,None,None,None,None,,,,,,,,None,None,None,None,5.0625,3.6348084999481216,434.14061010000296,None,434.14061010000296,None,434.14061010000296,None,434.14061010000296,None,None,None,437.79037019994576,None,0.14713541666666666,-0.29296875,1,0,0,5.345638300059363,tijiao,,267,f,23,2023_Mar_26_1701,RL,2021.2.3,59.99286086503693,
1,-0.3,-0.225,0,34,34,34,,,,,,,,,,,,,,,None,None,None,None,None,439.5462860999396,None,439.5462860999396,None,439.5462860999396,None,439.5462860999396,None,f,0.33235060004517436,439.5462860999396,None,439.5462860999396,None,439.93212949996814,None,439.93212949996814,None,439.93212949996814,None,439.93212949996814,None,439.93212949996814,None,439.93212949996814,None,440.2262341999449,None,440.2262341999449,None,441.99020709993783,None,441.99020709993783,None,441.99020709993783,None,441.99020709993783,None,441.99020709993783,None,441.99020709993783,None,441.99020709993783,None,441.99020709993783,None,441.99020709993783,None,48,56,50,30,56,64,444.51030860003084,None,2.0,2.02284360001795,444.51030860003084,None,444.51030860003084,None,444.51030860003084,None,444.51030860003084,None,,None,None,,None,None,None,None,None,None,None,None,None,None,None,None,None,None,None,None,None,None,-0.6,2,None,None,None,None,None,None,None,None,None,None,None,None,,None,None,None,None,,,,,,,,None,None,None,None,None,None,None,None,None,None,None,None,None,None,None,None,446.58811529993545,None,,,,,,,,,267,f,23,2023_Mar_26_1701,RL,2021.2.3,59.99286086503693,
0,0.3,0.225,0,35,35,35,,,,,,,,,,,,,,,None,None,None,None,None,448.45233390002977,None,448.45233390002977,None,448.45233390002977,None,448.45233390002977,None,f,0.9363464000634849,448.45233390002977,None,448.45233390002977,None,449.4375700999517,None,449.4375700999517,None,449.4375700999517,None,449.4375700999517,None,449.4375700999517,None,449.4375700999517,None,449.73269500001334,None,449.73269500001334,None,450.8484025000362,None,450.8484025000362,None,450.8484025000362,None,450.8484025000362,None,450.8484025000362,None,450.8484025000362,None,450.8484025000362,None,450.8484025000362,None,450.8484025000362,None,53,63,42,39,63,60,None,None,None,None,None,None,None,None,None,None,None,None,,None,None,,None,None,None,None,None,None,None,None,None,None,None,None,None,None,None,None,None,None,-0.2,1,453.39290690002963,None,453.39290690002963,None,453.39290690002963,None,453.39290690002963,None,453.39290690002963,None,453.39290690002963,None,99,453.39290690002963,None,453.39290690002963,None,0.033854166666666664,-0.296875,1,0,0,8.223660900024697,tijiao_random_2,0.016653940081596375,None,453.39290690002963,None,1.859375,3.2032536999322474,465.75366940000094,None,465.75366940000094,None,465.75366940000094,None,465.75366940000094,None,None,None,468.9800185000058,None,,,,,,,,,267,f,23,2023_Mar_26_1701,RL,2021.2.3,59.99286086503693,
1,-0.3,-0.225,0,36,36,36,,,,,,,,,,,,,,,None,None,None,None,None,470.66855750000104,None,470.66855750000104,None,470.66855750000104,None,470.66855750000104,None,r,0.28055060002952814,470.66855750000104,None,470.66855750000104,None,471.0014764999505,None,471.0014764999505,None,471.0014764999505,None,471.0014764999505,None,471.0014764999505,None,471.0014764999505,None,471.2976197999669,None,471.2976197999669,None,473.0133477000054,None,473.0133477000054,None,473.0133477000054,None,473.0133477000054,None,473.0133477000054,None,473.0133477000054,None,473.0133477000054,None,473.0133477000054,None,473.0133477000054,None,45,67,51,38,45,43,475.53106119995937,None,5.0,2.789303000085056,475.53106119995937,None,475.53106119995937,None,475.53106119995937,None,475.53106119995937,None,,None,None,,None,None,None,None,None,None,None,None,None,None,None,None,None,None,None,None,None,None,0.6,2,None,None,None,None,None,None,None,None,None,None,None,None,,None,None,None,None,,,,,,,,None,None,None,None,None,None,None,None,None,None,None,None,None,None,None,None,478.37526590004563,None,,,,,,,,,267,f,23,2023_Mar_26_1701,RL,2021.2.3,59.99286086503693,
0,0.3,0.225,0,37,37,37,,,,,,,,,,,,,,,None,None,None,None,None,479.95700269995723,None,479.95700269995723,None,479.95700269995723,None,479.95700269995723,None,j,0.26250380009878427,479.95700269995723,None,479.95700269995723,None,480.26132559997495,None,480.26132559997495,None,480.26132559997495,None,480.26132559997495,None,480.26132559997495,None,480.26132559997495,None,480.55408249993343,None,480.55408249993343,None,482.5376429000171,None,482.5376429000171,None,482.5376429000171,None,482.5376429000171,None,482.5376429000171,None,482.5376429000171,None,482.5376429000171,None,482.5376429000171,None,482.5376429000171,None,55,64,43,46,46,46,485.0595419999445,None,4.0,2.102475200081244,485.0595419999445,None,485.0595419999445,None,485.0595419999445,None,485.0595419999445,None,,None,None,,None,None,None,None,None,None,None,None,None,None,None,None,None,None,None,None,None,None,0.6,2,None,None,None,None,None,None,None,None,None,None,None,None,,None,None,None,None,,,,,,,,None,None,None,None,None,None,None,None,None,None,None,None,None,None,None,None,487.2170332999667,None,,,,,,,,,267,f,23,2023_Mar_26_1701,RL,2021.2.3,59.99286086503693,
1,-0.3,-0.225,0,38,38,38,,,,,,,,,,,,,,,None,None,None,None,None,488.96338410000317,None,488.96338410000317,None,488.96338410000317,None,488.96338410000317,None,i,0.2556032999418676,488.96338410000317,None,488.96338410000317,None,489.26785219996236,None,489.26785219996236,None,489.26785219996236,None,489.26785219996236,None,489.26785219996236,None,489.26785219996236,None,489.56013200001325,None,489.56013200001325,None,490.8404930999968,None,490.8404930999968,None,490.8404930999968,None,490.8404930999968,None,490.8404930999968,None,490.8404930999968,None,490.8404930999968,None,490.8404930999968,None,490.8404930999968,None,60,59,48,44,48,53,493.36075390002225,None,1.0,1.6869192000012845,493.36075390002225,None,493.36075390002225,None,493.36075390002225,None,493.36075390002225,None,,None,None,,None,None,None,None,None,None,None,None,None,None,None,None,None,None,None,None,None,None,0.2,2,None,None,None,None,None,None,None,None,None,None,None,None,,None,None,None,None,,,,,,,,None,None,None,None,None,None,None,None,None,None,None,None,None,None,None,None,495.10174319997896,None,,,,,,,,,267,f,23,2023_Mar_26_1701,RL,2021.2.3,59.99286086503693,
0,0.3,0.225,0,39,39,39,,,,,,,,,,,,,,,None,None,None,None,None,496.6355472999858,None,496.6355472999858,None,496.6355472999858,None,496.6355472999858,None,f,0.22357999999076128,496.6355472999858,None,496.6355472999858,None,496.9061971999472,None,496.9061971999472,None,496.9061971999472,None,496.9061971999472,None,496.9061971999472,None,496.9061971999472,None,497.19922039995436,498.3666653999826,497.19922039995436,498.3666653999826,498.39930819999427,None,498.39930819999427,None,498.39930819999427,None,498.39930819999427,None,498.39930819999427,None,498.39930819999427,None,498.39930819999427,None,498.39930819999427,None,498.39930819999427,None,55,55,52,48,55,40,500.9151742999675,None,6.0,4.0910568999825045,500.9151742999675,None,500.9151742999675,None,500.9151742999675,None,500.9151742999675,None,,None,None,,None,None,None,None,None,None,None,None,None,None,None,None,None,None,None,None,None,None,0.6,3,None,None,None,None,None,None,None,None,None,None,None,None,,None,None,None,None,,,,,,,,None,None,None,None,None,None,None,None,None,None,None,None,None,None,None,None,505.0593987000175,None,,,,,,,,,267,f,23,2023_Mar_26_1701,RL,2021.2.3,59.99286086503693,
1,-0.3,-0.225,0,40,40,40,,,,,,,,,,,,,,,None,None,None,None,None,506.809911099961,None,506.809911099961,None,506.809911099961,None,506.809911099961,None,f,0.23942300002090633,506.809911099961,None,506.809911099961,None,507.0936055999482,None,507.0936055999482,None,507.0936055999482,None,507.0936055999482,None,507.0936055999482,None,507.0936055999482,None,507.3892377000302,None,507.3892377000302,None,508.92488770000637,None,508.92488770000637,None,508.92488770000637,None,508.92488770000637,None,508.92488770000637,None,508.92488770000637,None,508.92488770000637,None,508.92488770000637,None,508.92488770000637,None,53,62,53,49,62,59,511.44040019996464,None,6.0,2.6243306000251323,511.44040019996464,None,511.44040019996464,None,511.44040019996464,None,511.44040019996464,None,,None,None,,None,None,None,None,None,None,None,None,None,None,None,None,None,None,None,None,None,None,-0.6,2,None,None,None,None,None,None,None,None,None,None,None,None,,None,None,None,None,,,,,,,,None,None,None,None,None,None,None,None,None,None,None,None,None,None,None,None,514.1231133999536,None,,,,,,,,,267,f,23,2023_Mar_26_1701,RL,2021.2.3,59.99286086503693,
0,0.3,0.225,0,41,41,41,,,,,,,,,,,,,,,None,None,None,None,None,515.6653838000493,None,515.6653838000493,None,515.6653838000493,None,515.6653838000493,None,r,0.21395400003530085,515.6653838000493,None,515.6653838000493,None,515.9181973999366,None,515.9181973999366,None,515.9181973999366,None,515.9181973999366,None,515.9181973999366,None,515.9181973999366,None,516.2120431000367,517.4129972000374,516.2120431000367,517.4129972000374,517.447201599949,None,517.447201599949,None,517.447201599949,None,517.447201599949,None,517.447201599949,None,517.447201599949,None,517.447201599949,None,517.447201599949,None,517.447201599949,None,47,60,55,44,47,62,519.9678313999902,None,1.0,1.9012348999967799,519.9678313999902,None,519.9678313999902,None,519.9678313999902,None,519.9678313999902,None,,None,None,,None,None,None,None,None,None,None,None,None,None,None,None,None,None,None,None,None,None,-0.6,3,None,None,None,None,None,None,None,None,None,None,None,None,,None,None,None,None,,,,,,,,None,None,None,None,None,None,None,None,None,None,None,None,None,None,None,None,521.9216841999441,None,,,,,,,,,267,f,23,2023_Mar_26_1701,RL,2021.2.3,59.99286086503693,
1,-0.3,-0.225,0,42,42,42,,,,,,,,,,,,,,,None,None,None,None,None,523.8376789999893,None,523.8376789999893,None,523.8376789999893,None,523.8376789999893,None,i,0.44159629999194294,523.8376789999893,None,523.8376789999893,None,524.3228712000418,None,524.3228712000418,None,524.3228712000418,None,524.3228712000418,None,524.3228712000418,None,524.3228712000418,None,524.6178462000098,None,524.6178462000098,None,525.515460500028,None,525.515460500028,None,525.515460500028,None,525.515460500028,None,525.515460500028,None,525.515460500028,None,525.515460500028,None,525.515460500028,None,525.515460500028,None,57,58,47,49,47,47,None,None,None,None,None,None,None,None,None,None,None,None,,None,None,,None,None,None,None,None,None,None,None,None,None,None,None,None,None,None,None,None,None,-0.6,1,528.0659143000375,None,528.0659143000375,None,528.0659143000375,None,528.0659143000375,None,528.0659143000375,None,528.0659143000375,None,78,528.0659143000375,None,528.0659143000375,None,-0.13802083333333334,-0.296875,1,0,0,7.419330799952149,tijiao_random_2,0.012728040106594563,None,528.0659143000375,None,2.640625,2.091238799970597,535.5198354000458,None,535.5198354000458,None,535.5198354000458,None,535.5198354000458,None,None,None,537.6422684999416,None,,,,,,,,,267,f,23,2023_Mar_26_1701,RL,2021.2.3,59.99286086503693,
0,0.3,0.225,0,43,43,43,,,,,,,,,,,,,,,None,None,None,None,None,539.348555100034,None,539.348555100034,None,539.348555100034,None,539.348555100034,None,i,0.7306734999874607,539.348555100034,None,539.348555100034,None,540.1180137000047,None,540.1180137000047,None,540.1180137000047,None,540.1180137000047,None,540.1180137000047,None,540.1180137000047,None,540.4121892999392,None,540.4121892999392,None,541.8621370999608,None,541.8621370999608,None,541.8621370999608,None,541.8621370999608,None,541.8621370999608,None,541.8621370999608,None,541.8621370999608,None,541.8621370999608,None,541.8621370999608,None,57,58,43,42,43,60,544.3788081000093,None,1.0,2.0551231000572443,544.3788081000093,None,544.3788081000093,None,544.3788081000093,None,544.3788081000093,None,,None,None,,None,None,None,None,None,None,None,None,None,None,None,None,None,None,None,None,None,None,0.2,3,None,None,None,None,None,None,None,None,None,None,None,None,,None,None,None,None,,,,,,,,None,None,None,None,None,None,None,None,None,None,None,None,None,None,None,None,546.4862656999612,None,,,,,,,,,267,f,23,2023_Mar_26_1701,RL,2021.2.3,59.99286086503693,
1,-0.3,-0.225,0,44,44,44,,,,,,,,,,,,,,,None,None,None,None,None,548.3721226999769,None,548.3721226999769,None,548.3721226999769,None,548.3721226999769,None,i,0.18840079999063164,548.3721226999769,None,548.3721226999769,None,548.6083382000215,None,548.6083382000215,None,548.6083382000215,None,548.6083382000215,None,548.6083382000215,None,548.6083382000215,None,548.9014088000404,None,548.9014088000404,None,550.4031559999567,None,550.4031559999567,None,550.4031559999567,None,550.4031559999567,None,550.4031559999567,None,550.4031559999567,None,550.4031559999567,None,550.4031559999567,None,550.4031559999567,None,55,66,41,34,41,49,None,None,None,None,None,None,None,None,None,None,None,None,45,552.9382170999888,None,45,552.9382170999888,None,552.9382170999888,None,552.9382170999888,None,552.9382170999888,None,552.9382170999888,None,552.9382170999888,None,552.9382170999888,None,0.008476129965856671,None,552.9382170999888,None,-0.2,0,None,None,None,None,None,None,None,None,None,None,None,None,,None,None,None,None,,,,,,,,None,None,None,None,6.911458333333334,3.6334418000187725,559.0812795000384,None,559.0812795000384,None,559.0812795000384,None,559.0812795000384,None,None,None,562.7432800999377,None,-0.0546875,-0.3111979166666667,1,0,0,6.097528200014494,tijiao,,267,f,23,2023_Mar_26_1701,RL,2021.2.3,59.99286086503693,
0,0.3,0.225,0,45,45,45,,,,,,,,,,,,,,,None,None,None,None,None,564.4164330000058,None,564.4164330000058,None,564.4164330000058,None,564.4164330000058,None,r,0.39407609996851534,564.4164330000058,None,564.4164330000058,None,564.852305999957,None,564.852305999957,None,564.852305999957,None,564.852305999957,None,564.852305999957,None,564.852305999957,None,565.1460507999873,567.131123399944,565.1460507999873,567.131123399944,567.1624354999512,None,567.1624354999512,None,567.1624354999512,None,567.1624354999512,None,567.1624354999512,None,567.1624354999512,None,567.1624354999512,None,567.1624354999512,None,567.1624354999512,None,55,63,33,36,55,56,None,None,None,None,None,None,None,None,None,None,None,None,55,569.6984689999372,None,55,569.6984689999372,None,569.6984689999372,None,569.6984689999372,None,569.6984689999372,None,569.6984689999372,None,569.6984689999372,None,569.6984689999372,None,0.008953629876486957,None,569.6984689999372,None,-0.2,0,None,None,None,None,None,None,None,None,None,None,None,None,,None,None,None,None,,,,,,,,None,None,None,None,7.002604166666666,2.0143027000594884,573.9774485999951,None,573.9774485999951,None,573.9774485999951,None,573.9774485999951,None,None,None,576.0203419999452,None,0.032552083333333336,-0.3125,1,0,0,4.230404699919745,tijiao,,267,f,23,2023_Mar_26_1701,RL,2021.2.3,59.99286086503693,
1,-0.3,-0.225,0,46,46,46,,,,,,,,,,,,,,,None,None,None,None,None,577.9256458999589,None,577.9256458999589,None,577.9256458999589,None,577.9256458999589,None,j,0.27504490001592785,577.9256458999589,None,577.9256458999589,None,578.2470905999653,None,578.2470905999653,None,578.2470905999653,None,578.2470905999653,None,578.2470905999653,None,578.2470905999653,None,578.538695700001,580.4735366000095,578.538695700001,580.4735366000095,580.5057743999641,None,580.5057743999641,None,580.5057743999641,None,580.5057743999641,None,580.5057743999641,None,580.5057743999641,None,580.5057743999641,None,580.5057743999641,None,580.5057743999641,None,50,59,39,33,33,60,583.0253171999939,None,1.0,1.904299300047569,583.0253171999939,None,583.0253171999939,None,583.0253171999939,None,583.0253171999939,None,,None,None,,None,None,None,None,None,None,None,None,None,None,None,None,None,None,None,None,None,None,-0.6,2,None,None,None,None,None,None,None,None,None,None,None,None,,None,None,None,None,,,,,,,,None,None,None,None,None,None,None,None,None,None,None,None,None,None,None,None,584.9829226000002,None,,,,,,,,,267,f,23,2023_Mar_26_1701,RL,2021.2.3,59.99286086503693,
0,0.3,0.225,0,47,47,47,,,,,,,,,,,,,,,None,None,None,None,None,586.8484573999885,None,586.8484573999885,None,586.8484573999885,None,586.8484573999885,None,j,0.2422241000458598,586.8484573999885,None,586.8484573999885,None,587.134011899936,None,587.134011899936,None,587.134011899936,None,587.134011899936,None,587.134011899936,None,587.134011899936,None,587.4281958999345,588.9292864999734,587.4281958999345,588.9292864999734,588.9610609000083,None,588.9610609000083,None,588.9610609000083,None,588.9610609000083,None,588.9610609000083,None,588.9610609000083,None,588.9610609000083,None,588.9610609000083,None,588.9610609000083,None,51,54,39,35,35,67,None,None,None,None,None,None,None,None,None,None,None,None,,None,None,,None,None,None,None,None,None,None,None,None,None,None,None,None,None,None,None,None,None,0.2,1,591.5127181999851,None,591.5127181999851,None,591.5127181999851,None,591.5127181999851,None,591.5127181999851,None,591.5127181999851,None,89,591.5127181999851,None,591.5127181999851,None,-0.005208333333333333,-0.2630208333333333,1,0,0,6.816649199929088,tijiao_random_2,0.01020353997591883,None,591.5127181999851,None,3.135416666666667,2.213799100019969,598.3669777000323,None,598.3669777000323,None,598.3669777000323,None,598.3669777000323,None,None,None,600.6075317999348,None,,,,,,,,,267,f,23,2023_Mar_26_1701,RL,2021.2.3,59.99286086503693,
1,-0.3,-0.225,0,48,48,48,,,,,,,,,,,,,,,None,None,None,None,None,602.5261344000464,None,602.5261344000464,None,602.5261344000464,None,602.5261344000464,None,f,0.2646446001017466,602.5261344000464,None,602.5261344000464,None,602.827880900004,None,602.827880900004,None,602.827880900004,None,602.827880900004,None,602.827880900004,None,602.827880900004,None,603.1223600000376,604.1066677999916,603.1223600000376,604.1066677999916,604.1389645000454,None,604.1389645000454,None,604.1389645000454,None,604.1389645000454,None,604.1389645000454,None,604.1389645000454,None,604.1389645000454,None,604.1389645000454,None,604.1389645000454,None,44,60,43,40,60,57,None,None,None,None,None,None,None,None,None,None,None,None,,None,None,,None,None,None,None,None,None,None,None,None,None,None,None,None,None,None,None,None,None,-0.6,1,606.6921708999434,None,606.6921708999434,None,606.6921708999434,None,606.6921708999434,None,606.6921708999434,None,606.6921708999434,None,68,606.6921708999434,None,606.6921708999434,None,0.08723958333333333,-0.31640625,1,0,0,6.8952958000591025,tijiao_random_2,0.006765440106391907,None,606.6921708999434,None,3.018229166666667,1.8512436000164598,613.6194696000312,None,613.6194696000312,None,613.6194696000312,None,613.6194696000312,None,None,None,615.4971712999977,None,,,,,,,,,267,f,23,2023_Mar_26_1701,RL,2021.2.3,59.99286086503693,
0,0.3,0.225,0,49,49,49,,,,,,,,,,,,,,,None,None,None,None,None,617.4366682999535,None,617.4366682999535,None,617.4366682999535,None,617.4366682999535,None,r,0.30417050002142787,617.4366682999535,None,617.4366682999535,None,617.7877190000145,None,617.7877190000145,None,617.7877190000145,None,617.7877190000145,None,617.7877190000145,None,617.7877190000145,None,618.0829824999673,None,618.0829824999673,None,619.671054800041,None,619.671054800041,None,619.671054800041,None,619.671054800041,None,619.671054800041,None,619.671054800041,None,619.671054800041,None,619.671054800041,None,619.671054800041,None,42,50,45,34,42,69,622.1855865999823,None,1.0,1.7008293999824673,622.1855865999823,None,622.1855865999823,None,622.1855865999823,None,622.1855865999823,None,,None,None,,None,None,None,None,None,None,None,None,None,None,None,None,None,None,None,None,None,None,-0.6,3,None,None,None,None,None,None,None,None,None,None,None,None,,None,None,None,None,,,,,,,,None,None,None,None,None,None,None,None,None,None,None,None,None,None,None,None,623.9443446999649,None,,,,,,,,,267,f,23,2023_Mar_26_1701,RL,2021.2.3,59.99286086503693,
1,-0.3,-0.225,0,50,50,50,,,,,,,,,,,,,,,None,None,None,None,None,625.8089587000431,None,625.8089587000431,None,625.8089587000431,None,625.8089587000431,None,i,0.23197610001079738,625.8089587000431,None,625.8089587000431,None,626.0925619000336,None,626.0925619000336,None,626.0925619000336,None,626.0925619000336,None,626.0925619000336,None,626.0925619000336,None,626.3886777999578,None,626.3886777999578,None,627.2584599000402,None,627.2584599000402,None,627.2584599000402,None,627.2584599000402,None,627.2584599000402,None,627.2584599000402,None,627.2584599000402,None,627.2584599000402,None,627.2584599000402,None,45,53,44,29,44,63,None,None,None,None,None,None,None,None,None,None,None,None,44,629.7838254999369,None,44,629.7838254999369,None,629.7838254999369,None,629.7838254999369,None,629.7838254999369,None,629.7838254999369,None,629.7838254999369,None,629.7838254999369,None,0.015506229945458472,None,629.7838254999369,None,0.6,0,None,None,None,None,None,None,None,None,None,None,None,None,,None,None,None,None,,,,,,,,None,None,None,None,7.171875,3.9152179999509826,634.9854836999439,None,634.9854836999439,None,634.9854836999439,None,634.9854836999439,None,None,None,638.9291325999657,None,0.08723958333333333,-0.30078125,1,0,0,5.15290779992938,tijiao,,267,f,23,2023_Mar_26_1701,RL,2021.2.3,59.99286086503693,
0,0.3,0.225,0,51,51,51,,,,,,,,,,,,,,,None,None,None,None,None,640.71883170004,None,640.71883170004,None,640.71883170004,None,640.71883170004,None,i,0.27232710004318506,640.71883170004,None,640.71883170004,None,641.0391479999525,None,641.0391479999525,None,641.0391479999525,None,641.0391479999525,None,641.0391479999525,None,641.0391479999525,None,641.3323203000473,None,641.3323203000473,None,642.8994852999458,None,642.8994852999458,None,642.8994852999458,None,642.8994852999458,None,642.8994852999458,None,642.8994852999458,None,642.8994852999458,None,642.8994852999458,None,642.8994852999458,None,42,60,50,26,50,46,None,None,None,None,None,None,None,None,None,None,None,None,,None,None,,None,None,None,None,None,None,None,None,None,None,None,None,None,None,None,None,None,None,0.6,1,645.4455820999574,None,645.4455820999574,None,645.4455820999574,None,645.4455820999574,None,645.4455820999574,None,645.4455820999574,None,88,645.4455820999574,None,645.4455820999574,None,0.125,-0.3125,1,0,0,4.785426500020549,tijiao_random_2,0.014559739967808127,None,645.4455820999574,None,2.8359375,2.0616672000614926,650.2654641999397,None,650.2654641999397,None,650.2654641999397,None,650.2654641999397,None,None,None,652.3552013000008,None,,,,,,,,,267,f,23,2023_Mar_26_1701,RL,2021.2.3,59.99286086503693,
1,-0.3,-0.225,0,52,52,52,,,,,,,,,,,,,,,None,None,None,None,None,654.2623716000235,None,654.2623716000235,None,654.2623716000235,None,654.2623716000235,None,j,0.259010799927637,654.2623716000235,None,654.2623716000235,None,654.5688765000086,None,654.5688765000086,None,654.5688765000086,None,654.5688765000086,None,654.5688765000086,None,654.5688765000086,None,654.8584220999619,None,654.8584220999619,None,656.7076892999467,None,656.7076892999467,None,656.7076892999467,None,656.7076892999467,None,656.7076892999467,None,656.7076892999467,None,656.7076892999467,None,656.7076892999467,None,656.7076892999467,None,40,58,45,30,30,62,None,None,None,None,None,None,None,None,None,None,None,None,,None,None,,None,None,None,None,None,None,None,None,None,None,None,None,None,None,None,None,None,None,0.6,1,659.260937999934,None,659.260937999934,None,659.260937999934,None,659.260937999934,None,659.260937999934,None,659.260937999934,None,92,659.260937999934,None,659.260937999934,None,-0.029947916666666668,-0.3072916666666667,1,0,0,6.2480663000606,tijiao_random_2,0.00883754005189985,None,659.260937999934,None,7.119791666666666,1.8629602000582963,665.5396908000112,None,665.5396908000112,None,665.5396908000112,None,665.5396908000112,None,None,None,667.4163176999427,None,,,,,,,,,267,f,23,2023_Mar_26_1701,RL,2021.2.3,59.99286086503693,
0,0.3,0.225,0,53,53,53,,,,,,,,,,,,,,,None,None,None,None,None,669.4059765000129,None,669.4059765000129,None,669.4059765000129,None,669.4059765000129,None,j,0.2652300000190735,669.4059765000129,None,669.4059765000129,None,669.7215712999459,None,669.7215712999459,None,669.7215712999459,None,669.7215712999459,None,669.7215712999459,None,669.7215712999459,None,670.0188147999579,None,670.0188147999579,None,671.4656797000207,None,671.4656797000207,None,671.4656797000207,None,671.4656797000207,None,671.4656797000207,None,671.4656797000207,None,671.4656797000207,None,671.4656797000207,None,671.4656797000207,None,46,58,45,28,28,46,None,None,None,None,None,None,None,None,None,None,None,None,30,674.0082047999604,None,30,674.0082047999604,None,674.0082047999604,None,674.0082047999604,None,674.0082047999604,None,674.0082047999604,None,674.0082047999604,None,674.0082047999604,None,0.00680342991836369,None,674.0082047999604,None,0.2,0,None,None,None,None,None,None,None,None,None,None,None,None,,None,None,None,None,,,,,,,,None,None,None,None,4.046875,2.6665950999595225,679.3480149999959,None,679.3480149999959,None,679.3480149999959,None,679.3480149999959,None,None,None,682.0275211000117,None,0.09635416666666667,-0.2747395833333333,1,0,0,5.294146099942736,tijiao,,267,f,23,2023_Mar_26_1701,RL,2021.2.3,59.99286086503693,
1,-0.3,-0.225,0,54,54,54,,,,,,,,,,,,,,,None,None,None,None,None,683.699184600031,None,683.699184600031,None,683.699184600031,None,683.699184600031,None,j,0.24223049997817725,683.699184600031,None,683.699184600031,None,683.9857175999787,None,683.9857175999787,None,683.9857175999787,None,683.9857175999787,None,683.9857175999787,None,683.9857175999787,None,684.2793061999837,None,684.2793061999837,None,686.1435157000087,None,686.1435157000087,None,686.1435157000087,None,686.1435157000087,None,686.1435157000087,None,686.1435157000087,None,686.1435157000087,None,686.1435157000087,None,686.1435157000087,None,47,53,47,37,37,78,None,None,None,None,None,None,None,None,None,None,None,None,,None,None,,None,None,None,None,None,None,None,None,None,None,None,None,None,None,None,None,None,None,-0.2,1,688.6914259999758,None,688.6914259999758,None,688.6914259999758,None,688.6914259999758,None,688.6914259999758,None,688.6914259999758,None,99,688.6914259999758,None,688.6914259999758,None,-0.033854166666666664,-0.234375,1,0,0,4.9864733999129385,tijiao_random_2,0.015047640074044466,None,688.6914259999758,None,7.0546875,2.7167509000282735,694.509540900006,None,694.509540900006,None,694.509540900006,None,694.509540900006,None,None,None,697.2533959000139,None,,,,,,,,,267,f,23,2023_Mar_26_1701,RL,2021.2.3,59.99286086503693,
0,0.3,0.225,0,55,55,55,,,,,,,,,,,,,,,None,None,None,None,None,698.9102499999572,None,698.9102499999572,None,698.9102499999572,None,698.9102499999572,None,f,0.24226279999129474,698.9102499999572,None,698.9102499999572,None,699.1952240000246,None,699.1952240000246,None,699.1952240000246,None,699.1952240000246,None,699.1952240000246,None,699.1952240000246,None,699.4893514999421,None,699.4893514999421,None,700.7025749000022,None,700.7025749000022,None,700.7025749000022,None,700.7025749000022,None,700.7025749000022,None,700.7025749000022,None,700.7025749000022,None,700.7025749000022,None,700.7025749000022,None,50,57,42,30,57,51,703.2277361999732,None,6.0,3.4196983999572694,703.2277361999732,None,703.2277361999732,None,703.2277361999732,None,703.2277361999732,None,,None,None,,None,None,None,None,None,None,None,None,None,None,None,None,None,None,None,None,None,None,0.2,2,None,None,None,None,None,None,None,None,None,None,None,None,,None,None,None,None,,,,,,,,None,None,None,None,None,None,None,None,None,None,None,None,None,None,None,None,706.7014050999423,None,,,,,,,,,267,f,23,2023_Mar_26_1701,RL,2021.2.3,59.99286086503693,
1,-0.3,-0.225,0,56,56,56,,,,,,,,,,,,,,,None,None,None,None,None,708.5668993999716,None,708.5668993999716,None,708.5668993999716,None,708.5668993999716,None,r,0.25579850003123283,708.5668993999716,None,708.5668993999716,None,708.8686435000272,None,708.8686435000272,None,708.8686435000272,None,708.8686435000272,None,708.8686435000272,None,708.8686435000272,None,709.1629004999995,None,709.1629004999995,None,710.9110486999853,None,710.9110486999853,None,710.9110486999853,None,710.9110486999853,None,710.9110486999853,None,710.9110486999853,None,710.9110486999853,None,710.9110486999853,None,710.9110486999853,None,56,60,43,37,56,52,None,None,None,None,None,None,None,None,None,None,None,None,57,713.4486259999685,None,57,713.4486259999685,None,713.4486259999685,None,713.4486259999685,None,713.4486259999685,None,713.4486259999685,None,713.4486259999685,None,713.4486259999685,None,0.009054929949343204,None,713.4486259999685,None,0.2,0,None,None,None,None,None,None,None,None,None,None,None,None,,None,None,None,None,,,,,,,,None,None,None,None,8.955729166666668,3.3459921999601647,718.3122471999377,None,718.3122471999377,None,718.3122471999377,None,718.3122471999377,None,None,None,721.6890152000124,None,0.08463541666666667,-0.3059895833333333,1,0,0,4.812892199959606,tijiao,,267,f,23,2023_Mar_26_1701,RL,2021.2.3,59.99286086503693,
0,0.3,0.225,0,57,57,57,,,,,,,,,,,,,,,None,None,None,None,None,723.6094925999641,None,723.6094925999641,None,723.6094925999641,None,723.6094925999641,None,r,0.4530402000527829,723.6094925999641,None,723.6094925999641,None,724.1156625000294,None,724.1156625000294,None,724.1156625000294,None,724.1156625000294,None,724.1156625000294,None,724.1156625000294,None,724.406685099937,None,724.406685099937,None,725.7540863000322,None,725.7540863000322,None,725.7540863000322,None,725.7540863000322,None,725.7540863000322,None,725.7540863000322,None,725.7540863000322,None,725.7540863000322,None,725.7540863000322,None,62,49,39,36,62,74,None,None,None,None,None,None,None,None,None,None,None,None,,None,None,,None,None,None,None,None,None,None,None,None,None,None,None,None,None,None,None,None,None,-0.2,1,728.3087106000166,None,728.3087106000166,None,728.3087106000166,None,728.3087106000166,None,728.3087106000166,None,728.3087106000166,None,99,728.3087106000166,None,728.3087106000166,None,0.029947916666666668,-0.3046875,1,0,0,9.899907100014389,tijiao_random_2,0.008620040025562048,None,728.3087106000166,None,3.786458333333334,3.0933257000287995,738.2419050999451,None,738.2419050999451,None,738.2419050999451,None,738.2419050999451,None,None,None,741.3675655999687,None,,,,,,,,,267,f,23,2023_Mar_26_1701,RL,2021.2.3,59.99286086503693,
1,-0.3,-0.225,0,58,58,58,,,,,,,,,,,,,,,None,None,None,None,None,743.3736622999422,None,743.3736622999422,None,743.3736622999422,None,743.3736622999422,None,f,0.38926050008740276,743.3736622999422,None,743.3736622999422,None,743.8078621999593,None,743.8078621999593,None,743.8078621999593,None,743.8078621999593,None,743.8078621999593,None,743.8078621999593,None,744.1037192000076,None,744.1037192000076,None,745.9542103999993,None,745.9542103999993,None,745.9542103999993,None,745.9542103999993,None,745.9542103999993,None,745.9542103999993,None,745.9542103999993,None,745.9542103999993,None,745.9542103999993,None,53,46,50,39,46,45,748.4706813000375,None,5.0,2.9731346999760717,748.4706813000375,None,748.4706813000375,None,748.4706813000375,None,748.4706813000375,None,,None,None,,None,None,None,None,None,None,None,None,None,None,None,None,None,None,None,None,None,None,0.6,2,None,None,None,None,None,None,None,None,None,None,None,None,,None,None,None,None,,,,,,,,None,None,None,None,None,None,None,None,None,None,None,None,None,None,None,None,751.4975029999623,None,,,,,,,,,267,f,23,2023_Mar_26_1701,RL,2021.2.3,59.99286086503693,
0,0.3,0.225,0,59,59,59,,,,,,,,,,,,,,,None,None,None,None,None,753.1804975999985,None,753.1804975999985,None,753.1804975999985,None,753.1804975999985,None,f,0.2723671999992803,753.1804975999985,None,753.1804975999985,None,753.4986649999628,None,753.4986649999628,None,753.4986649999628,None,753.4986649999628,None,753.4986649999628,None,753.4986649999628,None,753.7938032000093,None,753.7938032000093,None,755.6091900999891,None,755.6091900999891,None,755.6091900999891,None,755.6091900999891,None,755.6091900999891,None,755.6091900999891,None,755.6091900999891,None,755.6091900999891,None,755.6091900999891,None,52,54,60,55,54,81,758.1332840999821,None,2.0,2.5681338999420404,758.1332840999821,None,758.1332840999821,None,758.1332840999821,None,758.1332840999821,None,,None,None,,None,None,None,None,None,None,None,None,None,None,None,None,None,None,None,None,None,None,0.2,3,None,None,None,None,None,None,None,None,None,None,None,None,,None,None,None,None,,,,,,,,None,None,None,None,None,None,None,None,None,None,None,None,None,None,None,None,760.765311999945,None,,,,,,,,,267,f,23,2023_Mar_26_1701,RL,2021.2.3,59.99286086503693,
1,-0.3,-0.225,0,60,60,60,,,,,,,,,,,,,,,None,None,None,None,None,762.754241000046,None,762.754241000046,None,762.754241000046,None,762.754241000046,None,i,1.0388341000070795,762.754241000046,None,762.754241000046,None,763.8404263999546,None,763.8404263999546,None,763.8404263999546,None,763.8404263999546,None,763.8404263999546,None,763.8404263999546,None,764.134370099986,765.8685347000137,764.134370099986,765.8685347000137,765.9013002000283,None,765.9013002000283,None,765.9013002000283,None,765.9013002000283,None,765.9013002000283,None,765.9013002000283,None,765.9013002000283,None,765.9013002000283,None,765.9013002000283,None,52,49,51,47,51,52,768.4231021000305,None,1.0,2.0012844000011683,768.4231021000305,None,768.4231021000305,None,768.4231021000305,None,768.4231021000305,None,,None,None,,None,None,None,None,None,None,None,None,None,None,None,None,None,None,None,None,None,None,0.6,3,None,None,None,None,None,None,None,None,None,None,None,None,,None,None,None,None,,,,,,,,None,None,None,None,None,None,None,None,None,None,None,None,None,None,None,None,770.4842469999567,None,,,,,,,,,267,f,23,2023_Mar_26_1701,RL,2021.2.3,59.99286086503693,
0,0.3,0.225,0,61,61,61,,,,,,,,,,,,,,,None,None,None,None,None,772.461441899999,None,772.461441899999,None,772.461441899999,None,772.461441899999,None,r,0.2613832999486476,772.461441899999,None,772.461441899999,None,772.764416799997,None,772.764416799997,None,772.764416799997,None,772.764416799997,None,772.764416799997,None,772.764416799997,None,773.0404052999802,775.0084480999503,773.0404052999802,775.0084480999503,775.0388487000018,None,775.0388487000018,None,775.0388487000018,None,775.0388487000018,None,775.0388487000018,None,775.0388487000018,None,775.0388487000018,None,775.0388487000018,None,775.0388487000018,None,49,61,53,51,49,85,None,None,None,None,None,None,None,None,None,None,None,None,,None,None,,None,None,None,None,None,None,None,None,None,None,None,None,None,None,None,None,None,None,0.2,1,777.5913181999931,None,777.5913181999931,None,777.5913181999931,None,777.5913181999931,None,777.5913181999931,None,777.5913181999931,None,80,777.5913181999931,None,777.5913181999931,None,-0.08072916666666667,-0.265625,1,0,0,4.464901800034568,tijiao_random_2,0.009928839979693294,None,777.5913181999931,None,2.106770833333333,1.6745470000896603,782.0914167000446,None,782.0914167000446,None,782.0914167000446,None,782.0914167000446,None,None,None,783.7804994999897,None,,,,,,,,,267,f,23,2023_Mar_26_1701,RL,2021.2.3,59.99286086503693,
1,-0.3,-0.225,0,62,62,62,,,,,,,,,,,,,,,None,None,None,None,None,785.369663599995,None,785.369663599995,None,785.369663599995,None,785.369663599995,None,r,1.013464399962686,785.369663599995,None,785.369663599995,None,786.4238656000234,None,786.4238656000234,None,786.4238656000234,None,786.4238656000234,None,786.4238656000234,None,786.4238656000234,None,786.7165702999337,None,786.7165702999337,None,788.3147186000133,None,788.3147186000133,None,788.3147186000133,None,788.3147186000133,None,788.3147186000133,None,788.3147186000133,None,788.3147186000133,None,788.3147186000133,None,788.3147186000133,None,42,57,51,53,42,82,790.8384442999959,None,1.0,1.5508829000173137,790.8384442999959,None,790.8384442999959,None,790.8384442999959,None,790.8384442999959,None,,None,None,,None,None,None,None,None,None,None,None,None,None,None,None,None,None,None,None,None,None,0.6,2,None,None,None,None,None,None,None,None,None,None,None,None,,None,None,None,None,,,,,,,,None,None,None,None,None,None,None,None,None,None,None,None,None,None,None,None,792.4739218000323,None,,,,,,,,,267,f,23,2023_Mar_26_1701,RL,2021.2.3,59.99286086503693,
0,0.3,0.225,0,63,63,63,,,,,,,,,,,,,,,None,None,None,None,None,794.2758943999652,None,794.2758943999652,None,794.2758943999652,None,794.2758943999652,None,j,0.27714979997836053,794.2758943999652,None,794.2758943999652,None,794.5930059000384,None,794.5930059000384,None,794.5930059000384,None,794.5930059000384,None,794.5930059000384,None,794.5930059000384,None,794.8889938000357,None,794.8889938000357,None,796.442954499973,None,796.442954499973,None,796.442954499973,None,796.442954499973,None,796.442954499973,None,796.442954499973,None,796.442954499973,None,796.442954499973,None,796.442954499973,None,51,52,47,55,55,88,798.9620897000423,None,1.0,1.449875400052406,798.9620897000423,None,798.9620897000423,None,798.9620897000423,None,798.9620897000423,None,,None,None,,None,None,None,None,None,None,None,None,None,None,None,None,None,None,None,None,None,None,0.2,2,None,None,None,None,None,None,None,None,None,None,None,None,,None,None,None,None,,,,,,,,None,None,None,None,None,None,None,None,None,None,None,None,None,None,None,None,800.4617135999724,None,,,,,,,,,267,f,23,2023_Mar_26_1701,RL,2021.2.3,59.99286086503693,
1,-0.3,-0.225,0,64,64,64,,,,,,,,,,,,,,,None,None,None,None,None,802.2309444999555,None,802.2309444999555,None,802.2309444999555,None,802.2309444999555,None,f,0.3423980000661686,802.2309444999555,None,802.2309444999555,None,802.6173140000319,None,802.6173140000319,None,802.6173140000319,None,802.6173140000319,None,802.6173140000319,None,802.6173140000319,None,802.9112905999646,803.7617252999917,802.9112905999646,803.7617252999917,803.798362200032,None,803.798362200032,None,803.798362200032,None,803.798362200032,None,803.798362200032,None,803.798362200032,None,803.798362200032,None,803.798362200032,None,803.798362200032,None,52,55,39,62,55,80,None,None,None,None,None,None,None,None,None,None,None,None,50,806.3238168000244,None,50,806.3238168000244,None,806.3238168000244,None,806.3238168000244,None,806.3238168000244,None,806.3238168000244,None,806.3238168000244,None,806.3238168000244,None,0.015391430002637208,None,806.3238168000244,None,0.2,0,None,None,None,None,None,None,None,None,None,None,None,None,,None,None,None,None,,,,,,,,None,None,None,None,7.041666666666666,2.8642667999956757,810.9231579999905,None,810.9231579999905,None,810.9231579999905,None,810.9231579999905,None,None,None,813.8015495999716,None,0.06901041666666667,-0.3046875,1,0,0,4.552438299986534,tijiao,,267,f,23,2023_Mar_26_1701,RL,2021.2.3,59.99286086503693,
0,0.3,0.225,0,65,65,65,,,,,,,,,,,,,,,None,None,None,None,None,815.6394221000373,None,815.6394221000373,None,815.6394221000373,None,815.6394221000373,None,f,0.23375569994095713,815.6394221000373,None,815.6394221000373,None,815.924386800034,None,815.924386800034,None,815.924386800034,None,815.924386800034,None,815.924386800034,None,815.924386800034,None,816.219979400048,None,816.219979400048,None,817.867643399979,None,817.867643399979,None,817.867643399979,None,817.867643399979,None,817.867643399979,None,817.867643399979,None,817.867643399979,None,817.867643399979,None,817.867643399979,None,57,51,39,57,51,85,None,None,None,None,None,None,None,None,None,None,None,None,,None,None,,None,None,None,None,None,None,None,None,None,None,None,None,None,None,None,None,None,None,-0.6,1,820.4236710999394,None,820.4236710999394,None,820.4236710999394,None,820.4236710999394,None,820.4236710999394,None,820.4236710999394,None,79,820.4236710999394,None,820.4236710999394,None,0.10286458333333333,-0.2760416666666667,1,0,0,5.512707700021565,tijiao_random_2,0.00781084003392607,None,820.4236710999394,None,3.096354166666667,2.4321305999765173,825.9660156000173,None,825.9660156000173,None,825.9660156000173,None,825.9660156000173,None,None,None,828.4121955999872,None,,,,,,,,,267,f,23,2023_Mar_26_1701,RL,2021.2.3,59.99286086503693,
1,-0.3,-0.225,0,66,66,66,,,,,,,,,,,,,,,None,None,None,None,None,830.1338337999769,None,830.1338337999769,None,830.1338337999769,None,830.1338337999769,None,r,0.38954999996349216,830.1338337999769,None,830.1338337999769,None,830.5711483999621,None,830.5711483999621,None,830.5711483999621,None,830.5711483999621,None,830.5711483999621,None,830.5711483999621,None,830.86429399997,None,830.86429399997,None,832.3168486999348,None,832.3168486999348,None,832.3168486999348,None,832.3168486999348,None,832.3168486999348,None,832.3168486999348,None,832.3168486999348,None,832.3168486999348,None,832.3168486999348,None,49,55,47,54,49,83,None,None,None,None,None,None,None,None,None,None,None,None,51,834.8442797999596,None,51,834.8442797999596,None,834.8442797999596,None,834.8442797999596,None,834.8442797999596,None,834.8442797999596,None,834.8442797999596,None,834.8442797999596,None,0.014149430091492832,None,834.8442797999596,None,0.6,0,None,None,None,None,None,None,None,None,None,None,None,None,,None,None,None,None,,,,,,,,None,None,None,None,3.96875,1.824661000049673,842.3343188000144,None,842.3343188000144,None,842.3343188000144,None,842.3343188000144,None,None,None,844.1726913000457,None,-0.013020833333333334,-0.30078125,1,0,0,7.4374068001052365,tijiao,,267,f,23,2023_Mar_26_1701,RL,2021.2.3,59.99286086503693,
0,0.3,0.225,0,67,67,67,,,,,,,,,,,,,,,None,None,None,None,None,846.0279955000151,None,846.0279955000151,None,846.0279955000151,None,846.0279955000151,None,r,0.4055066000437364,846.0279955000151,None,846.0279955000151,None,846.481673500035,None,846.481673500035,None,846.481673500035,None,846.481673500035,None,846.481673500035,None,846.481673500035,None,846.7749308999628,None,846.7749308999628,None,848.443831600016,None,848.443831600016,None,848.443831600016,None,848.443831600016,None,848.443831600016,None,848.443831600016,None,848.443831600016,None,848.443831600016,None,848.443831600016,None,46,48,43,66,46,82,850.9652109999442,None,2.0,2.0173452999442816,850.9652109999442,None,850.9652109999442,None,850.9652109999442,None,850.9652109999442,None,,None,None,,None,None,None,None,None,None,None,None,None,None,None,None,None,None,None,None,None,None,-0.6,2,None,None,None,None,None,None,None,None,None,None,None,None,,None,None,None,None,,,,,,,,None,None,None,None,None,None,None,None,None,None,None,None,None,None,None,None,853.0415723000187,None,,,,,,,,,267,f,23,2023_Mar_26_1701,RL,2021.2.3,59.99286086503693,
1,-0.3,-0.225,0,68,68,68,,,,,,,,,,,,,,,None,None,None,None,None,854.6843814000022,None,854.6843814000022,None,854.6843814000022,None,854.6843814000022,None,f,0.4791076999390498,854.6843814000022,None,854.6843814000022,None,855.2033116000239,None,855.2033116000239,None,855.2033116000239,None,855.2033116000239,None,855.2033116000239,None,855.2033116000239,None,855.4979300999548,None,855.4979300999548,None,857.4792191999732,None,857.4792191999732,None,857.4792191999732,None,857.4792191999732,None,857.4792191999732,None,857.4792191999732,None,857.4792191999732,None,857.4792191999732,None,857.4792191999732,None,53,46,41,68,46,87,860.0033177000005,None,2.0,1.2680939000565559,860.0033177000005,None,860.0033177000005,None,860.0033177000005,None,860.0033177000005,None,,None,None,,None,None,None,None,None,None,None,None,None,None,None,None,None,None,None,None,None,None,-0.6,3,None,None,None,None,None,None,None,None,None,None,None,None,,None,None,None,None,,,,,,,,None,None,None,None,None,None,None,None,None,None,None,None,None,None,None,None,861.3232513000257,None,,,,,,,,,267,f,23,2023_Mar_26_1701,RL,2021.2.3,59.99286086503693,
0,0.3,0.225,0,69,69,69,,,,,,,,,,,,,,,None,None,None,None,None,862.8903195000021,None,862.8903195000021,None,862.8903195000021,None,862.8903195000021,None,r,0.9842644999735057,862.8903195000021,None,862.8903195000021,None,863.9250811999664,None,863.9250811999664,None,863.9250811999664,None,863.9250811999664,None,863.9250811999664,None,863.9250811999664,None,864.2204919999931,None,864.2204919999931,None,865.6371847999981,None,865.6371847999981,None,865.6371847999981,None,865.6371847999981,None,865.6371847999981,None,865.6371847999981,None,865.6371847999981,None,865.6371847999981,None,865.6371847999981,None,61,46,44,68,61,77,None,None,None,None,None,None,None,None,None,None,None,None,66,868.1727362000383,None,66,868.1727362000383,None,868.1727362000383,None,868.1727362000383,None,868.1727362000383,None,868.1727362000383,None,868.1727362000383,None,868.1727362000383,None,0.00906173000112176,None,868.1727362000383,None,-0.6,0,None,None,None,None,None,None,None,None,None,None,None,None,,None,None,None,None,,,,,,,,None,None,None,None,6.104166666666666,1.99681599996984,873.9690146000357,None,873.9690146000357,None,873.9690146000357,None,873.9690146000357,None,None,None,875.9978590999963,None,-0.10416666666666667,-0.26953125,1,0,0,5.747281200019643,tijiao,,267,f,23,2023_Mar_26_1701,RL,2021.2.3,59.99286086503693,
1,-0.3,-0.225,0,70,70,70,,,,,,,,,,,,,,,None,None,None,None,None,877.5340878999559,None,877.5340878999559,None,877.5340878999559,None,877.5340878999559,None,f,0.2905850999522954,877.5340878999559,None,877.5340878999559,None,877.8709172999952,None,877.8709172999952,None,877.8709172999952,None,877.8709172999952,None,877.8709172999952,None,877.8709172999952,None,878.1637110000011,879.8815428999951,878.1637110000011,879.8815428999951,879.9119580000406,None,879.9119580000406,None,879.9119580000406,None,879.9119580000406,None,879.9119580000406,None,879.9119580000406,None,879.9119580000406,None,879.9119580000406,None,879.9119580000406,None,50,48,45,62,48,28,882.4362268999685,None,7.0,1.71677900000941,882.4362268999685,None,882.4362268999685,None,882.4362268999685,None,882.4362268999685,None,,None,None,,None,None,None,None,None,None,None,None,None,None,None,None,None,None,None,None,None,None,-0.6,2,None,None,None,None,None,None,None,None,None,None,None,None,,None,None,None,None,,,,,,,,None,None,None,None,None,None,None,None,None,None,None,None,None,None,None,None,884.2058722999645,None,,,,,,,,,267,f,23,2023_Mar_26_1701,RL,2021.2.3,59.99286086503693,
0,0.3,0.225,0,71,71,71,,,,,,,,,,,,,,,None,None,None,None,None,886.189966200036,None,886.189966200036,None,886.189966200036,None,886.189966200036,None,j,0.2951584999682382,886.189966200036,None,886.189966200036,None,886.5301021999912,None,886.5301021999912,None,886.5301021999912,None,886.5301021999912,None,886.5301021999912,None,886.5301021999912,None,886.8195868999464,887.920281699975,886.8195868999464,887.920281699975,887.9517219000263,None,887.9517219000263,None,887.9517219000263,None,887.9517219000263,None,887.9517219000263,None,887.9517219000263,None,887.9517219000263,None,887.9517219000263,None,887.9517219000263,None,55,47,47,73,73,81,None,None,None,None,None,None,None,None,None,None,None,None,85,890.4870249000378,None,85,890.4870249000378,None,890.4870249000378,None,890.4870249000378,None,890.4870249000378,None,890.4870249000378,None,890.4870249000378,None,890.4870249000378,None,0.00997562997508794,None,890.4870249000378,None,0.6,0,None,None,None,None,None,None,None,None,None,None,None,None,,None,None,None,None,,,,,,,,None,None,None,None,5.856770833333333,2.840140499989502,896.9410904999822,None,896.9410904999822,None,896.9410904999822,None,896.9410904999822,None,None,None,899.7943488999736,None,0.18098958333333334,-0.3046875,1,0,0,6.39833560003899,tijiao,,267,f,23,2023_Mar_26_1701,RL,2021.2.3,59.99286086503693,
1,-0.3,-0.225,0,72,72,72,,,,,,,,,,,,,,,None,None,None,None,None,901.5172433999833,None,901.5172433999833,None,901.5172433999833,None,901.5172433999833,None,j,0.8479353999719024,901.5172433999833,None,901.5172433999833,None,902.4051561999368,None,902.4051561999368,None,902.4051561999368,None,902.4051561999368,None,902.4051561999368,None,902.4051561999368,None,902.697008099989,903.9812915000366,902.697008099989,903.9812915000366,904.0132357999682,None,904.0132357999682,None,904.0132357999682,None,904.0132357999682,None,904.0132357999682,None,904.0132357999682,None,904.0132357999682,None,904.0132357999682,None,904.0132357999682,None,52,54,43,63,63,48,906.5299848000286,None,7.0,2.821481099934317,906.5299848000286,None,906.5299848000286,None,906.5299848000286,None,906.5299848000286,None,,None,None,,None,None,None,None,None,None,None,None,None,None,None,None,None,None,None,None,None,None,0.6,3,None,None,None,None,None,None,None,None,None,None,None,None,,None,None,None,None,,,,,,,,None,None,None,None,None,None,None,None,None,None,None,None,None,None,None,None,909.4088868999388,None,,,,,,,,,267,f,23,2023_Mar_26_1701,RL,2021.2.3,59.99286086503693,
0,0.3,0.225,0,73,73,73,,,,,,,,,,,,,,,None,None,None,None,None,911.0397502999986,None,911.0397502999986,None,911.0397502999986,None,911.0397502999986,None,j,0.36527339997701347,911.0397502999986,None,911.0397502999986,None,911.4582498000236,None,911.4582498000236,None,911.4582498000236,None,911.4582498000236,None,911.4582498000236,None,911.4582498000236,None,911.753527599969,None,911.753527599969,None,912.8833082999336,None,912.8833082999336,None,912.8833082999336,None,912.8833082999336,None,912.8833082999336,None,912.8833082999336,None,912.8833082999336,None,912.8833082999336,None,912.8833082999336,None,63,56,52,76,76,71,915.4022143000038,None,6.0,1.4224345000693575,915.4022143000038,None,915.4022143000038,None,915.4022143000038,None,915.4022143000038,None,,None,None,,None,None,None,None,None,None,None,None,None,None,None,None,None,None,None,None,None,None,-0.6,2,None,None,None,None,None,None,None,None,None,None,None,None,,None,None,None,None,,,,,,,,None,None,None,None,None,None,None,None,None,None,None,None,None,None,None,None,916.8772335000103,None,,,,,,,,,267,f,23,2023_Mar_26_1701,RL,2021.2.3,59.99286086503693,
1,-0.3,-0.225,0,74,74,74,,,,,,,,,,,,,,,None,None,None,None,None,918.8111533999909,None,918.8111533999909,None,918.8111533999909,None,918.8111533999909,None,i,0.24374679999891669,918.8111533999909,None,918.8111533999909,None,919.0976379000349,None,919.0976379000349,None,919.0976379000349,None,919.0976379000349,None,919.0976379000349,None,919.0976379000349,None,919.3922780000139,None,919.3922780000139,None,920.6967655000044,None,920.6967655000044,None,920.6967655000044,None,920.6967655000044,None,920.6967655000044,None,920.6967655000044,None,920.6967655000044,None,920.6967655000044,None,920.6967655000044,None,53,56,37,75,37,84,None,None,None,None,None,None,None,None,None,None,None,None,30,923.2202213000273,None,30,923.2202213000273,None,923.2202213000273,None,923.2202213000273,None,923.2202213000273,None,923.2202213000273,None,923.2202213000273,None,923.2202213000273,None,0.00023611995857208967,None,923.2202213000273,None,0.6,0,None,None,None,None,None,None,None,None,None,None,None,None,,None,None,None,None,,,,,,,,None,None,None,None,2.796875,2.1147944000549614,930.1216928999638,None,930.1216928999638,None,930.1216928999638,None,930.1216928999638,None,None,None,932.2503220000071,None,-0.048177083333333336,-0.3059895833333333,1,0,0,6.856271399999969,tijiao,,267,f,23,2023_Mar_26_1701,RL,2021.2.3,59.99286086503693,
0,0.3,0.225,0,75,75,75,,,,,,,,,,,,,,,933.9524556000251,None,q,933.9524556000251,None,1090.4910320999334,None,1090.4910320999334,None,1090.4910320999334,None,1090.4910320999334,None,r,0.5201137999538332,1090.4910320999334,None,1090.4910320999334,None,1091.0505302000092,None,1091.0505302000092,None,1091.0505302000092,None,1091.0505302000092,None,1091.0505302000092,None,1091.0505302000092,None,1091.3448268999346,None,1091.3448268999346,None,1092.3797476999462,None,1092.3797476999462,None,1092.3797476999462,None,1092.3797476999462,None,1092.3797476999462,None,1092.3797476999462,None,1092.3797476999462,None,1092.3797476999462,None,1092.3797476999462,None,52,58,45,59,52,85,1094.9002236999804,None,1.0,1.851717900019139,1094.9002236999804,None,1094.9002236999804,None,1094.9002236999804,None,1094.9002236999804,None,,None,None,,None,None,None,None,None,None,None,None,None,None,None,None,None,None,None,None,None,None,0.6,3,None,None,None,None,None,None,None,None,None,None,None,None,,None,None,None,None,,,,,,,,None,None,None,None,None,None,None,None,None,None,None,None,None,None,None,None,1096.815726700006,None,,,,,,,,156.5017014000332,267,f,23,2023_Mar_26_1701,RL,2021.2.3,59.99286086503693,
