bandit0,black_x_pos_random,black_y_pos_random,trials.thisRepN,trials.thisTrialN,trials.thisN,trials.thisIndex,instru_img1.started,instru_resp.started,instru_resp.keys,instru_resp.rt,instru_img2.started,instru_resp2.started,instru_resp2.keys,instru_resp2.rt,fixbefore_2.started,rest_response.keys,red.started,green.started,yellow.started,blue.started,choose_bandit.started,Fixation.started,choose_bandit.keys,choose_bandit.rt,black.started,red_2.started,green_2.started,yellow_2.started,blue_2.started,fixation_2.started,docs.started,wait_playerB.started,docs.stopped,wait_playerB.stopped,black.stopped,red_2.stopped,green_2.stopped,yellow_2.stopped,blue_2.stopped,fixation_2.stopped,black_com.started,reward_sub.started,palyerb.started,reward__sub.started,compare.started,red_compare.started,green_com.started,yellow_com.started,blue_com.started,rewardyellow,rewardred,rewardblue,rewardgreen,subchoose,playerb,slider.response,slider.rt,expectself.text,value_expect_self,tijiao_click.x,tijiao_click.y,tijiao_click.leftButton,tijiao_click.midButton,tijiao_click.rightButton,tijiao_click.time,tijiao_click.clicked_name,random_whicharm,whether_ask,jiantou_random.started,expect_red.started,expect_green.started,expect_yellow.started,expect_blue.started,expect_random_2.started,expect_random_3.started,tijiao_random_2.started,tijiao_random.started,check_2.started,expect_random_3.text,tijiao_random.x,tijiao_random.y,tijiao_random.leftButton,tijiao_random.midButton,tijiao_random.rightButton,tijiao_random.time,tijiao_random.clicked_name,slider_2.started,image_7.started,confi.started,notconfi.started,slider_2.response,slider_2.rt,intertrialfix.started,intertrialfix.stopped,image_3.started,slider.started,text.started,image_4.started,image_5.started,expectself.started,expect_self_black.started,expect_self.started,expect_self_red.started,expect_self_green.started,expect_self_yellow.started,expect_self_blue.started,tijiao.started,tijiao_click.started,check.started,rest_image.started,rest_response.started,rest_response.rt,participant,Gender,Age,date,expName,psychopyVersion,frameRate,
,,,,,,,18.4311633000616,18.4311633000616,space,6.516609500045888,,,,,,,,,,,,,,,,,,,,,,,,,,,,,,,,,,,,,,,,,,,,,,,,,,,,,,,,,,,,,,,,,,,,,,,,,,,,,,,,,,,,,,,,,,,,,,,,,,,,,,,268,m,23,2023-03-26_16h59.58.367,RL,2022.2.4,60.06922378311125,
,,,,,,,,,,,24.97644430003129,24.97644430003129,s,12.801546000060625,,,,,,,,,,,,,,,,,,,,,,,,,,,,,,,,,,,,,,,,,,,,,,,,,,,,,,,,,,,,,,,,,,,,,,,,,,,,,,,,,,,,,,,,,,,,,,,,,,,268,m,23,2023-03-26_16h59.58.367,RL,2022.2.4,60.06922378311125,
1,-0.3,-0.225,0,0,0,0,,,,,,,,,37.79718200000934,None,38.824302199995145,38.824302199995145,38.824302199995145,38.824302199995145,38.824302199995145,38.824302199995145,r,0.6467406000010669,39.51169459999073,39.51169459999073,39.51169459999073,39.51169459999073,39.51169459999073,39.51169459999073,39.791300300043076,39.791300300043076,40.85511999996379,40.85511999996379,40.8742554000346,40.8742554000346,40.8742554000346,40.8742554000346,40.8742554000346,40.8742554000346,40.8742554000346,40.8742554000346,40.8742554000346,40.8742554000346,40.8742554000346,40.8742554000346,40.8742554000346,40.8742554000346,40.8742554000346,30,37,61,67,30,57,None,None,,,[],[],[],[],[],[],[],-0.6,1,43.453992799972184,43.453992799972184,43.453992799972184,43.453992799972184,43.453992799972184,43.453992799972184,43.453992799972184,43.453992799972184,0.0074653999181464314,43.453992799972184,60,[-0.030555555555555555],[-0.2972222222222222],[1],[0],[0],[5.357319899951108],['tijiao_random_2'],48.87780100002419,48.87780100002419,48.87780100002419,48.87780100002419,8.027777777777777,3.33364139997866,52.27057040005457,54.068869399954565,,,,,,,,,,,,,,,,,,,268,m,23,2023-03-26_16h59.58.367,RL,2022.2.4,60.06922378311125,
0,0.3,0.225,0,1,1,1,,,,,,,,,,None,54.068869399954565,54.068869399954565,54.068869399954565,54.068869399954565,54.068869399954565,54.068869399954565,f,0.4497984000481665,54.55141139996704,54.55141139996704,54.55141139996704,54.55141139996704,54.55141139996704,54.55141139996704,54.850208800053224,54.850208800053224,56.346118699992076,56.346118699992076,56.346118699992076,56.346118699992076,56.346118699992076,56.346118699992076,56.346118699992076,56.346118699992076,56.346118699992076,56.346118699992076,56.346118699992076,56.346118699992076,56.346118699992076,56.346118699992076,56.346118699992076,56.346118699992076,56.346118699992076,40,36,44,48,36,62,None,None,,,[],[],[],[],[],[],[],0.2,1,58.86692020006012,58.86692020006012,58.86692020006012,58.86692020006012,58.86692020006012,58.86692020006012,58.86692020006012,58.86692020006012,0.006781799951568246,58.86692020006012,40,[0.03611111111111111],[-0.29444444444444445],[1],[0],[0],[4.317244000034407],['tijiao_random_2'],63.19823630002793,63.19823630002793,63.19823630002793,63.19823630002793,9.0,3.0514756999909878,66.2680415000068,68.2134963000426,,,,,,,,,,,,,,,,,,,268,m,23,2023-03-26_16h59.58.367,RL,2022.2.4,60.06922378311125,
1,-0.3,-0.225,0,2,2,2,,,,,,,,,,None,68.2134963000426,68.2134963000426,68.2134963000426,68.2134963000426,68.2134963000426,68.2134963000426,f,0.4407423000084236,68.68004190002102,68.68004190002102,68.68004190002102,68.68004190002102,68.68004190002102,68.68004190002102,68.97850500000641,68.97850500000641,70.5407828000607,70.5407828000607,70.5407828000607,70.5407828000607,70.5407828000607,70.5407828000607,70.5407828000607,70.5407828000607,70.5407828000607,70.5407828000607,70.5407828000607,70.5407828000607,70.5407828000607,70.5407828000607,70.5407828000607,70.5407828000607,70.5407828000607,44,32,54,41,32,37,4.0,2.7587557999650016,,,[],[],[],[],[],[],[],0.2,3,,,,,,,,,,,,[],[],[],[],[],[],[],,,,,None,None,75.84210390003864,77.7375694999937,73.05010540003423,73.05010540003423,73.05010540003423,73.05010540003423,73.05010540003423,,,,,,,,,,,,,,268,m,23,2023-03-26_16h59.58.367,RL,2022.2.4,60.06922378311125,
0,0.3,0.225,0,3,3,3,,,,,,,,,,None,77.7375694999937,77.7375694999937,77.7375694999937,77.7375694999937,77.7375694999937,77.7375694999937,j,0.7203455999260768,78.49529650004115,78.49529650004115,78.49529650004115,78.49529650004115,78.49529650004115,78.49529650004115,78.7851463999832,78.7851463999832,80.28111760003958,80.28111760003958,80.28111760003958,80.28111760003958,80.28111760003958,80.28111760003958,80.28111760003958,80.28111760003958,80.28111760003958,80.28111760003958,80.28111760003958,80.28111760003958,80.28111760003958,80.28111760003958,80.28111760003958,80.28111760003958,80.28111760003958,35,35,54,50,50,37,6.0,2.010177400079556,,,[],[],[],[],[],[],[],-0.6,2,,,,,,,,,,,,[],[],[],[],[],[],[],,,,,None,None,84.82688419998158,86.81304060004186,82.78985930001363,82.78985930001363,82.78985930001363,82.78985930001363,82.78985930001363,,,,,,,,,,,,,,268,m,23,2023-03-26_16h59.58.367,RL,2022.2.4,60.06922378311125,
1,-0.3,-0.225,0,4,4,4,,,,,,,,,,None,86.81304060004186,86.81304060004186,86.81304060004186,86.81304060004186,86.81304060004186,86.81304060004186,j,0.6452621999196708,87.48075860005338,87.48075860005338,87.48075860005338,87.48075860005338,87.48075860005338,87.48075860005338,87.77722100005485,87.77722100005485,89.53860670002177,89.53860670002177,89.55542009999044,89.55542009999044,89.55542009999044,89.55542009999044,89.55542009999044,89.55542009999044,89.55542009999044,89.55542009999044,89.55542009999044,89.55542009999044,89.55542009999044,89.55542009999044,89.55542009999044,89.55542009999044,89.55542009999044,40,35,49,45,45,32,6.0,2.0937427000608295,,,[],[],[],[],[],[],[],-0.6,2,,,,,,,,,,,,[],[],[],[],[],[],[],,,,,None,None,94.1879450000124,95.77184750000015,92.06451840000227,92.06451840000227,92.06451840000227,92.06451840000227,92.06451840000227,,,,,,,,,,,,,,268,m,23,2023-03-26_16h59.58.367,RL,2022.2.4,60.06922378311125,
0,0.3,0.225,0,5,5,5,,,,,,,,,,None,95.77184750000015,95.77184750000015,95.77184750000015,95.77184750000015,95.77184750000015,95.77184750000015,j,0.5009568999521434,96.30428479996044,96.30428479996044,96.30428479996044,96.30428479996044,96.30428479996044,96.30428479996044,96.60320989997126,96.60320989997126,97.58332129998598,97.58332129998598,97.60031100001652,97.60031100001652,97.60031100001652,97.60031100001652,97.60031100001652,97.60031100001652,97.60031100001652,97.60031100001652,97.60031100001652,97.60031100001652,97.60031100001652,97.60031100001652,97.60031100001652,97.60031100001652,97.60031100001652,37,28,51,43,43,69,5.0,1.8441472999984398,,,[],[],[],[],[],[],[],0.6,3,,,,,,,,,,,,[],[],[],[],[],[],[],,,,,None,None,101.9792190999724,103.94935710006393,100.10899900004733,100.10899900004733,100.10899900004733,100.10899900004733,100.10899900004733,,,,,,,,,,,,,,268,m,23,2023-03-26_16h59.58.367,RL,2022.2.4,60.06922378311125,
1,-0.3,-0.225,0,6,6,6,,,,,,,,,,None,103.94935710006393,103.94935710006393,103.94935710006393,103.94935710006393,103.94935710006393,103.94935710006393,i,0.3643939000321552,104.33744939998724,104.33744939998724,104.33744939998724,104.33744939998724,104.33744939998724,104.33744939998724,104.63112400006503,104.63112400006503,106.06012300006114,106.06012300006114,106.076844300027,106.076844300027,106.076844300027,106.076844300027,106.076844300027,106.076844300027,106.076844300027,106.076844300027,106.076844300027,106.076844300027,106.076844300027,106.076844300027,106.076844300027,106.076844300027,106.076844300027,33,35,40,40,40,44,None,None,70,70,[-0.03888888888888889],[-0.3148148148148148],[1],[0],[0],[4.227394999936223],['tijiao'],0.2,0,,,,,,,,,,,,[],[],[],[],[],[],[],112.84014590003062,112.84014590003062,112.84014590003062,112.84014590003062,10.018518518518519,2.7767501999624074,115.63340539997444,117.27988200006075,,,,,,108.59342759998981,108.59342759998981,108.59342759998981,108.59342759998981,108.59342759998981,108.59342759998981,108.59342759998981,108.59342759998981,0.00740360002964735,108.59342759998981,,,,268,m,23,2023-03-26_16h59.58.367,RL,2022.2.4,60.06922378311125,
0,0.3,0.225,0,7,7,7,,,,,,,,,,None,117.27988200006075,117.27988200006075,117.27988200006075,117.27988200006075,117.27988200006075,117.27988200006075,i,0.434350399998948,117.74585309997201,117.74585309997201,117.74585309997201,117.74585309997201,117.74585309997201,117.74585309997201,118.04462880000938,118.04462880000938,119.87281580001581,119.87281580001581,119.88927409995813,119.88927409995813,119.88927409995813,119.88927409995813,119.88927409995813,119.88927409995813,119.88927409995813,119.88927409995813,119.88927409995813,119.88927409995813,119.88927409995813,119.88927409995813,119.88927409995813,119.88927409995813,119.88927409995813,39,41,51,43,51,41,6.0,1.677998899947852,,,[],[],[],[],[],[],[],0.6,3,,,,,,,,,,,,[],[],[],[],[],[],[],,,,,None,None,124.10558189998847,125.7730369999772,122.39857510000002,122.39857510000002,122.39857510000002,122.39857510000002,122.39857510000002,,,,,,,,,,,,,,268,m,23,2023-03-26_16h59.58.367,RL,2022.2.4,60.06922378311125,
1,-0.3,-0.225,0,8,8,8,,,,,,,,,,None,125.7730369999772,125.7730369999772,125.7730369999772,125.7730369999772,125.7730369999772,125.7730369999772,j,0.4924758999841288,126.2904986999929,126.2904986999929,126.2904986999929,126.2904986999929,126.2904986999929,126.2904986999929,126.58788040000945,126.58788040000945,128.15024099999573,128.15024099999573,128.15024099999573,128.15024099999573,128.15024099999573,128.15024099999573,128.15024099999573,128.15024099999573,128.15024099999573,128.15024099999573,128.15024099999573,128.15024099999573,128.15024099999573,128.15024099999573,128.15024099999573,128.15024099999573,128.15024099999573,40,38,48,48,48,32,6.0,1.7616184999933466,,,[],[],[],[],[],[],[],0.2,3,,,,,,,,,,,,[],[],[],[],[],[],[],,,,,None,None,132.4467737999512,134.43278739997186,130.6594555999618,130.6594555999618,130.6594555999618,130.6594555999618,130.6594555999618,,,,,,,,,,,,,,268,m,23,2023-03-26_16h59.58.367,RL,2022.2.4,60.06922378311125,
0,0.3,0.225,0,9,9,9,,,,,,,,,,None,134.43278739997186,134.43278739997186,134.43278739997186,134.43278739997186,134.43278739997186,134.43278739997186,j,0.49386649997904897,134.9494541999884,134.9494541999884,134.9494541999884,134.9494541999884,134.9494541999884,134.9494541999884,135.24729570001364,135.24729570001364,136.21164450002834,136.21164450002834,136.21164450002834,136.21164450002834,136.21164450002834,136.21164450002834,136.21164450002834,136.21164450002834,136.21164450002834,136.21164450002834,136.21164450002834,136.21164450002834,136.21164450002834,136.21164450002834,136.21164450002834,136.21164450002834,136.21164450002834,31,37,51,45,45,50,6.0,1.4449781000148505,,,[],[],[],[],[],[],[],0.2,3,,,,,,,,,,,,[],[],[],[],[],[],[],,,,,None,None,140.19105250004213,142.04515250003897,138.72052500001155,138.72052500001155,138.72052500001155,138.72052500001155,138.72052500001155,,,,,,,,,,,,,,268,m,23,2023-03-26_16h59.58.367,RL,2022.2.4,60.06922378311125,
1,-0.3,-0.225,0,10,10,10,,,,,,,,,,None,142.04515250003897,142.04515250003897,142.04515250003897,142.04515250003897,142.04515250003897,142.04515250003897,i,0.40774579998105764,142.48012650001328,142.48012650001328,142.48012650001328,142.48012650001328,142.48012650001328,142.48012650001328,142.77716970001347,142.77716970001347,144.58834150002804,144.58834150002804,144.58834150002804,144.58834150002804,144.58834150002804,144.58834150002804,144.58834150002804,144.58834150002804,144.58834150002804,144.58834150002804,144.58834150002804,144.58834150002804,144.58834150002804,144.58834150002804,144.58834150002804,144.58834150002804,144.58834150002804,33,37,49,48,49,54,None,None,,,[],[],[],[],[],[],[],0.2,1,147.10932389996015,147.10932389996015,147.10932389996015,147.10932389996015,147.10932389996015,147.10932389996015,147.10932389996015,147.10932389996015,0.006337200058624148,147.10932389996015,60,[0.10555555555555556],[-0.27870370370370373],[1],[0],[0],[3.1551373000256717],['tijiao_random_2'],150.2774149000179,150.2774149000179,150.2774149000179,150.2774149000179,9.907407407407407,2.2037592000560835,152.4992285000626,154.36184729996603,,,,,,,,,,,,,,,,,,,268,m,23,2023-03-26_16h59.58.367,RL,2022.2.4,60.06922378311125,
0,0.3,0.225,0,11,11,11,,,,,,,,,,None,154.36184729996603,154.36184729996603,154.36184729996603,154.36184729996603,154.36184729996603,154.36184729996603,f,0.4026120000053197,154.79507330001798,154.79507330001798,154.79507330001798,154.79507330001798,154.79507330001798,154.79507330001798,155.09346030000597,155.09346030000597,156.27355090004858,156.27355090004858,156.27355090004858,156.27355090004858,156.27355090004858,156.27355090004858,156.27355090004858,156.27355090004858,156.27355090004858,156.27355090004858,156.27355090004858,156.27355090004858,156.27355090004858,156.27355090004858,156.27355090004858,156.27355090004858,156.27355090004858,28,35,58,44,35,61,5.0,2.0103403000393882,,,[],[],[],[],[],[],[],0.6,3,,,,,,,,,,,,[],[],[],[],[],[],[],,,,,None,None,160.81961330003105,162.52280330006033,158.78232230001595,158.78232230001595,158.78232230001595,158.78232230001595,158.78232230001595,,,,,,,,,,,,,,268,m,23,2023-03-26_16h59.58.367,RL,2022.2.4,60.06922378311125,
1,-0.3,-0.225,0,12,12,12,,,,,,,,,,None,162.52280330006033,162.52280330006033,162.52280330006033,162.52280330006033,162.52280330006033,162.52280330006033,i,0.4081697999499738,162.9555859999964,162.9555859999964,162.9555859999964,162.9555859999964,162.9555859999964,162.9555859999964,163.2545645000646,163.2545645000646,164.5175475999713,164.5175475999713,164.5175475999713,164.5175475999713,164.5175475999713,164.5175475999713,164.5175475999713,164.5175475999713,164.5175475999713,164.5175475999713,164.5175475999713,164.5175475999713,164.5175475999713,164.5175475999713,164.5175475999713,164.5175475999713,164.5175475999713,35,23,54,44,54,62,None,None,64,64,[0.053703703703703705],[-0.3055555555555556],[1],[0],[0],[2.8652010000078008],['tijiao'],0.6,0,,,,,,,,,,,,[],[],[],[],[],[],[],169.9147735000588,169.9147735000588,169.9147735000588,169.9147735000588,8.564814814814815,2.5779092999873683,172.5111295999959,174.2742159999907,,,,,,167.02877820003778,167.02877820003778,167.02877820003778,167.02877820003778,167.02877820003778,167.02877820003778,167.02877820003778,167.02877820003778,0.00651320000179112,167.02877820003778,,,,268,m,23,2023-03-26_16h59.58.367,RL,2022.2.4,60.06922378311125,
0,0.3,0.225,0,13,13,13,,,,,,,,,,None,174.2742159999907,174.2742159999907,174.2742159999907,174.2742159999907,174.2742159999907,174.2742159999907,j,0.3489158999873325,174.64014390006196,174.64014390006196,174.64014390006196,174.64014390006196,174.64014390006196,174.64014390006196,174.9389490999747,174.9389490999747,176.3516783999512,176.3516783999512,176.3516783999512,176.3516783999512,176.3516783999512,176.3516783999512,176.3516783999512,176.3516783999512,176.3516783999512,176.3516783999512,176.3516783999512,176.3516783999512,176.3516783999512,176.3516783999512,176.3516783999512,176.3516783999512,176.3516783999512,28,31,53,47,47,63,None,None,,,[],[],[],[],[],[],[],-0.2,1,178.8721879000077,178.8721879000077,178.8721879000077,178.8721879000077,178.8721879000077,178.8721879000077,178.8721879000077,178.8721879000077,0.006146100000478327,178.8721879000077,49,[0.03425925925925926],[-0.28703703703703703],[1],[0],[0],[5.847559200017713],['tijiao_random_2'],184.73435769998468,184.73435769998468,184.73435769998468,184.73435769998468,9.157407407407408,1.7543044000631198,186.50635979999788,188.50200680003036,,,,,,,,,,,,,,,,,,,268,m,23,2023-03-26_16h59.58.367,RL,2022.2.4,60.06922378311125,
1,-0.3,-0.225,0,14,14,14,,,,,,,,,,None,188.50200680003036,188.50200680003036,188.50200680003036,188.50200680003036,188.50200680003036,188.50200680003036,j,0.33082339994143695,188.85322859999724,188.85322859999724,188.85322859999724,188.85322859999724,188.85322859999724,188.85322859999724,189.15057319996413,189.15057319996413,190.06477120006457,190.06477120006457,190.06477120006457,190.06477120006457,190.06477120006457,190.06477120006457,190.06477120006457,190.06477120006457,190.06477120006457,190.06477120006457,190.06477120006457,190.06477120006457,190.06477120006457,190.06477120006457,190.06477120006457,190.06477120006457,190.06477120006457,30,27,56,51,51,52,None,None,52,52,[-0.04537037037037037],[-0.26944444444444443],[1],[0],[0],[3.579567899927497],['tijiao'],-0.2,0,,,,,,,,,,,,[],[],[],[],[],[],[],196.17614830005914,196.17614830005914,196.17614830005914,196.17614830005914,9.824074074074074,1.7305694000096992,197.92566019995138,199.78775240003597,,,,,,192.57626690005418,192.57626690005418,192.57626690005418,192.57626690005418,192.57626690005418,192.57626690005418,192.57626690005418,192.57626690005418,0.0073850000044330955,192.57626690005418,,,,268,m,23,2023-03-26_16h59.58.367,RL,2022.2.4,60.06922378311125,
0,0.3,0.225,0,15,15,15,,,,,,,,,,None,199.78775240003597,199.78775240003597,199.78775240003597,199.78775240003597,199.78775240003597,199.78775240003597,j,0.32294240000192076,200.1395759000443,200.1395759000443,200.1395759000443,200.1395759000443,200.1395759000443,200.1395759000443,200.43655990005936,200.43655990005936,201.33370319998357,201.33370319998357,201.33370319998357,201.33370319998357,201.33370319998357,201.33370319998357,201.33370319998357,201.33370319998357,201.33370319998357,201.33370319998357,201.33370319998357,201.33370319998357,201.33370319998357,201.33370319998357,201.33370319998357,201.33370319998357,201.33370319998357,32,27,58,60,60,67,None,None,,,[],[],[],[],[],[],[],-0.2,1,203.8528731999686,203.8528731999686,203.8528731999686,203.8528731999686,203.8528731999686,203.8528731999686,203.8528731999686,203.8528731999686,0.006972700008191168,203.8528731999686,62,[0.026851851851851852],[-0.27870370370370373],[1],[0],[0],[3.9542567000025883],['tijiao_random_2'],207.82024639996234,207.82024639996234,207.82024639996234,207.82024639996234,8.972222222222223,1.95507079991512,209.792934600031,211.32305570004974,,,,,,,,,,,,,,,,,,,268,m,23,2023-03-26_16h59.58.367,RL,2022.2.4,60.06922378311125,
1,-0.3,-0.225,0,16,16,16,,,,,,,,,,None,211.32305570004974,211.32305570004974,211.32305570004974,211.32305570004974,211.32305570004974,211.32305570004974,j,0.31005120009649545,211.658369999961,211.658369999961,211.658369999961,211.658369999961,211.658369999961,211.658369999961,211.95502100000158,211.95502100000158,213.91616889997385,213.91616889997385,213.91616889997385,213.91616889997385,213.91616889997385,213.91616889997385,213.91616889997385,213.91616889997385,213.91616889997385,213.91616889997385,213.91616889997385,213.91616889997385,213.91616889997385,213.91616889997385,213.91616889997385,213.91616889997385,213.91616889997385,32,28,58,54,54,50,6.0,1.8609087999211624,,,[],[],[],[],[],[],[],-0.6,3,,,,,,,,,,,,[],[],[],[],[],[],[],,,,,None,None,218.31299590005074,219.91634380002506,216.42539280001074,216.42539280001074,216.42539280001074,216.42539280001074,216.42539280001074,,,,,,,,,,,,,,268,m,23,2023-03-26_16h59.58.367,RL,2022.2.4,60.06922378311125,
0,0.3,0.225,0,17,17,17,,,,,,,,,,None,219.91634380002506,219.91634380002506,219.91634380002506,219.91634380002506,219.91634380002506,219.91634380002506,j,0.3730641999281943,220.31606460001785,220.31606460001785,220.31606460001785,220.31606460001785,220.31606460001785,220.31606460001785,220.61468760005664,220.61468760005664,221.7612185999751,221.7612185999751,221.7612185999751,221.7612185999751,221.7612185999751,221.7612185999751,221.7612185999751,221.7612185999751,221.7612185999751,221.7612185999751,221.7612185999751,221.7612185999751,221.7612185999751,221.7612185999751,221.7612185999751,221.7612185999751,221.7612185999751,24,35,57,51,51,63,None,None,35,35,[0.03148148148148148],[-0.28425925925925927],[1],[0],[0],[6.257457599975169],['tijiao'],-0.6,0,,,,,,,,,,,,[],[],[],[],[],[],[],230.55073689995334,230.55073689995334,230.55073689995334,230.55073689995334,9.88888888888889,1.9112468999810517,232.48091130005196,234.16055360005703,,,,,,224.27154870005324,224.27154870005324,224.27154870005324,224.27154870005324,224.27154870005324,224.27154870005324,224.27154870005324,224.27154870005324,0.0055074000265449286,224.27154870005324,,,,268,m,23,2023-03-26_16h59.58.367,RL,2022.2.4,60.06922378311125,
1,-0.3,-0.225,0,18,18,18,,,,,,,,,,None,234.16055360005703,234.16055360005703,234.16055360005703,234.16055360005703,234.16055360005703,234.16055360005703,r,0.3944943998940289,234.57831330003683,234.57831330003683,234.57831330003683,234.57831330003683,234.57831330003683,234.57831330003683,234.87581800005864,234.87581800005864,236.85371779999696,236.85371779999696,236.85371779999696,236.85371779999696,236.85371779999696,236.85371779999696,236.85371779999696,236.85371779999696,236.85371779999696,236.85371779999696,236.85371779999696,236.85371779999696,236.85371779999696,236.85371779999696,236.85371779999696,236.85371779999696,236.85371779999696,33,35,59,44,33,65,6.0,1.8605816001072526,,,[],[],[],[],[],[],[],-0.2,3,,,,,,,,,,,,[],[],[],[],[],[],[],,,,,None,None,241.24777560005896,242.8533718000399,239.3627263000235,239.3627263000235,239.3627263000235,239.3627263000235,239.3627263000235,,,,,,,,,,,,,,268,m,23,2023-03-26_16h59.58.367,RL,2022.2.4,60.06922378311125,
0,0.3,0.225,0,19,19,19,,,,,,,,,,None,242.8533718000399,242.8533718000399,242.8533718000399,242.8533718000399,242.8533718000399,242.8533718000399,j,0.6469601999269798,243.51929329999257,243.51929329999257,243.51929329999257,243.51929329999257,243.51929329999257,243.51929329999257,243.8180386000313,243.8180386000313,244.8816376000177,244.8816376000177,244.8816376000177,244.8816376000177,244.8816376000177,244.8816376000177,244.8816376000177,244.8816376000177,244.8816376000177,244.8816376000177,244.8816376000177,244.8816376000177,244.8816376000177,244.8816376000177,244.8816376000177,244.8816376000177,244.8816376000177,32,28,60,34,34,47,None,None,,,[],[],[],[],[],[],[],0.2,1,247.40173689997755,247.40173689997755,247.40173689997755,247.40173689997755,247.40173689997755,247.40173689997755,247.40173689997755,247.40173689997755,0.006741999997757375,247.40173689997755,53,[-0.017592592592592594],[-0.28425925925925927],[1],[0],[0],[5.216821199981496],['tijiao_random_2'],252.6303991000168,252.6303991000168,252.6303991000168,252.6303991000168,9.824074074074074,1.955476599978283,254.60396510001738,256.4168459000066,,,,,,,,,,,,,,,,,,,268,m,23,2023-03-26_16h59.58.367,RL,2022.2.4,60.06922378311125,
1,-0.3,-0.225,0,20,20,20,,,,,,,,,,None,256.4168459000066,256.4168459000066,256.4168459000066,256.4168459000066,256.4168459000066,256.4168459000066,i,0.3208295999793336,256.7677727000555,256.7677727000555,256.7677727000555,256.7677727000555,256.7677727000555,256.7677727000555,257.0653430999955,257.0653430999955,257.9960184999509,257.9960184999509,257.9960184999509,257.9960184999509,257.9960184999509,257.9960184999509,257.9960184999509,257.9960184999509,257.9960184999509,257.9960184999509,257.9960184999509,257.9960184999509,257.9960184999509,257.9960184999509,257.9960184999509,257.9960184999509,257.9960184999509,33,45,61,43,61,63,7.0,3.290162799996324,,,[],[],[],[],[],[],[],0.2,3,,,,,,,,,,,,[],[],[],[],[],[],[],,,,,None,None,263.82359769998584,265.79091069998685,260.5050659000408,260.5050659000408,260.5050659000408,260.5050659000408,260.5050659000408,,,,,,,,,,,,,,268,m,23,2023-03-26_16h59.58.367,RL,2022.2.4,60.06922378311125,
0,0.3,0.225,0,21,21,21,,,,,,,,,,None,265.79091069998685,265.79091069998685,265.79091069998685,265.79091069998685,265.79091069998685,265.79091069998685,j,0.3769053000723943,266.19178280001506,266.19178280001506,266.19178280001506,266.19178280001506,266.19178280001506,266.19178280001506,266.48926139995456,266.48926139995456,268.1183091000421,268.1183091000421,268.1183091000421,268.1183091000421,268.1183091000421,268.1183091000421,268.1183091000421,268.1183091000421,268.1183091000421,268.1183091000421,268.1183091000421,268.1183091000421,268.1183091000421,268.1183091000421,268.1183091000421,268.1183091000421,268.1183091000421,36,29,54,46,46,59,6.0,2.3428921999875456,,,[],[],[],[],[],[],[],-0.6,2,,,,,,,,,,,,[],[],[],[],[],[],[],,,,,None,None,272.99864540004637,274.93268139997963,270.62737710005604,270.62737710005604,270.62737710005604,270.62737710005604,270.62737710005604,,,,,,,,,,,,,,268,m,23,2023-03-26_16h59.58.367,RL,2022.2.4,60.06922378311125,
1,-0.3,-0.225,0,22,22,22,,,,,,,,,,None,274.93268139997963,274.93268139997963,274.93268139997963,274.93268139997963,274.93268139997963,274.93268139997963,f,0.49472019996028394,275.4487127000466,275.4487127000466,275.4487127000466,275.4487127000466,275.4487127000466,275.4487127000466,275.7474555999506,275.7474555999506,277.35967759997584,277.35967759997584,277.376463899971,277.376463899971,277.376463899971,277.376463899971,277.376463899971,277.376463899971,277.376463899971,277.376463899971,277.376463899971,277.376463899971,277.376463899971,277.376463899971,277.376463899971,277.376463899971,277.376463899971,37,29,56,47,29,48,4.0,1.9940287000499666,,,[],[],[],[],[],[],[],0.6,3,,,,,,,,,,,,[],[],[],[],[],[],[],,,,,None,None,281.9066332000075,283.509309999994,279.8851974999998,279.8851974999998,279.8851974999998,279.8851974999998,279.8851974999998,,,,,,,,,,,,,,268,m,23,2023-03-26_16h59.58.367,RL,2022.2.4,60.06922378311125,
0,0.3,0.225,0,23,23,23,,,,,,,,,,None,283.509309999994,283.509309999994,283.509309999994,283.509309999994,283.509309999994,283.509309999994,j,0.5893008999992162,284.1258292000275,284.1258292000275,284.1258292000275,284.1258292000275,284.1258292000275,284.1258292000275,284.4235637000529,284.4235637000529,285.8698231000453,285.8698231000453,285.8698231000453,285.8698231000453,285.8698231000453,285.8698231000453,285.8698231000453,285.8698231000453,285.8698231000453,285.8698231000453,285.8698231000453,285.8698231000453,285.8698231000453,285.8698231000453,285.8698231000453,285.8698231000453,285.8698231000453,42,27,52,63,63,36,6.0,1.76135200005956,,,[],[],[],[],[],[],[],0.6,2,,,,,,,,,,,,[],[],[],[],[],[],[],,,,,None,None,290.1683420999907,291.8368062999798,288.3786758000497,288.3786758000497,288.3786758000497,288.3786758000497,288.3786758000497,,,,,,,,,,,,,,268,m,23,2023-03-26_16h59.58.367,RL,2022.2.4,60.06922378311125,
1,-0.3,-0.225,0,24,24,24,,,,,,,,,,None,291.8368062999798,291.8368062999798,291.8368062999798,291.8368062999798,291.8368062999798,291.8368062999798,i,0.35377689998131245,292.22121039999183,292.22121039999183,292.22121039999183,292.22121039999183,292.22121039999183,292.22121039999183,292.51850760006346,292.51850760006346,293.7147483000299,293.7147483000299,293.73157099995296,293.73157099995296,293.73157099995296,293.73157099995296,293.73157099995296,293.73157099995296,293.73157099995296,293.73157099995296,293.73157099995296,293.73157099995296,293.73157099995296,293.73157099995296,293.73157099995296,293.73157099995296,293.73157099995296,36,39,60,57,60,41,None,None,45,45,[-0.016666666666666666],[-0.31851851851851853],[1],[0],[0],[4.410693300073035],['tijiao'],-0.2,0,,,,,,,,,,,,[],[],[],[],[],[],[],300.6747117000632,300.6747117000632,300.6747117000632,300.6747117000632,9.935185185185187,2.2123219000641257,302.9056394000072,304.76819350000005,,,,,,296.2433256000513,296.2433256000513,296.2433256000513,296.2433256000513,296.2433256000513,296.2433256000513,296.2433256000513,296.2433256000513,0.0074583999812603,296.2433256000513,,,,268,m,23,2023-03-26_16h59.58.367,RL,2022.2.4,60.06922378311125,
0,0.3,0.225,0,25,25,25,,,,,,,,,,None,304.76819350000005,304.76819350000005,304.76819350000005,304.76819350000005,304.76819350000005,304.76819350000005,f,0.3534077999647707,305.1509745999938,305.1509745999938,305.1509745999938,305.1509745999938,305.1509745999938,305.1509745999938,305.44971930002794,305.44971930002794,307.19486920000054,307.19486920000054,307.19486920000054,307.19486920000054,307.19486920000054,307.19486920000054,307.19486920000054,307.19486920000054,307.19486920000054,307.19486920000054,307.19486920000054,307.19486920000054,307.19486920000054,307.19486920000054,307.19486920000054,307.19486920000054,307.19486920000054,45,38,52,53,38,46,None,None,,,[],[],[],[],[],[],[],0.6,1,309.7146088000154,309.7146088000154,309.7146088000154,309.7146088000154,309.7146088000154,309.7146088000154,309.7146088000154,309.7146088000154,0.006386199966073036,309.7146088000154,65,[-0.04537037037037037],[-0.26666666666666666],[1],[0],[0],[4.50146419997327],['tijiao_random_2'],314.23056279995944,314.23056279995944,314.23056279995944,314.23056279995944,9.12962962962963,1.654766899999231,315.9034176999703,317.73270399996545,,,,,,,,,,,,,,,,,,,268,m,23,2023-03-26_16h59.58.367,RL,2022.2.4,60.06922378311125,
1,-0.3,-0.225,0,26,26,26,,,,,,,,,,None,317.73270399996545,317.73270399996545,317.73270399996545,317.73270399996545,317.73270399996545,317.73270399996545,j,0.4055048000300303,318.1655028000241,318.1655028000241,318.1655028000241,318.1655028000241,318.1655028000241,318.1655028000241,318.46441470005084,318.46441470005084,320.1264877000358,320.1264877000358,320.1264877000358,320.1264877000358,320.1264877000358,320.1264877000358,320.1264877000358,320.1264877000358,320.1264877000358,320.1264877000358,320.1264877000358,320.1264877000358,320.1264877000358,320.1264877000358,320.1264877000358,320.1264877000358,320.1264877000358,39,34,52,45,45,41,6.0,2.010436800075695,,,[],[],[],[],[],[],[],0.2,2,,,,,,,,,,,,[],[],[],[],[],[],[],,,,,None,None,324.67136539996136,326.50890370004345,322.63558330002706,322.63558330002706,322.63558330002706,322.63558330002706,322.63558330002706,,,,,,,,,,,,,,268,m,23,2023-03-26_16h59.58.367,RL,2022.2.4,60.06922378311125,
0,0.3,0.225,0,27,27,27,,,,,,,,,,None,326.50890370004345,326.50890370004345,326.50890370004345,326.50890370004345,326.50890370004345,326.50890370004345,j,0.5540418999735266,327.091819299967,327.091819299967,327.091819299967,327.091819299967,327.091819299967,327.091819299967,327.39003580005374,327.39003580005374,328.50354780000634,328.50354780000634,328.50354780000634,328.50354780000634,328.50354780000634,328.50354780000634,328.50354780000634,328.50354780000634,328.50354780000634,328.50354780000634,328.50354780000634,328.50354780000634,328.50354780000634,328.50354780000634,328.50354780000634,328.50354780000634,328.50354780000634,40,26,51,57,57,69,None,None,62,62,[0.11388888888888889],[-0.30277777777777776],[1],[0],[0],[8.018139900057577],['tijiao'],-0.6,0,,,,,,,,,,,,[],[],[],[],[],[],[],339.052854700014,339.052854700014,339.052854700014,339.052854700014,9.13888888888889,1.8799748999299482,340.95152959995903,342.84715729998425,,,,,,331.01415349997114,331.01415349997114,331.01415349997114,331.01415349997114,331.01415349997114,331.01415349997114,331.01415349997114,331.01415349997114,0.006318500032648444,331.01415349997114,,,,268,m,23,2023-03-26_16h59.58.367,RL,2022.2.4,60.06922378311125,
1,-0.3,-0.225,0,28,28,28,,,,,,,,,,None,342.84715729998425,342.84715729998425,342.84715729998425,342.84715729998425,342.84715729998425,342.84715729998425,i,0.32339120004326105,343.19823209999595,343.19823209999595,343.19823209999595,343.19823209999595,343.19823209999595,343.19823209999595,343.4960307000438,343.4960307000438,344.3764646999771,344.3764646999771,344.3764646999771,344.3764646999771,344.3764646999771,344.3764646999771,344.3764646999771,344.3764646999771,344.3764646999771,344.3764646999771,344.3764646999771,344.3764646999771,344.3764646999771,344.3764646999771,344.3764646999771,344.3764646999771,344.3764646999771,36,26,59,52,59,61,None,None,,,[],[],[],[],[],[],[],-0.6,1,346.89606149995234,346.89606149995234,346.89606149995234,346.89606149995234,346.89606149995234,346.89606149995234,346.89606149995234,346.89606149995234,0.0068805000046268106,346.89606149995234,32,[-0.008333333333333333],[-0.2796296296296296],[1],[0],[0],[3.6880298000760376],['tijiao_random_2'],350.59846750006545,350.59846750006545,350.59846750006545,350.59846750006545,9.37037037037037,2.036572500015609,352.6531239000615,354.6320540000452,,,,,,,,,,,,,,,,,,,268,m,23,2023-03-26_16h59.58.367,RL,2022.2.4,60.06922378311125,
0,0.3,0.225,0,29,29,29,,,,,,,,,,None,354.6320540000452,354.6320540000452,354.6320540000452,354.6320540000452,354.6320540000452,354.6320540000452,r,0.30027609993703663,354.96534560003784,354.96534560003784,354.96534560003784,354.96534560003784,354.96534560003784,354.96534560003784,355.2638245000271,355.2638245000271,356.3442894000327,356.3442894000327,356.3442894000327,356.3442894000327,356.3442894000327,356.3442894000327,356.3442894000327,356.3442894000327,356.3442894000327,356.3442894000327,356.3442894000327,356.3442894000327,356.3442894000327,356.3442894000327,356.3442894000327,356.3442894000327,356.3442894000327,32,30,55,54,32,30,7.0,1.029719699989073,,,[],[],[],[],[],[],[],0.6,2,,,,,,,,,,,,[],[],[],[],[],[],[],,,,,None,None,359.91067700006533,361.71253160003107,358.85300320002716,358.85300320002716,358.85300320002716,358.85300320002716,358.85300320002716,,,,,,,,,,,,,,268,m,23,2023-03-26_16h59.58.367,RL,2022.2.4,60.06922378311125,
1,-0.3,-0.225,0,30,30,30,,,,,,,,,,None,361.71253160003107,361.71253160003107,361.71253160003107,361.71253160003107,361.71253160003107,361.71253160003107,j,0.502462999895215,362.2470710000489,362.2470710000489,362.2470710000489,362.2470710000489,362.2470710000489,362.2470710000489,362.5440534000518,362.5440534000518,363.3583269000519,363.3583269000519,363.3583269000519,363.3583269000519,363.3583269000519,363.3583269000519,363.3583269000519,363.3583269000519,363.3583269000519,363.3583269000519,363.3583269000519,363.3583269000519,363.3583269000519,363.3583269000519,363.3583269000519,363.3583269000519,363.3583269000519,40,33,49,52,52,47,6.0,1.0794371999800205,,,[],[],[],[],[],[],[],0.6,3,,,,,,,,,,,,[],[],[],[],[],[],[],,,,,None,None,366.97330890002195,368.77675860002637,365.8676693000598,365.8676693000598,365.8676693000598,365.8676693000598,365.8676693000598,,,,,,,,,,,,,,268,m,23,2023-03-26_16h59.58.367,RL,2022.2.4,60.06922378311125,
0,0.3,0.225,0,31,31,31,,,,,,,,,,None,368.77675860002637,368.77675860002637,368.77675860002637,368.77675860002637,368.77675860002637,368.77675860002637,j,0.5157497999025509,369.3258213000372,369.3258213000372,369.3258213000372,369.3258213000372,369.3258213000372,369.3258213000372,369.62452489999123,369.62452489999123,370.7380133999977,370.7380133999977,370.7380133999977,370.7380133999977,370.7380133999977,370.7380133999977,370.7380133999977,370.7380133999977,370.7380133999977,370.7380133999977,370.7380133999977,370.7380133999977,370.7380133999977,370.7380133999977,370.7380133999977,370.7380133999977,370.7380133999977,36,37,52,57,57,60,None,None,55,55,[0.06111111111111111],[-0.2777777777777778],[1],[0],[0],[5.31025260000024],['tijiao'],0.2,0,,,,,,,,,,,,[],[],[],[],[],[],[],378.57858900004067,378.57858900004067,378.57858900004067,378.57858900004067,10.222222222222223,2.2125459000235423,380.8098103000084,382.6723055000184,,,,,,373.24852230004035,373.24852230004035,373.24852230004035,373.24852230004035,373.24852230004035,373.24852230004035,373.24852230004035,373.24852230004035,0.00568940001539886,373.24852230004035,,,,268,m,23,2023-03-26_16h59.58.367,RL,2022.2.4,60.06922378311125,
1,-0.3,-0.225,0,32,32,32,,,,,,,,,,None,382.6723055000184,382.6723055000184,382.6723055000184,382.6723055000184,382.6723055000184,382.6723055000184,i,0.3463620999827981,383.0381014000159,383.0381014000159,383.0381014000159,383.0381014000159,383.0381014000159,383.0381014000159,383.3370181999635,383.3370181999635,384.5007919999771,384.5007919999771,384.5007919999771,384.5007919999771,384.5007919999771,384.5007919999771,384.5007919999771,384.5007919999771,384.5007919999771,384.5007919999771,384.5007919999771,384.5007919999771,384.5007919999771,384.5007919999771,384.5007919999771,384.5007919999771,384.5007919999771,38,33,58,58,58,64,None,None,45,45,[0.10462962962962963],[-0.3],[1],[0],[0],[4.212657599942759],['tijiao'],0.2,0,,,,,,,,,,,,[],[],[],[],[],[],[],391.2432320000371,391.2432320000371,391.2432320000371,391.2432320000371,9.11111111111111,2.3127963000442833,393.57461080001667,395.55333090003114,,,,,,387.0110214999877,387.0110214999877,387.0110214999877,387.0110214999877,387.0110214999877,387.0110214999877,387.0110214999877,387.0110214999877,0.005230600014328957,387.0110214999877,,,,268,m,23,2023-03-26_16h59.58.367,RL,2022.2.4,60.06922378311125,
0,0.3,0.225,0,33,33,33,,,,,,,,,,None,395.55333090003114,395.55333090003114,395.55333090003114,395.55333090003114,395.55333090003114,395.55333090003114,f,0.346948399906978,395.9196803000523,395.9196803000523,395.9196803000523,395.9196803000523,395.9196803000523,395.9196803000523,396.21889789996203,396.21889789996203,397.382269200054,397.382269200054,397.382269200054,397.382269200054,397.382269200054,397.382269200054,397.382269200054,397.382269200054,397.382269200054,397.382269200054,397.382269200054,397.382269200054,397.382269200054,397.382269200054,397.382269200054,397.382269200054,397.382269200054,38,26,46,59,26,58,4.0,1.6116951000876725,,,[],[],[],[],[],[],[],0.2,3,,,,,,,,,,,,[],[],[],[],[],[],[],,,,,None,None,401.53004400001373,403.18279910006095,399.89107250003144,399.89107250003144,399.89107250003144,399.89107250003144,399.89107250003144,,,,,,,,,,,,,,268,m,23,2023-03-26_16h59.58.367,RL,2022.2.4,60.06922378311125,
1,-0.3,-0.225,0,34,34,34,,,,,,,,,,None,403.18279910006095,403.18279910006095,403.18279910006095,403.18279910006095,403.18279910006095,403.18279910006095,j,0.3449096000986174,403.5488092000596,403.5488092000596,403.5488092000596,403.5488092000596,403.5488092000596,403.5488092000596,403.84758189995773,403.84758189995773,405.29406069999095,405.29406069999095,405.29406069999095,405.29406069999095,405.29406069999095,405.29406069999095,405.29406069999095,405.29406069999095,405.29406069999095,405.29406069999095,405.29406069999095,405.29406069999095,405.29406069999095,405.29406069999095,405.29406069999095,405.29406069999095,405.29406069999095,39,38,44,57,57,60,5.0,2.425782799953595,,,[],[],[],[],[],[],[],0.2,3,,,,,,,,,,,,[],[],[],[],[],[],[],,,,,None,None,410.2541067999555,411.7927092000609,407.80332619999535,407.80332619999535,407.80332619999535,407.80332619999535,407.80332619999535,,,,,,,,,,,,,,268,m,23,2023-03-26_16h59.58.367,RL,2022.2.4,60.06922378311125,
0,0.3,0.225,0,35,35,35,,,,,,,,,,None,411.7927092000609,411.7927092000609,411.7927092000609,411.7927092000609,411.7927092000609,411.7927092000609,j,0.524915200076066,412.3435138000641,412.3435138000641,412.3435138000641,412.3435138000641,412.3435138000641,412.3435138000641,412.6404289000202,412.6404289000202,414.3023870000616,414.3023870000616,414.3023870000616,414.3023870000616,414.3023870000616,414.3023870000616,414.3023870000616,414.3023870000616,414.3023870000616,414.3023870000616,414.3023870000616,414.3023870000616,414.3023870000616,414.3023870000616,414.3023870000616,414.3023870000616,414.3023870000616,43,32,53,59,59,53,None,None,,,[],[],[],[],[],[],[],-0.2,1,416.82167770003434,416.82167770003434,416.82167770003434,416.82167770003434,416.82167770003434,416.82167770003434,416.82167770003434,416.82167770003434,0.00645969994366169,416.82167770003434,43,[0.004629629629629629],[-0.2759259259259259],[1],[0],[0],[5.184124200022779],['tijiao_random_2'],422.0188128000591,422.0188128000591,422.0188128000591,422.0188128000591,10.00925925925926,1.8885325000155717,423.9251234000549,425.87060130003374,,,,,,,,,,,,,,,,,,,268,m,23,2023-03-26_16h59.58.367,RL,2022.2.4,60.06922378311125,
1,-0.3,-0.225,0,36,36,36,,,,,,,,,,None,425.87060130003374,425.87060130003374,425.87060130003374,425.87060130003374,425.87060130003374,425.87060130003374,f,0.29173890000674874,426.18820540001616,426.18820540001616,426.18820540001616,426.18820540001616,426.18820540001616,426.18820540001616,426.48616239998955,426.48616239998955,427.30016220000107,427.30016220000107,427.30016220000107,427.30016220000107,427.30016220000107,427.30016220000107,427.30016220000107,427.30016220000107,427.30016220000107,427.30016220000107,427.30016220000107,427.30016220000107,427.30016220000107,427.30016220000107,427.30016220000107,427.30016220000107,427.30016220000107,39,37,49,55,37,60,5.0,1.7279314999468625,,,[],[],[],[],[],[],[],-0.6,2,,,,,,,,,,,,[],[],[],[],[],[],[],,,,,None,None,431.56418470002245,433.41703410004266,429.80990100000054,429.80990100000054,429.80990100000054,429.80990100000054,429.80990100000054,,,,,,,,,,,,,,268,m,23,2023-03-26_16h59.58.367,RL,2022.2.4,60.06922378311125,
0,0.3,0.225,0,37,37,37,,,,,,,,,,None,433.41703410004266,433.41703410004266,433.41703410004266,433.41703410004266,433.41703410004266,433.41703410004266,j,0.3741551999701187,433.816632400034,433.816632400034,433.816632400034,433.816632400034,433.816632400034,433.816632400034,434.11539229995105,434.11539229995105,435.9265488999663,435.9265488999663,435.9265488999663,435.9265488999663,435.9265488999663,435.9265488999663,435.9265488999663,435.9265488999663,435.9265488999663,435.9265488999663,435.9265488999663,435.9265488999663,435.9265488999663,435.9265488999663,435.9265488999663,435.9265488999663,435.9265488999663,43,25,49,56,56,58,None,None,,,[],[],[],[],[],[],[],0.2,1,438.4461652999744,438.4461652999744,438.4461652999744,438.4461652999744,438.4461652999744,438.4461652999744,438.4461652999744,438.4461652999744,0.006288299919106066,438.4461652999744,51,[0.008333333333333333],[-0.275],[1],[0],[0],[5.681866700062528],['tijiao_random_2'],444.1404455000302,444.1404455000302,444.1404455000302,444.1404455000302,8.824074074074074,2.138026800006628,446.29771029995754,447.8609280999517,,,,,,,,,,,,,,,,,,,268,m,23,2023-03-26_16h59.58.367,RL,2022.2.4,60.06922378311125,
1,-0.3,-0.225,0,38,38,38,,,,,,,,,,None,447.8609280999517,447.8609280999517,447.8609280999517,447.8609280999517,447.8609280999517,447.8609280999517,i,0.31339999998454005,448.1952434000559,448.1952434000559,448.1952434000559,448.1952434000559,448.1952434000559,448.1952434000559,448.4929457999533,448.4929457999533,449.63928260002285,449.63928260002285,449.63928260002285,449.63928260002285,449.63928260002285,449.63928260002285,449.63928260002285,449.63928260002285,449.63928260002285,449.63928260002285,449.63928260002285,449.63928260002285,449.63928260002285,449.63928260002285,449.63928260002285,449.63928260002285,449.63928260002285,44,32,48,54,48,66,None,None,51,51,[0.11203703703703703],[-0.30185185185185187],[1],[0],[0],[7.0375553000485525],['tijiao'],0.2,0,,,,,,,,,,,,[],[],[],[],[],[],[],459.2091278999578,459.2091278999578,459.2091278999578,459.2091278999578,10.194444444444445,1.879312300006859,461.10712209995836,462.72019370005,,,,,,452.15113979997113,452.15113979997113,452.15113979997113,452.15113979997113,452.15113979997113,452.15113979997113,452.15113979997113,452.15113979997113,0.0070451999781653285,452.15113979997113,,,,268,m,23,2023-03-26_16h59.58.367,RL,2022.2.4,60.06922378311125,
0,0.3,0.225,0,39,39,39,,,,,,,,,,None,462.72019370005,462.72019370005,462.72019370005,462.72019370005,462.72019370005,462.72019370005,j,0.2680304000386968,463.0203519000206,463.0203519000206,463.0203519000206,463.0203519000206,463.0203519000206,463.0203519000206,463.3185984999873,463.3185984999873,465.3134284999687,465.3134284999687,465.3299704999663,465.3299704999663,465.3299704999663,465.3299704999663,465.3299704999663,465.3299704999663,465.3299704999663,465.3299704999663,465.3299704999663,465.3299704999663,465.3299704999663,465.3299704999663,465.3299704999663,465.3299704999663,465.3299704999663,40,33,44,54,54,41,6.0,1.8611187000060454,,,[],[],[],[],[],[],[],0.2,2,,,,,,,,,,,,[],[],[],[],[],[],[],,,,,None,None,469.7254790000152,471.2804268000182,467.83923559996765,467.83923559996765,467.83923559996765,467.83923559996765,467.83923559996765,,,,,,,,,,,,,,268,m,23,2023-03-26_16h59.58.367,RL,2022.2.4,60.06922378311125,
1,-0.3,-0.225,0,40,40,40,,,,,,,,,,None,471.2804268000182,471.2804268000182,471.2804268000182,471.2804268000182,471.2804268000182,471.2804268000182,j,0.45363170001655817,471.76354910002556,471.76354910002556,471.76354910002556,471.76354910002556,471.76354910002556,471.76354910002556,472.0615336999763,472.0615336999763,473.0590788000263,473.0590788000263,473.0590788000263,473.0590788000263,473.0590788000263,473.0590788000263,473.0590788000263,473.0590788000263,473.0590788000263,473.0590788000263,473.0590788000263,473.0590788000263,473.0590788000263,473.0590788000263,473.0590788000263,473.0590788000263,473.0590788000263,43,37,45,54,54,57,None,None,,,[],[],[],[],[],[],[],-0.2,1,475.5788265999872,475.5788265999872,475.5788265999872,475.5788265999872,475.5788265999872,475.5788265999872,475.5788265999872,475.5788265999872,0.006594099919311702,475.5788265999872,43,[0.0962962962962963],[-0.27870370370370373],[1],[0],[0],[3.604326199973002],['tijiao_random_2'],479.19514239998534,479.19514239998534,479.19514239998534,479.19514239998534,8.314814814814815,1.5400299000320956,480.75356820004527,482.64935219998006,,,,,,,,,,,,,,,,,,,268,m,23,2023-03-26_16h59.58.367,RL,2022.2.4,60.06922378311125,
0,0.3,0.225,0,41,41,41,,,,,,,,,,None,482.64935219998006,482.64935219998006,482.64935219998006,482.64935219998006,482.64935219998006,482.64935219998006,f,0.2730885000200942,482.9506134999683,482.9506134999683,482.9506134999683,482.9506134999683,482.9506134999683,482.9506134999683,483.24765140004456,483.24765140004456,485.12609789997805,485.12609789997805,485.12609789997805,485.12609789997805,485.12609789997805,485.12609789997805,485.12609789997805,485.12609789997805,485.12609789997805,485.12609789997805,485.12609789997805,485.12609789997805,485.12609789997805,485.12609789997805,485.12609789997805,485.12609789997805,485.12609789997805,48,40,45,48,40,60,6.0,1.6449868000345305,,,[],[],[],[],[],[],[],0.6,3,,,,,,,,,,,,[],[],[],[],[],[],[],,,,,None,None,489.30748630000744,491.192425700021,487.63532919995487,487.63532919995487,487.63532919995487,487.63532919995487,487.63532919995487,,,,,,,,,,,,,,268,m,23,2023-03-26_16h59.58.367,RL,2022.2.4,60.06922378311125,
1,-0.3,-0.225,0,42,42,42,,,,,,,,,,None,491.192425700021,491.192425700021,491.192425700021,491.192425700021,491.192425700021,491.192425700021,j,0.3850978999398649,491.60849859996233,491.60849859996233,491.60849859996233,491.60849859996233,491.60849859996233,491.60849859996233,491.9073713000398,491.9073713000398,493.0377070000395,493.0377070000395,493.0377070000395,493.0377070000395,493.0377070000395,493.0377070000395,493.0377070000395,493.0377070000395,493.0377070000395,493.0377070000395,493.0377070000395,493.0377070000395,493.0377070000395,493.0377070000395,493.0377070000395,493.0377070000395,493.0377070000395,38,44,46,42,42,59,4.0,1.7777953000040725,,,[],[],[],[],[],[],[],0.6,3,,,,,,,,,,,,[],[],[],[],[],[],[],,,,,None,None,497.35295900003985,499.2870814000489,495.54702179995365,495.54702179995365,495.54702179995365,495.54702179995365,495.54702179995365,,,,,,,,,,,,,,268,m,23,2023-03-26_16h59.58.367,RL,2022.2.4,60.06922378311125,
0,0.3,0.225,0,43,43,43,,,,,,,,,,None,499.2870814000489,499.2870814000489,499.2870814000489,499.2870814000489,499.2870814000489,499.2870814000489,i,0.3426081999205053,499.65528549999,499.65528549999,499.65528549999,499.65528549999,499.65528549999,499.65528549999,499.9524933999637,499.9524933999637,501.31534720002674,501.31534720002674,501.31534720002674,501.31534720002674,501.31534720002674,501.31534720002674,501.31534720002674,501.31534720002674,501.31534720002674,501.31534720002674,501.31534720002674,501.31534720002674,501.31534720002674,501.31534720002674,501.31534720002674,501.31534720002674,501.31534720002674,40,35,41,44,41,57,None,None,,,[],[],[],[],[],[],[],-0.2,1,503.8338742000051,503.8338742000051,503.8338742000051,503.8338742000051,503.8338742000051,503.8338742000051,503.8338742000051,503.8338742000051,0.00631910003721714,503.8338742000051,35,[0.0787037037037037],[-0.30648148148148147],[1],[0],[0],[6.164671099977568],['tijiao_random_2'],510.01208500005305,510.01208500005305,510.01208500005305,510.01208500005305,8.074074074074073,1.4391891000559554,511.4695706999628,513.3320509999758,,,,,,,,,,,,,,,,,,,268,m,23,2023-03-26_16h59.58.367,RL,2022.2.4,60.06922378311125,
1,-0.3,-0.225,0,44,44,44,,,,,,,,,,None,513.3320509999758,513.3320509999758,513.3320509999758,513.3320509999758,513.3320509999758,513.3320509999758,f,0.34629590006079525,513.6999686000636,513.6999686000636,513.6999686000636,513.6999686000636,513.6999686000636,513.6999686000636,513.9973182999529,513.9973182999529,515.3603869000217,515.3603869000217,515.3603869000217,515.3603869000217,515.3603869000217,515.3603869000217,515.3603869000217,515.3603869000217,515.3603869000217,515.3603869000217,515.3603869000217,515.3603869000217,515.3603869000217,515.3603869000217,515.3603869000217,515.3603869000217,515.3603869000217,34,31,45,53,31,61,None,None,43,43,[-0.012037037037037037],[-0.2722222222222222],[1],[0],[0],[5.275592399993911],['tijiao'],0.6,0,,,,,,,,,,,,[],[],[],[],[],[],[],523.1699192000087,523.1699192000087,523.1699192000087,523.1699192000087,7.435185185185185,1.7944193999283016,524.9829007999506,526.6954708000412,,,,,,517.870942199952,517.870942199952,517.870942199952,517.870942199952,517.870942199952,517.870942199952,517.870942199952,517.870942199952,0.006513300002552569,517.870942199952,,,,268,m,23,2023-03-26_16h59.58.367,RL,2022.2.4,60.06922378311125,
0,0.3,0.225,0,45,45,45,,,,,,,,,,None,526.6954708000412,526.6954708000412,526.6954708000412,526.6954708000412,526.6954708000412,526.6954708000412,f,0.48851059994194657,527.2115655000089,527.2115655000089,527.2115655000089,527.2115655000089,527.2115655000089,527.2115655000089,527.5105530000292,527.5105530000292,529.1061470999848,529.1061470999848,529.1061470999848,529.1061470999848,529.1061470999848,529.1061470999848,529.1061470999848,529.1061470999848,529.1061470999848,529.1061470999848,529.1061470999848,529.1061470999848,529.1061470999848,529.1061470999848,529.1061470999848,529.1061470999848,529.1061470999848,35,35,44,51,35,27,6.0,1.694437599973753,,,[],[],[],[],[],[],[],-0.6,2,,,,,,,,,,,,[],[],[],[],[],[],[],,,,,None,None,533.33679760003,535.288975100033,531.6150690000504,531.6150690000504,531.6150690000504,531.6150690000504,531.6150690000504,,,,,,,,,,,,,,268,m,23,2023-03-26_16h59.58.367,RL,2022.2.4,60.06922378311125,
1,-0.3,-0.225,0,46,46,46,,,,,,,,,,None,535.288975100033,535.288975100033,535.288975100033,535.288975100033,535.288975100033,535.288975100033,j,0.340839899959974,535.6551501000067,535.6551501000067,535.6551501000067,535.6551501000067,535.6551501000067,535.6551501000067,535.9542341000633,535.9542341000633,537.8988027999876,537.8988027999876,537.8988027999876,537.8988027999876,537.8988027999876,537.8988027999876,537.8988027999876,537.8988027999876,537.8988027999876,537.8988027999876,537.8988027999876,537.8988027999876,537.8988027999876,537.8988027999876,537.8988027999876,537.8988027999876,537.8988027999876,33,31,51,62,62,61,7.0,1.395823400001973,,,[],[],[],[],[],[],[],0.6,3,,,,,,,,,,,,[],[],[],[],[],[],[],,,,,None,None,541.8321213000454,543.7827546000481,540.4077469999902,540.4077469999902,540.4077469999902,540.4077469999902,540.4077469999902,,,,,,,,,,,,,,268,m,23,2023-03-26_16h59.58.367,RL,2022.2.4,60.06922378311125,
0,0.3,0.225,0,47,47,47,,,,,,,,,,None,543.7827546000481,543.7827546000481,543.7827546000481,543.7827546000481,543.7827546000481,543.7827546000481,i,0.31716970005072653,544.1319477000507,544.1319477000507,544.1319477000507,544.1319477000507,544.1319477000507,544.1319477000507,544.4305859999731,544.4305859999731,545.3450378000271,545.3450378000271,545.3450378000271,545.3450378000271,545.3450378000271,545.3450378000271,545.3450378000271,545.3450378000271,545.3450378000271,545.3450378000271,545.3450378000271,545.3450378000271,545.3450378000271,545.3450378000271,545.3450378000271,545.3450378000271,545.3450378000271,48,30,46,44,46,61,5.0,1.8108306999783963,,,[],[],[],[],[],[],[],0.6,3,,,,,,,,,,,,[],[],[],[],[],[],[],,,,,None,None,549.691855299985,551.295028100023,547.8542071999982,547.8542071999982,547.8542071999982,547.8542071999982,547.8542071999982,,,,,,,,,,,,,,268,m,23,2023-03-26_16h59.58.367,RL,2022.2.4,60.06922378311125,
1,-0.3,-0.225,0,48,48,48,,,,,,,,,,None,551.295028100023,551.295028100023,551.295028100023,551.295028100023,551.295028100023,551.295028100023,r,0.3472932999720797,551.66128999996,551.66128999996,551.66128999996,551.66128999996,551.66128999996,551.66128999996,551.9600683000172,551.9600683000172,553.4061306000222,553.4061306000222,553.4061306000222,553.4061306000222,553.4061306000222,553.4061306000222,553.4061306000222,553.4061306000222,553.4061306000222,553.4061306000222,553.4061306000222,553.4061306000222,553.4061306000222,553.4061306000222,553.4061306000222,553.4061306000222,553.4061306000222,49,34,49,59,49,63,None,None,32,32,[0.06481481481481481],[-0.27870370370370373],[1],[0],[0],[5.939645600039512],['tijiao'],0.2,0,,,,,,,,,,,,[],[],[],[],[],[],[],561.8788180999691,561.8788180999691,561.8788180999691,561.8788180999691,9.12962962962963,2.1621218000072986,564.0593913999619,565.9720093000215,,,,,,555.9187342999503,555.9187342999503,555.9187342999503,555.9187342999503,555.9187342999503,555.9187342999503,555.9187342999503,555.9187342999503,0.0075281000463292,555.9187342999503,,,,268,m,23,2023-03-26_16h59.58.367,RL,2022.2.4,60.06922378311125,
0,0.3,0.225,0,49,49,49,,,,,,,,,,None,565.9720093000215,565.9720093000215,565.9720093000215,565.9720093000215,565.9720093000215,565.9720093000215,r,0.384335899958387,566.3880298000295,566.3880298000295,566.3880298000295,566.3880298000295,566.3880298000295,566.3880298000295,566.6866691999603,566.6866691999603,568.648203699966,568.648203699966,568.648203699966,568.648203699966,568.648203699966,568.648203699966,568.648203699966,568.648203699966,568.648203699966,568.648203699966,568.648203699966,568.648203699966,568.648203699966,568.648203699966,568.648203699966,568.648203699966,568.648203699966,44,39,56,56,44,57,5.0,1.0966882000211626,,,[],[],[],[],[],[],[],-0.6,2,,,,,,,,,,,,[],[],[],[],[],[],[],,,,,None,None,572.2824922000291,574.2493795000482,571.1573658999987,571.1573658999987,571.1573658999987,571.1573658999987,571.1573658999987,,,,,,,,,,,,,,268,m,23,2023-03-26_16h59.58.367,RL,2022.2.4,60.06922378311125,
1,-0.3,-0.225,0,50,50,50,,,,,,,,,,None,574.2493795000482,574.2493795000482,574.2493795000482,574.2493795000482,574.2493795000482,574.2493795000482,i,0.3926831999560818,574.6676447000355,574.6676447000355,574.6676447000355,574.6676447000355,574.6676447000355,574.6676447000355,574.964305600035,574.964305600035,575.9946781999897,575.9946781999897,575.9946781999897,575.9946781999897,575.9946781999897,575.9946781999897,575.9946781999897,575.9946781999897,575.9946781999897,575.9946781999897,575.9946781999897,575.9946781999897,575.9946781999897,575.9946781999897,575.9946781999897,575.9946781999897,575.9946781999897,49,49,54,54,54,51,6.0,1.7105429999064654,,,[],[],[],[],[],[],[],-0.6,2,,,,,,,,,,,,[],[],[],[],[],[],[],,,,,None,None,580.2410790000577,581.7619772000471,578.5038966999855,578.5038966999855,578.5038966999855,578.5038966999855,578.5038966999855,,,,,,,,,,,,,,268,m,23,2023-03-26_16h59.58.367,RL,2022.2.4,60.06922378311125,
0,0.3,0.225,0,51,51,51,,,,,,,,,,None,581.7619772000471,581.7619772000471,581.7619772000471,581.7619772000471,581.7619772000471,581.7619772000471,j,0.5921420999802649,582.3776485000271,582.3776485000271,582.3776485000271,582.3776485000271,582.3776485000271,582.3776485000271,582.676689999993,582.676689999993,584.6710495000007,584.6710495000007,584.6710495000007,584.6710495000007,584.6710495000007,584.6710495000007,584.6710495000007,584.6710495000007,584.6710495000007,584.6710495000007,584.6710495000007,584.6710495000007,584.6710495000007,584.6710495000007,584.6710495000007,584.6710495000007,584.6710495000007,40,36,53,51,51,30,None,None,53,53,[0.1361111111111111],[-0.2638888888888889],[1],[0],[0],[7.103891399921849],['tijiao'],-0.6,0,,,,,,,,,,,,[],[],[],[],[],[],[],594.308624700061,594.308624700061,594.308624700061,594.308624700061,9.24074074074074,2.2931832999456674,596.6205709000351,598.4666603000369,,,,,,587.1821968000149,587.1821968000149,587.1821968000149,587.1821968000149,587.1821968000149,587.1821968000149,587.1821968000149,587.1821968000149,0.006442699930630624,587.1821968000149,,,,268,m,23,2023-03-26_16h59.58.367,RL,2022.2.4,60.06922378311125,
1,-0.3,-0.225,0,52,52,52,,,,,,,,,,None,598.4666603000369,598.4666603000369,598.4666603000369,598.4666603000369,598.4666603000369,598.4666603000369,i,0.2683490999042988,598.7672512000427,598.7672512000427,598.7672512000427,598.7672512000427,598.7672512000427,598.7672512000427,599.0652741000522,599.0652741000522,600.2786971000023,600.2786971000023,600.2786971000023,600.2786971000023,600.2786971000023,600.2786971000023,600.2786971000023,600.2786971000023,600.2786971000023,600.2786971000023,600.2786971000023,600.2786971000023,600.2786971000023,600.2786971000023,600.2786971000023,600.2786971000023,600.2786971000023,45,46,49,53,49,31,None,None,45,45,[0.05555555555555555],[-0.3212962962962963],[1],[0],[0],[4.344674099935219],['tijiao'],0.6,0,,,,,,,,,,,,[],[],[],[],[],[],[],607.1568041000282,607.1568041000282,607.1568041000282,607.1568041000282,7.907407407407407,1.8780125000048429,609.0534554000478,610.600220900029,,,,,,602.7885367999552,602.7885367999552,602.7885367999552,602.7885367999552,602.7885367999552,602.7885367999552,602.7885367999552,602.7885367999552,0.006060600047931075,602.7885367999552,,,,268,m,23,2023-03-26_16h59.58.367,RL,2022.2.4,60.06922378311125,
0,0.3,0.225,0,53,53,53,,,,,,,,,,None,610.600220900029,610.600220900029,610.600220900029,610.600220900029,610.600220900029,610.600220900029,f,0.31656499998643994,610.9497685000533,610.9497685000533,610.9497685000533,610.9497685000533,610.9497685000533,610.9497685000533,611.2484192999545,611.2484192999545,612.0628777999664,612.0628777999664,612.0628777999664,612.0628777999664,612.0628777999664,612.0628777999664,612.0628777999664,612.0628777999664,612.0628777999664,612.0628777999664,612.0628777999664,612.0628777999664,612.0628777999664,612.0628777999664,612.0628777999664,612.0628777999664,612.0628777999664,54,46,45,50,46,52,None,None,,,[],[],[],[],[],[],[],0.6,1,614.5832042000256,614.5832042000256,614.5832042000256,614.5832042000256,614.5832042000256,614.5832042000256,614.5832042000256,614.5832042000256,0.006383799947798252,614.5832042000256,57,[0.025925925925925925],[-0.25925925925925924],[1],[0],[0],[4.734405600000173],['tijiao_random_2'],619.3317370000295,619.3317370000295,619.3317370000295,619.3317370000295,9.055555555555555,1.6217827000655234,620.9708683000645,622.8167996000266,,,,,,,,,,,,,,,,,,,268,m,23,2023-03-26_16h59.58.367,RL,2022.2.4,60.06922378311125,
1,-0.3,-0.225,0,54,54,54,,,,,,,,,,None,622.8167996000266,622.8167996000266,622.8167996000266,622.8167996000266,622.8167996000266,622.8167996000266,j,0.25748129992280155,623.1008245999692,623.1008245999692,623.1008245999692,623.1008245999692,623.1008245999692,623.1008245999692,623.3988509000046,623.3988509000046,624.6784762999741,624.6784762999741,624.6784762999741,624.6784762999741,624.6784762999741,624.6784762999741,624.6784762999741,624.6784762999741,624.6784762999741,624.6784762999741,624.6784762999741,624.6784762999741,624.6784762999741,624.6784762999741,624.6784762999741,624.6784762999741,624.6784762999741,49,38,56,51,51,57,None,None,32,32,[0.062037037037037036],[-0.3055555555555556],[1],[0],[0],[5.024887699983083],['tijiao'],-0.2,0,,,,,,,,,,,,[],[],[],[],[],[],[],632.2360442000208,632.2360442000208,632.2360442000208,632.2360442000208,8.148148148148149,1.5318261999636889,633.7858105000341,635.5319105000235,,,,,,627.1904559000395,627.1904559000395,627.1904559000395,627.1904559000395,627.1904559000395,627.1904559000395,627.1904559000395,627.1904559000395,0.007148799952119589,627.1904559000395,,,,268,m,23,2023-03-26_16h59.58.367,RL,2022.2.4,60.06922378311125,
0,0.3,0.225,0,55,55,55,,,,,,,,,,None,635.5319105000235,635.5319105000235,635.5319105000235,635.5319105000235,635.5319105000235,635.5319105000235,r,0.45867169997654855,636.0148052000441,636.0148052000441,636.0148052000441,636.0148052000441,636.0148052000441,636.0148052000441,636.3137025999604,636.3137025999604,637.5098715999629,637.5098715999629,637.5266071000369,637.5266071000369,637.5266071000369,637.5266071000369,637.5266071000369,637.5266071000369,637.5266071000369,637.5266071000369,637.5266071000369,637.5266071000369,637.5266071000369,637.5266071000369,637.5266071000369,637.5266071000369,637.5266071000369,56,39,48,56,56,57,None,None,,,[],[],[],[],[],[],[],0.2,1,640.045990100014,640.045990100014,640.045990100014,640.045990100014,640.045990100014,640.045990100014,640.045990100014,640.045990100014,0.006590700009837747,640.045990100014,53,[0.03981481481481482],[-0.30925925925925923],[1],[0],[0],[7.7603276000590995],['tijiao_random_2'],647.8204550000373,647.8204550000373,647.8204550000373,647.8204550000373,7.8240740740740735,3.3335630000801757,651.1718440999975,652.9512528000632,,,,,,,,,,,,,,,,,,,268,m,23,2023-03-26_16h59.58.367,RL,2022.2.4,60.06922378311125,
1,-0.3,-0.225,0,56,56,56,,,,,,,,,,None,652.9512528000632,652.9512528000632,652.9512528000632,652.9512528000632,652.9512528000632,652.9512528000632,i,0.2260701999766752,653.201498499955,653.201498499955,653.201498499955,653.201498499955,653.201498499955,653.201498499955,653.499760900042,653.499760900042,655.1950773999561,655.1950773999561,655.1950773999561,655.1950773999561,655.1950773999561,655.1950773999561,655.1950773999561,655.1950773999561,655.1950773999561,655.1950773999561,655.1950773999561,655.1950773999561,655.1950773999561,655.1950773999561,655.1950773999561,655.1950773999561,655.1950773999561,57,44,54,57,54,61,None,None,43,43,[0.02962962962962963],[-0.3212962962962963],[1],[0],[0],[6.072577300015837],['tijiao'],0.2,0,,,,,,,,,,,,[],[],[],[],[],[],[],663.8025850000558,663.8025850000558,663.8025850000558,663.8025850000558,7.9907407407407405,1.7944064000621438,665.6155394000234,667.528215700062,,,,,,657.7072121000383,657.7072121000383,657.7072121000383,657.7072121000383,657.7072121000383,657.7072121000383,657.7072121000383,657.7072121000383,0.007668499951250851,657.7072121000383,,,,268,m,23,2023-03-26_16h59.58.367,RL,2022.2.4,60.06922378311125,
0,0.3,0.225,0,57,57,57,,,,,,,,,,None,667.528215700062,667.528215700062,667.528215700062,667.528215700062,667.528215700062,667.528215700062,i,0.27406140009406954,667.8298539000098,667.8298539000098,667.8298539000098,667.8298539000098,667.8298539000098,667.8298539000098,668.1266109000426,668.1266109000426,669.4230582000455,669.4230582000455,669.4230582000455,669.4230582000455,669.4230582000455,669.4230582000455,669.4230582000455,669.4230582000455,669.4230582000455,669.4230582000455,669.4230582000455,669.4230582000455,669.4230582000455,669.4230582000455,669.4230582000455,669.4230582000455,669.4230582000455,44,37,57,53,57,49,6.0,1.5286229000193998,,,[],[],[],[],[],[],[],-0.2,2,,,,,,,,,,,,[],[],[],[],[],[],[],,,,,None,None,673.4898756999755,675.0245288000442,671.9322818999644,671.9322818999644,671.9322818999644,671.9322818999644,671.9322818999644,,,,,,,,,,,,,,268,m,23,2023-03-26_16h59.58.367,RL,2022.2.4,60.06922378311125,
1,-0.3,-0.225,0,58,58,58,,,,,,,,,,None,675.0245288000442,675.0245288000442,675.0245288000442,675.0245288000442,675.0245288000442,675.0245288000442,i,0.4596912000561133,675.5065957000479,675.5065957000479,675.5065957000479,675.5065957000479,675.5065957000479,675.5065957000479,675.8058704000432,675.8058704000432,677.4510611000005,677.4510611000005,677.4510611000005,677.4510611000005,677.4510611000005,677.4510611000005,677.4510611000005,677.4510611000005,677.4510611000005,677.4510611000005,677.4510611000005,677.4510611000005,677.4510611000005,677.4510611000005,677.4510611000005,677.4510611000005,677.4510611000005,55,36,58,49,58,39,None,None,53,53,[0.1111111111111111],[-0.3055555555555556],[1],[0],[0],[7.668571999995038],['tijiao'],0.2,0,,,,,,,,,,,,[],[],[],[],[],[],[],687.6526881000027,687.6526881000027,687.6526881000027,687.6526881000027,8.935185185185185,1.180704400059767,688.8521769000217,690.4324162000557,,,,,,679.9625020000385,679.9625020000385,679.9625020000385,679.9625020000385,679.9625020000385,679.9625020000385,679.9625020000385,679.9625020000385,0.006905500078573823,679.9625020000385,,,,268,m,23,2023-03-26_16h59.58.367,RL,2022.2.4,60.06922378311125,
0,0.3,0.225,0,59,59,59,,,,,,,,,,None,690.4324162000557,690.4324162000557,690.4324162000557,690.4324162000557,690.4324162000557,690.4324162000557,j,0.5797422000905499,691.0320358000463,691.0320358000463,691.0320358000463,691.0320358000463,691.0320358000463,691.0320358000463,691.3301442000084,691.3301442000084,692.9257043000543,692.9257043000543,692.9257043000543,692.9257043000543,692.9257043000543,692.9257043000543,692.9257043000543,692.9257043000543,692.9257043000543,692.9257043000543,692.9257043000543,692.9257043000543,692.9257043000543,692.9257043000543,692.9257043000543,692.9257043000543,692.9257043000543,50,52,48,44,44,46,6.0,1.2125945000443608,,,[],[],[],[],[],[],[],0.2,3,,,,,,,,,,,,[],[],[],[],[],[],[],,,,,None,None,696.6743594000582,698.2942113999743,695.4347435999662,695.4347435999662,695.4347435999662,695.4347435999662,695.4347435999662,,,,,,,,,,,,,,268,m,23,2023-03-26_16h59.58.367,RL,2022.2.4,60.06922378311125,
1,-0.3,-0.225,0,60,60,60,,,,,,,,,,None,698.2942113999743,698.2942113999743,698.2942113999743,698.2942113999743,698.2942113999743,698.2942113999743,j,0.4747694000834599,698.7944131999975,698.7944131999975,698.7944131999975,698.7944131999975,698.7944131999975,698.7944131999975,699.0924261000473,699.0924261000473,699.9899761000415,699.9899761000415,699.9899761000415,699.9899761000415,699.9899761000415,699.9899761000415,699.9899761000415,699.9899761000415,699.9899761000415,699.9899761000415,699.9899761000415,699.9899761000415,699.9899761000415,699.9899761000415,699.9899761000415,699.9899761000415,699.9899761000415,48,38,52,53,53,53,6.0,1.4450020999647677,,,[],[],[],[],[],[],[],0.6,2,,,,,,,,,,,,[],[],[],[],[],[],[],,,,,None,None,703.9705444000429,705.6906069000252,702.4985105999513,702.4985105999513,702.4985105999513,702.4985105999513,702.4985105999513,,,,,,,,,,,,,,268,m,23,2023-03-26_16h59.58.367,RL,2022.2.4,60.06922378311125,
0,0.3,0.225,0,61,61,61,,,,,,,,,,None,705.6906069000252,705.6906069000252,705.6906069000252,705.6906069000252,705.6906069000252,705.6906069000252,r,0.37074510008096695,706.0902820000192,706.0902820000192,706.0902820000192,706.0902820000192,706.0902820000192,706.0902820000192,706.3889811000554,706.3889811000554,708.2668100000592,708.2668100000592,708.2668100000592,708.2668100000592,708.2668100000592,708.2668100000592,708.2668100000592,708.2668100000592,708.2668100000592,708.2668100000592,708.2668100000592,708.2668100000592,708.2668100000592,708.2668100000592,708.2668100000592,708.2668100000592,708.2668100000592,47,51,62,47,47,81,None,None,,,[],[],[],[],[],[],[],0.2,1,710.7880275000352,710.7880275000352,710.7880275000352,710.7880275000352,710.7880275000352,710.7880275000352,710.7880275000352,710.7880275000352,0.007199199986644089,710.7880275000352,53,[0.04259259259259259],[-0.31203703703703706],[1],[0],[0],[5.480757200042717],['tijiao_random_2'],716.2816220000386,716.2816220000386,716.2816220000386,716.2816220000386,9.203703703703704,2.071305299992673,718.3718116000528,719.9351286999881,,,,,,,,,,,,,,,,,,,268,m,23,2023-03-26_16h59.58.367,RL,2022.2.4,60.06922378311125,
1,-0.3,-0.225,0,62,62,62,,,,,,,,,,None,719.9351286999881,719.9351286999881,719.9351286999881,719.9351286999881,719.9351286999881,719.9351286999881,j,0.48100420006085187,720.4378361999989,720.4378361999989,720.4378361999989,720.4378361999989,720.4378361999989,720.4378361999989,720.7331472999649,720.7331472999649,721.9798434999539,721.9798434999539,721.9798434999539,721.9798434999539,721.9798434999539,721.9798434999539,721.9798434999539,721.9798434999539,721.9798434999539,721.9798434999539,721.9798434999539,721.9798434999539,721.9798434999539,721.9798434999539,721.9798434999539,721.9798434999539,721.9798434999539,49,43,56,49,49,68,None,None,,,[],[],[],[],[],[],[],0.2,1,724.4986018000636,724.4986018000636,724.4986018000636,724.4986018000636,724.4986018000636,724.4986018000636,724.4986018000636,724.4986018000636,0.006684100022539496,724.4986018000636,52,[0.006481481481481481],[-0.32037037037037036],[1],[0],[0],[5.300914599909447],['tijiao_random_2'],729.8128923999611,729.8128923999611,729.8128923999611,729.8128923999611,6.583333333333334,1.7049041000427678,731.5361476000398,733.4312737999717,,,,,,,,,,,,,,,,,,,268,m,23,2023-03-26_16h59.58.367,RL,2022.2.4,60.06922378311125,
0,0.3,0.225,0,63,63,63,,,,,,,,,,None,733.4312737999717,733.4312737999717,733.4312737999717,733.4312737999717,733.4312737999717,733.4312737999717,i,0.326342000043951,733.7819504999788,733.7819504999788,733.7819504999788,733.7819504999788,733.7819504999788,733.7819504999788,734.0801733999979,734.0801733999979,736.0414340000134,736.0414340000134,736.0414340000134,736.0414340000134,736.0414340000134,736.0414340000134,736.0414340000134,736.0414340000134,736.0414340000134,736.0414340000134,736.0414340000134,736.0414340000134,736.0414340000134,736.0414340000134,736.0414340000134,736.0414340000134,736.0414340000134,41,55,49,51,49,71,None,None,71,71,[0.11666666666666667],[-0.28055555555555556],[1],[0],[0],[4.943207899923436],['tijiao'],-0.6,0,,,,,,,,,,,,[],[],[],[],[],[],[],743.5193808999611,743.5193808999611,743.5193808999611,743.5193808999611,8.0,2.093015699996613,745.6307455999777,747.1941866000416,,,,,,738.5523067000322,738.5523067000322,738.5523067000322,738.5523067000322,738.5523067000322,738.5523067000322,738.5523067000322,738.5523067000322,0.006478599971160293,738.5523067000322,,,,268,m,23,2023-03-26_16h59.58.367,RL,2022.2.4,60.06922378311125,
1,-0.3,-0.225,0,64,64,64,,,,,,,,,,None,747.1941866000416,747.1941866000416,747.1941866000416,747.1941866000416,747.1941866000416,747.1941866000416,i,0.21437259996309876,747.4288321000058,747.4288321000058,747.4288321000058,747.4288321000058,747.4288321000058,747.4288321000058,747.7263590999646,747.7263590999646,749.205495400005,749.205495400005,749.205495400005,749.205495400005,749.205495400005,749.205495400005,749.205495400005,749.205495400005,749.205495400005,749.205495400005,749.205495400005,749.205495400005,749.205495400005,749.205495400005,749.205495400005,749.205495400005,749.205495400005,46,44,49,49,49,43,6.0,3.0077645999845117,,,[],[],[],[],[],[],[],-0.2,2,,,,,,,,,,,,[],[],[],[],[],[],[],,,,,None,None,754.7488065999933,756.5683883000165,751.7142112000147,751.7142112000147,751.7142112000147,751.7142112000147,751.7142112000147,,,,,,,,,,,,,,268,m,23,2023-03-26_16h59.58.367,RL,2022.2.4,60.06922378311125,
0,0.3,0.225,0,65,65,65,,,,,,,,,,None,756.5683883000165,756.5683883000165,756.5683883000165,756.5683883000165,756.5683883000165,756.5683883000165,j,0.23544600000604987,756.8348443000577,756.8348443000577,756.8348443000577,756.8348443000577,756.8348443000577,756.8348443000577,757.1337337000296,757.1337337000296,759.1285908999853,759.1285908999853,759.1285908999853,759.1285908999853,759.1285908999853,759.1285908999853,759.1285908999853,759.1285908999853,759.1285908999853,759.1285908999853,759.1285908999853,759.1285908999853,759.1285908999853,759.1285908999853,759.1285908999853,759.1285908999853,759.1285908999853,45,47,59,47,47,63,4.0,1.7778469000477344,,,[],[],[],[],[],[],[],0.2,3,,,,,,,,,,,,[],[],[],[],[],[],[],,,,,None,None,763.4411627000663,765.1284792999504,761.637588600046,761.637588600046,761.637588600046,761.637588600046,761.637588600046,,,,,,,,,,,,,,268,m,23,2023-03-26_16h59.58.367,RL,2022.2.4,60.06922378311125,
1,-0.3,-0.225,0,66,66,66,,,,,,,,,,None,765.1284792999504,765.1284792999504,765.1284792999504,765.1284792999504,765.1284792999504,765.1284792999504,f,0.2611767000053078,765.4111939000431,765.4111939000431,765.4111939000431,765.4111939000431,765.4111939000431,765.4111939000431,765.7103448000271,765.7103448000271,767.1726941999514,767.1726941999514,767.1726941999514,767.1726941999514,767.1726941999514,767.1726941999514,767.1726941999514,767.1726941999514,767.1726941999514,767.1726941999514,767.1726941999514,767.1726941999514,767.1726941999514,767.1726941999514,767.1726941999514,767.1726941999514,767.1726941999514,46,53,59,49,53,67,4.0,1.2786698000272736,,,[],[],[],[],[],[],[],-0.6,3,,,,,,,,,,,,[],[],[],[],[],[],[],,,,,None,None,770.9875189999584,772.8071585999569,769.6822448000312,769.6822448000312,769.6822448000312,769.6822448000312,769.6822448000312,,,,,,,,,,,,,,268,m,23,2023-03-26_16h59.58.367,RL,2022.2.4,60.06922378311125,
0,0.3,0.225,0,67,67,67,,,,,,,,,,None,772.8071585999569,772.8071585999569,772.8071585999569,772.8071585999569,772.8071585999569,772.8071585999569,r,0.24500230001285672,773.0744794000639,773.0744794000639,773.0744794000639,773.0744794000639,773.0744794000639,773.0744794000639,773.3728295000037,773.3728295000037,774.2372198000085,774.2372198000085,774.2372198000085,774.2372198000085,774.2372198000085,774.2372198000085,774.2372198000085,774.2372198000085,774.2372198000085,774.2372198000085,774.2372198000085,774.2372198000085,774.2372198000085,774.2372198000085,774.2372198000085,774.2372198000085,774.2372198000085,48,52,61,49,48,54,4.0,1.1292940999846905,,,[],[],[],[],[],[],[],0.2,3,,,,,,,,,,,,[],[],[],[],[],[],[],,,,,None,None,777.9056085000047,779.9044795000227,776.7463529000524,776.7463529000524,776.7463529000524,776.7463529000524,776.7463529000524,,,,,,,,,,,,,,268,m,23,2023-03-26_16h59.58.367,RL,2022.2.4,60.06922378311125,
1,-0.3,-0.225,0,68,68,68,,,,,,,,,,None,779.9044795000227,779.9044795000227,779.9044795000227,779.9044795000227,779.9044795000227,779.9044795000227,r,0.3498052000068128,780.2883668000577,780.2883668000577,780.2883668000577,780.2883668000577,780.2883668000577,780.2883668000577,780.5862825999502,780.5862825999502,782.5479404999642,782.5479404999642,782.5479404999642,782.5479404999642,782.5479404999642,782.5479404999642,782.5479404999642,782.5479404999642,782.5479404999642,782.5479404999642,782.5479404999642,782.5479404999642,782.5479404999642,782.5479404999642,782.5479404999642,782.5479404999642,782.5479404999642,43,40,59,46,43,57,3.0,1.5279189000139013,,,[],[],[],[],[],[],[],0.6,2,,,,,,,,,,,,[],[],[],[],[],[],[],,,,,None,None,786.6105939999688,788.2985478000483,785.0567945999792,785.0567945999792,785.0567945999792,785.0567945999792,785.0567945999792,,,,,,,,,,,,,,268,m,23,2023-03-26_16h59.58.367,RL,2022.2.4,60.06922378311125,
0,0.3,0.225,0,69,69,69,,,,,,,,,,None,788.2985478000483,788.2985478000483,788.2985478000483,788.2985478000483,788.2985478000483,788.2985478000483,j,0.33684969996102154,788.6648077999707,788.6648077999707,788.6648077999707,788.6648077999707,788.6648077999707,788.6648077999707,788.9637339999899,788.9637339999899,790.758618599968,790.758618599968,790.758618599968,790.758618599968,790.758618599968,790.758618599968,790.758618599968,790.758618599968,790.758618599968,790.758618599968,790.758618599968,790.758618599968,790.758618599968,790.758618599968,790.758618599968,790.758618599968,790.758618599968,46,45,53,61,61,70,3.0,0.5644513999577612,,,[],[],[],[],[],[],[],-0.2,3,,,,,,,,,,,,[],[],[],[],[],[],[],,,,,None,None,793.8610456000315,795.6618471000111,793.2675915999571,793.2675915999571,793.2675915999571,793.2675915999571,793.2675915999571,,,,,,,,,,,,,,268,m,23,2023-03-26_16h59.58.367,RL,2022.2.4,60.06922378311125,
1,-0.3,-0.225,0,70,70,70,,,,,,,,,,None,795.6618471000111,795.6618471000111,795.6618471000111,795.6618471000111,795.6618471000111,795.6618471000111,i,0.2853164999978617,795.9808100999799,795.9808100999799,795.9808100999799,795.9808100999799,795.9808100999799,795.9808100999799,796.2767277000239,796.2767277000239,797.4236421999522,797.4236421999522,797.4406045000069,797.4406045000069,797.4406045000069,797.4406045000069,797.4406045000069,797.4406045000069,797.4406045000069,797.4406045000069,797.4406045000069,797.4406045000069,797.4406045000069,797.4406045000069,797.4406045000069,797.4406045000069,797.4406045000069,44,45,60,54,60,69,None,None,,,[],[],[],[],[],[],[],-0.2,1,799.9608533000574,799.9608533000574,799.9608533000574,799.9608533000574,799.9608533000574,799.9608533000574,799.9608533000574,799.9608533000574,0.007062599994242191,799.9608533000574,42,[0.011111111111111112],[-0.3175925925925926],[1],[0],[0],[3.819892300060019],['tijiao_random_2'],803.794632300036,803.794632300036,803.794632300036,803.794632300036,8.12037037037037,1.5719131000805646,805.3842014999827,807.1638119999552,,,,,,,,,,,,,,,,,,,268,m,23,2023-03-26_16h59.58.367,RL,2022.2.4,60.06922378311125,
0,0.3,0.225,0,71,71,71,,,,,,,,,,None,807.1638119999552,807.1638119999552,807.1638119999552,807.1638119999552,807.1638119999552,807.1638119999552,f,0.28113640006631613,807.4669012000086,807.4669012000086,807.4669012000086,807.4669012000086,807.4669012000086,807.4669012000086,807.7622889999766,807.7622889999766,808.7261042000027,808.7261042000027,808.7428412999725,808.7428412999725,808.7428412999725,808.7428412999725,808.7428412999725,808.7428412999725,808.7428412999725,808.7428412999725,808.7428412999725,808.7428412999725,808.7428412999725,808.7428412999725,808.7428412999725,808.7428412999725,808.7428412999725,45,48,57,62,48,64,None,None,,,[],[],[],[],[],[],[],0.2,1,811.2627627999755,811.2627627999755,811.2627627999755,811.2627627999755,811.2627627999755,811.2627627999755,811.2627627999755,811.2627627999755,0.007158900029025972,811.2627627999755,51,[0.041666666666666664],[-0.32314814814814813],[1],[0],[0],[3.488597400020808],['tijiao_random_2'],814.7651316999691,814.7651316999691,814.7651316999691,814.7651316999691,4.962962962962964,1.6374799000332132,816.4209080999717,818.3500404000515,,,,,,,,,,,,,,,,,,,268,m,23,2023-03-26_16h59.58.367,RL,2022.2.4,60.06922378311125,
1,-0.3,-0.225,0,72,72,72,,,,,,,,,,None,818.3500404000515,818.3500404000515,818.3500404000515,818.3500404000515,818.3500404000515,818.3500404000515,i,0.2083081000018865,818.5830094000557,818.5830094000557,818.5830094000557,818.5830094000557,818.5830094000557,818.5830094000557,818.8819532999769,818.8819532999769,819.7128291999688,819.7128291999688,819.729359399993,819.729359399993,819.729359399993,819.729359399993,819.729359399993,819.729359399993,819.729359399993,819.729359399993,819.729359399993,819.729359399993,819.729359399993,819.729359399993,819.729359399993,819.729359399993,819.729359399993,42,54,58,60,58,72,3.0,1.312840599915944,,,[],[],[],[],[],[],[],-0.6,2,,,,,,,,,,,,[],[],[],[],[],[],[],,,,,None,None,823.5780089000473,825.3140966000501,822.2384150000289,822.2384150000289,822.2384150000289,822.2384150000289,822.2384150000289,,,,,,,,,,,,,,268,m,23,2023-03-26_16h59.58.367,RL,2022.2.4,60.06922378311125,
0,0.3,0.225,0,73,73,73,,,,,,,,,,None,825.3140966000501,825.3140966000501,825.3140966000501,825.3140966000501,825.3140966000501,825.3140966000501,j,0.2717904000310227,825.6157931999769,825.6157931999769,825.6157931999769,825.6157931999769,825.6157931999769,825.6157931999769,825.9128929000581,825.9128929000581,827.1594906999962,827.1594906999962,827.1594906999962,827.1594906999962,827.1594906999962,827.1594906999962,827.1594906999962,827.1594906999962,827.1594906999962,827.1594906999962,827.1594906999962,827.1594906999962,827.1594906999962,827.1594906999962,827.1594906999962,827.1594906999962,827.1594906999962,44,48,57,60,60,54,None,None,,,[],[],[],[],[],[],[],-0.2,1,829.6805036000442,829.6805036000442,829.6805036000442,829.6805036000442,829.6805036000442,829.6805036000442,829.6805036000442,829.6805036000442,0.007535899989306927,829.6805036000442,61,[0.016666666666666666],[-0.2712962962962963],[1],[0],[0],[4.300036499975249],['tijiao_random_2'],833.9956401999807,833.9956401999807,833.9956401999807,833.9956401999807,7.0092592592592595,2.220437500043772,836.2336037000641,838.1957762000384,,,,,,,,,,,,,,,,,,,268,m,23,2023-03-26_16h59.58.367,RL,2022.2.4,60.06922378311125,
1,-0.3,-0.225,0,74,74,74,,,,,,,,,,None,838.1957762000384,838.1957762000384,838.1957762000384,838.1957762000384,838.1957762000384,838.1957762000384,f,0.1917104999301955,838.4140031000134,838.4140031000134,838.4140031000134,838.4140031000134,838.4140031000134,838.4140031000134,838.7112729999935,838.7112729999935,840.5397240000311,840.5397240000311,840.5397240000311,840.5397240000311,840.5397240000311,840.5397240000311,840.5397240000311,840.5397240000311,840.5397240000311,840.5397240000311,840.5397240000311,840.5397240000311,840.5397240000311,840.5397240000311,840.5397240000311,840.5397240000311,840.5397240000311,26,49,51,52,49,42,None,None,,,[],[],[],[],[],[],[],0.2,1,843.0607427000068,843.0607427000068,843.0607427000068,843.0607427000068,843.0607427000068,843.0607427000068,843.0607427000068,843.0607427000068,0.0071365999756380916,843.0607427000068,57,"[0.016666666666666666, -0.016666666666666666]","[-0.24351851851851852, -0.28888888888888886]","[1, 1]","[0, 0]","[0, 0]","[6.461079499917105, 7.409514999948442]",['tijiao_random_2'],850.4854141999967,850.4854141999967,850.4854141999967,850.4854141999967,9.027777777777779,2.1523634999757633,852.6552878000075,854.3681362000061,,,,,,,,,,,,,,,,,,,268,m,23,2023-03-26_16h59.58.367,RL,2022.2.4,60.06922378311125,
0,0.3,0.225,0,75,75,75,,,,,,,,,,q,1185.2157331999624,1185.2157331999624,1185.2157331999624,1185.2157331999624,1185.2157331999624,1185.2157331999624,r,1.2593705999897793,1186.5002070000628,1186.5002070000628,1186.5002070000628,1186.5002070000628,1186.5002070000628,1186.5002070000628,1186.7947559000459,1186.7947559000459,1188.639567599981,1188.639567599981,1188.6563678999664,1188.6563678999664,1188.6563678999664,1188.6563678999664,1188.6563678999664,1188.6563678999664,1188.6563678999664,1188.6563678999664,1188.6563678999664,1188.6563678999664,1188.6563678999664,1188.6563678999664,1188.6563678999664,1188.6563678999664,1188.6563678999664,40,39,56,41,40,70,3.0,1.9435126000316814,,,[],[],[],[],[],[],[],0.2,2,,,,,,,,,,,,[],[],[],[],[],[],[],,,,,None,None,1193.134346100036,1194.8225107999751,1191.1655229000608,1191.1655229000608,1191.1655229000608,1191.1655229000608,1191.1655229000608,,,,,,,,,,,854.3681362000061,854.3681362000061,330.81380520004313,268,m,23,2023-03-26_16h59.58.367,RL,2022.2.4,60.06922378311125,
1,-0.3,-0.225,0,76,76,76,,,,,,,,,,None,1194.8225107999751,1194.8225107999751,1194.8225107999751,1194.8225107999751,1194.8225107999751,1194.8225107999751,j,0.29349279997404665,1195.140320400009,1195.140320400009,1195.140320400009,1195.140320400009,1195.140320400009,1195.140320400009,1195.4376639999682,1195.4376639999682,1197.2993104000343,1197.2993104000343,1197.3159097000025,1197.3159097000025,1197.3159097000025,1197.3159097000025,1197.3159097000025,1197.3159097000025,1197.3159097000025,1197.3159097000025,1197.3159097000025,1197.3159097000025,1197.3159097000025,1197.3159097000025,1197.3159097000025,1197.3159097000025,1197.3159097000025,47,35,55,47,47,48,3.0,0.5649672000436112,,,[],[],[],[],[],[],[],0.2,2,,,,,,,,,,,,[],[],[],[],[],[],[],,,,,None,None,1200.4173963000067,1202.3018440000014,1199.8251072999556,1199.8251072999556,1199.8251072999556,1199.8251072999556,1199.8251072999556,,,,,,,,,,,,,,268,m,23,2023-03-26_16h59.58.367,RL,2022.2.4,60.06922378311125,
0,0.3,0.225,0,77,77,77,,,,,,,,,,None,1202.3018440000014,1202.3018440000014,1202.3018440000014,1202.3018440000014,1202.3018440000014,1202.3018440000014,i,0.21554979996290058,1202.536629899987,1202.536629899987,1202.536629899987,1202.536629899987,1202.536629899987,1202.536629899987,1202.8339653000003,1202.8339653000003,1204.097303000046,1204.097303000046,1204.097303000046,1204.097303000046,1204.097303000046,1204.097303000046,1204.097303000046,1204.097303000046,1204.097303000046,1204.097303000046,1204.097303000046,1204.097303000046,1204.097303000046,1204.097303000046,1204.097303000046,1204.097303000046,1204.097303000046,37,37,51,47,51,60,None,None,,,[],[],[],[],[],[],[],0.6,1,1206.6183708000463,1206.6183708000463,1206.6183708000463,1206.6183708000463,1206.6183708000463,1206.6183708000463,1206.6183708000463,1206.6183708000463,0.007559700054116547,1206.6183708000463,51,[0.01574074074074074],[-0.28888888888888886],[1],[0],[0],[4.733098299941048],['tijiao_random_2'],1211.363710799953,1211.363710799953,1211.363710799953,1211.363710799953,5.824074074074074,1.8554393999511376,1213.2378886999795,1214.7680641000625,,,,,,,,,,,,,,,,,,,268,m,23,2023-03-26_16h59.58.367,RL,2022.2.4,60.06922378311125,
1,-0.3,-0.225,0,78,78,78,,,,,,,,,,None,1214.7680641000625,1214.7680641000625,1214.7680641000625,1214.7680641000625,1214.7680641000625,1214.7680641000625,j,0.2404009000165388,1215.0368470000103,1215.0368470000103,1215.0368470000103,1215.0368470000103,1215.0368470000103,1215.0368470000103,1215.3333296000492,1215.3333296000492,1216.4803817999782,1216.4803817999782,1216.4803817999782,1216.4803817999782,1216.4803817999782,1216.4803817999782,1216.4803817999782,1216.4803817999782,1216.4803817999782,1216.4803817999782,1216.4803817999782,1216.4803817999782,1216.4803817999782,1216.4803817999782,1216.4803817999782,1216.4803817999782,1216.4803817999782,49,46,51,50,50,55,None,None,,,[],[],[],[],[],[],[],-0.2,1,1218.9998486000113,1218.9998486000113,1218.9998486000113,1218.9998486000113,1218.9998486000113,1218.9998486000113,1218.9998486000113,1218.9998486000113,0.007076899986714125,1218.9998486000113,47,[0.044444444444444446],[-0.2851851851851852],[1],[0],[0],[4.550993400043808],['tijiao_random_2'],1223.5635916000465,1223.5635916000465,1223.5635916000465,1223.5635916000465,6.953703703703703,1.7065360000124201,1225.2882847000146,1227.2175373999635,,,,,,,,,,,,,,,,,,,268,m,23,2023-03-26_16h59.58.367,RL,2022.2.4,60.06922378311125,
0,0.3,0.225,0,79,79,79,,,,,,,,,,None,1227.2175373999635,1227.2175373999635,1227.2175373999635,1227.2175373999635,1227.2175373999635,1227.2175373999635,f,0.20152899995446205,1227.4518143000314,1227.4518143000314,1227.4518143000314,1227.4518143000314,1227.4518143000314,1227.4518143000314,1227.7496679000324,1227.7496679000324,1228.7800768000307,1228.7800768000307,1228.796250400017,1228.796250400017,1228.796250400017,1228.796250400017,1228.796250400017,1228.796250400017,1228.796250400017,1228.796250400017,1228.796250400017,1228.796250400017,1228.796250400017,1228.796250400017,1228.796250400017,1228.796250400017,1228.796250400017,35,40,45,53,40,54,6.0,0.8960904000559822,,,[],[],[],[],[],[],[],0.6,2,,,,,,,,,,,,[],[],[],[],[],[],[],,,,,None,None,1232.227936499985,1234.0987657000078,1231.3056642999873,1231.3056642999873,1231.3056642999873,1231.3056642999873,1231.3056642999873,,,,,,,,,,,,,,268,m,23,2023-03-26_16h59.58.367,RL,2022.2.4,60.06922378311125,
1,-0.3,-0.225,0,80,80,80,,,,,,,,,,None,1234.0987657000078,1234.0987657000078,1234.0987657000078,1234.0987657000078,1234.0987657000078,1234.0987657000078,j,0.31773469992913306,1234.4484236000571,1234.4484236000571,1234.4484236000571,1234.4484236000571,1234.4484236000571,1234.4484236000571,1234.7472924999893,1234.7472924999893,1236.2599156000651,1236.2599156000651,1236.2599156000651,1236.2599156000651,1236.2599156000651,1236.2599156000651,1236.2599156000651,1236.2599156000651,1236.2599156000651,1236.2599156000651,1236.2599156000651,1236.2599156000651,1236.2599156000651,1236.2599156000651,1236.2599156000651,1236.2599156000651,1236.2599156000651,43,40,53,42,42,62,3.0,0.9298781000543386,,,[],[],[],[],[],[],[],0.6,2,,,,,,,,,,,,[],[],[],[],[],[],[],,,,,None,None,1239.7239775999915,1241.3122257000068,1238.7687549999682,1238.7687549999682,1238.7687549999682,1238.7687549999682,1238.7687549999682,,,,,,,,,,,,,,268,m,23,2023-03-26_16h59.58.367,RL,2022.2.4,60.06922378311125,
0,0.3,0.225,0,81,81,81,,,,,,,,,,None,1241.3122257000068,1241.3122257000068,1241.3122257000068,1241.3122257000068,1241.3122257000068,1241.3122257000068,i,0.40750189998652786,1241.744747800054,1241.744747800054,1241.744747800054,1241.744747800054,1241.744747800054,1241.744747800054,1242.0439994999906,1242.0439994999906,1243.4563946999842,1243.4563946999842,1243.4563946999842,1243.4563946999842,1243.4563946999842,1243.4563946999842,1243.4563946999842,1243.4563946999842,1243.4563946999842,1243.4563946999842,1243.4563946999842,1243.4563946999842,1243.4563946999842,1243.4563946999842,1243.4563946999842,1243.4563946999842,1243.4563946999842,43,31,48,51,48,55,None,None,,,[],[],[],[],[],[],[],0.6,1,1245.9761064000195,1245.9761064000195,1245.9761064000195,1245.9761064000195,1245.9761064000195,1245.9761064000195,1245.9761064000195,1245.9761064000195,0.006357799982652068,1245.9761064000195,61,[0.06759259259259259],[-0.30462962962962964],[1],[0],[0],[4.9009499999228865],['tijiao_random_2'],1250.8915148000233,1250.8915148000233,1250.8915148000233,1250.8915148000233,8.018518518518519,1.6375815999927,1252.5474152000388,1254.2438993999967,,,,,,,,,,,,,,,,,,,268,m,23,2023-03-26_16h59.58.367,RL,2022.2.4,60.06922378311125,
1,-0.3,-0.225,0,82,82,82,,,,,,,,,,None,1254.2438993999967,1254.2438993999967,1254.2438993999967,1254.2438993999967,1254.2438993999967,1254.2438993999967,i,0.5900964000029489,1254.8590156000573,1254.8590156000573,1254.8590156000573,1254.8590156000573,1254.8590156000573,1254.8590156000573,1255.1578878000146,1255.1578878000146,1256.5544550999766,1256.5544550999766,1256.5544550999766,1256.5544550999766,1256.5544550999766,1256.5544550999766,1256.5544550999766,1256.5544550999766,1256.5544550999766,1256.5544550999766,1256.5544550999766,1256.5544550999766,1256.5544550999766,1256.5544550999766,1256.5544550999766,1256.5544550999766,1256.5544550999766,33,35,42,62,42,57,None,None,61,61,[0.04537037037037037],[-0.28425925925925927],[1],[0],[0],[6.87269769993145],['tijiao'],0.2,0,,,,,,,,,,,,[],[],[],[],[],[],[],1265.9584621000104,1265.9584621000104,1265.9584621000104,1265.9584621000104,7.777777777777779,2.2277009999379516,1268.204535100027,1270.0673084000591,,,,,,1259.0643300999654,1259.0643300999654,1259.0643300999654,1259.0643300999654,1259.0643300999654,1259.0643300999654,1259.0643300999654,1259.0643300999654,0.00568060006480664,1259.0643300999654,,,,268,m,23,2023-03-26_16h59.58.367,RL,2022.2.4,60.06922378311125,
0,0.3,0.225,0,83,83,83,,,,,,,,,,None,1270.0673084000591,1270.0673084000591,1270.0673084000591,1270.0673084000591,1270.0673084000591,1270.0673084000591,i,0.23015820002183318,1270.3171581999632,1270.3171581999632,1270.3171581999632,1270.3171581999632,1270.3171581999632,1270.3171581999632,1270.6160226999782,1270.6160226999782,1272.0618082999717,1272.0618082999717,1272.0618082999717,1272.0618082999717,1272.0618082999717,1272.0618082999717,1272.0618082999717,1272.0618082999717,1272.0618082999717,1272.0618082999717,1272.0618082999717,1272.0618082999717,1272.0618082999717,1272.0618082999717,1272.0618082999717,1272.0618082999717,1272.0618082999717,44,27,38,56,38,52,None,None,46,46,[-0.1287037037037037],[-0.2611111111111111],[1],[0],[0],[5.35921469994355],['tijiao'],-0.2,0,,,,,,,,,,,,[],[],[],[],[],[],[],1279.954780500033,1279.954780500033,1279.954780500033,1279.954780500033,7.138888888888889,1.5118630999932066,1281.4853814999806,1283.3143552000402,,,,,,1274.57281589997,1274.57281589997,1274.57281589997,1274.57281589997,1274.57281589997,1274.57281589997,1274.57281589997,1274.57281589997,0.006109700072556734,1274.57281589997,,,,268,m,23,2023-03-26_16h59.58.367,RL,2022.2.4,60.06922378311125,
1,-0.3,-0.225,0,84,84,84,,,,,,,,,,None,1283.3143552000402,1283.3143552000402,1283.3143552000402,1283.3143552000402,1283.3143552000402,1283.3143552000402,i,0.3584646999370307,1283.697055800003,1283.697055800003,1283.697055800003,1283.697055800003,1283.697055800003,1283.697055800003,1283.9961792000104,1283.9961792000104,1285.2425567000173,1285.2425567000173,1285.2425567000173,1285.2425567000173,1285.2425567000173,1285.2425567000173,1285.2425567000173,1285.2425567000173,1285.2425567000173,1285.2425567000173,1285.2425567000173,1285.2425567000173,1285.2425567000173,1285.2425567000173,1285.2425567000173,1285.2425567000173,1285.2425567000173,39,29,48,66,48,42,None,None,32,32,[0.15925925925925927],[-0.29074074074074074],[1],[0],[0],[5.575628899969161],['tijiao'],0.2,0,,,,,,,,,,,,[],[],[],[],[],[],[],1293.3493483000202,1293.3493483000202,1293.3493483000202,1293.3493483000202,9.25,1.0980627000099048,1294.466582700028,1296.3452459999826,,,,,,1287.7529554000357,1287.7529554000357,1287.7529554000357,1287.7529554000357,1287.7529554000357,1287.7529554000357,1287.7529554000357,1287.7529554000357,0.005708799930289388,1287.7529554000357,,,,268,m,23,2023-03-26_16h59.58.367,RL,2022.2.4,60.06922378311125,
0,0.3,0.225,0,85,85,85,,,,,,,,,,None,1296.3452459999826,1296.3452459999826,1296.3452459999826,1296.3452459999826,1296.3452459999826,1296.3452459999826,r,0.6781215999508277,1297.044450800051,1297.044450800051,1297.044450800051,1297.044450800051,1297.044450800051,1297.044450800051,1297.342805900029,1297.342805900029,1298.5560240000486,1298.5560240000486,1298.5560240000486,1298.5560240000486,1298.5560240000486,1298.5560240000486,1298.5560240000486,1298.5560240000486,1298.5560240000486,1298.5560240000486,1298.5560240000486,1298.5560240000486,1298.5560240000486,1298.5560240000486,1298.5560240000486,1298.5560240000486,1298.5560240000486,41,35,46,62,41,41,5.0,1.1623997000278905,,,[],[],[],[],[],[],[],0.6,2,,,,,,,,,,,,[],[],[],[],[],[],[],,,,,None,None,1302.253780900035,1304.1242511000019,1301.0653236999642,1301.0653236999642,1301.0653236999642,1301.0653236999642,1301.0653236999642,,,,,,,,,,,,,,268,m,23,2023-03-26_16h59.58.367,RL,2022.2.4,60.06922378311125,
1,-0.3,-0.225,0,86,86,86,,,,,,,,,,None,1304.1242511000019,1304.1242511000019,1304.1242511000019,1304.1242511000019,1304.1242511000019,1304.1242511000019,f,0.2007422000169754,1304.3588040999603,1304.3588040999603,1304.3588040999603,1304.3588040999603,1304.3588040999603,1304.3588040999603,1304.6561594000086,1304.6561594000086,1306.3352702000411,1306.3352702000411,1306.3352702000411,1306.3352702000411,1306.3352702000411,1306.3352702000411,1306.3352702000411,1306.3352702000411,1306.3352702000411,1306.3352702000411,1306.3352702000411,1306.3352702000411,1306.3352702000411,1306.3352702000411,1306.3352702000411,1306.3352702000411,1306.3352702000411,28,28,44,59,28,57,2.0,1.3775388000067323,,,[],[],[],[],[],[],[],-0.6,3,,,,,,,,,,,,[],[],[],[],[],[],[],,,,,None,None,1310.2503185999813,1312.1191896999953,1308.844340599957,1308.844340599957,1308.844340599957,1308.844340599957,1308.844340599957,,,,,,,,,,,,,,268,m,23,2023-03-26_16h59.58.367,RL,2022.2.4,60.06922378311125,
0,0.3,0.225,0,87,87,87,,,,,,,,,,None,1312.1191896999953,1312.1191896999953,1312.1191896999953,1312.1191896999953,1312.1191896999953,1312.1191896999953,j,0.362278199987486,1312.5017253999831,1312.5017253999831,1312.5017253999831,1312.5017253999831,1312.5017253999831,1312.5017253999831,1312.800898400019,1312.800898400019,1314.7786624999717,1314.7786624999717,1314.7786624999717,1314.7786624999717,1314.7786624999717,1314.7786624999717,1314.7786624999717,1314.7786624999717,1314.7786624999717,1314.7786624999717,1314.7786624999717,1314.7786624999717,1314.7786624999717,1314.7786624999717,1314.7786624999717,1314.7786624999717,1314.7786624999717,36,28,46,63,63,55,None,None,61,61,[0.05185185185185185],[-0.2962962962962963],[1],[0],[0],[4.010980499908328],['tijiao'],-0.2,0,,,,,,,,,,,,[],[],[],[],[],[],[],1321.3249671000522,1321.3249671000522,1321.3249671000522,1321.3249671000522,6.925925925925926,2.1440052000107244,1323.487087800051,1325.2330959000392,,,,,,1317.2913823999697,1317.2913823999697,1317.2913823999697,1317.2913823999697,1317.2913823999697,1317.2913823999697,1317.2913823999697,1317.2913823999697,0.008154100039973855,1317.2913823999697,,,,268,m,23,2023-03-26_16h59.58.367,RL,2022.2.4,60.06922378311125,
1,-0.3,-0.225,0,88,88,88,,,,,,,,,,None,1325.2330959000392,1325.2330959000392,1325.2330959000392,1325.2330959000392,1325.2330959000392,1325.2330959000392,j,0.1995323000010103,1325.4498301000567,1325.4498301000567,1325.4498301000567,1325.4498301000567,1325.4498301000567,1325.4498301000567,1325.7489760000026,1325.7489760000026,1327.0784115999704,1327.0784115999704,1327.0784115999704,1327.0784115999704,1327.0784115999704,1327.0784115999704,1327.0784115999704,1327.0784115999704,1327.0784115999704,1327.0784115999704,1327.0784115999704,1327.0784115999704,1327.0784115999704,1327.0784115999704,1327.0784115999704,1327.0784115999704,1327.0784115999704,34,28,49,64,64,50,6.0,0.9466126000043005,,,[],[],[],[],[],[],[],0.2,2,,,,,,,,,,,,[],[],[],[],[],[],[],,,,,None,None,1330.5615191999823,1332.479830599972,1329.5873325000284,1329.5873325000284,1329.5873325000284,1329.5873325000284,1329.5873325000284,,,,,,,,,,,,,,268,m,23,2023-03-26_16h59.58.367,RL,2022.2.4,60.06922378311125,
0,0.3,0.225,0,89,89,89,,,,,,,,,,None,1332.479830599972,1332.479830599972,1332.479830599972,1332.479830599972,1332.479830599972,1332.479830599972,i,0.3802309000166133,1332.8804976999527,1332.8804976999527,1332.8804976999527,1332.8804976999527,1332.8804976999527,1332.8804976999527,1333.1784483999945,1333.1784483999945,1333.9931867000414,1333.9931867000414,1333.9931867000414,1333.9931867000414,1333.9931867000414,1333.9931867000414,1333.9931867000414,1333.9931867000414,1333.9931867000414,1333.9931867000414,1333.9931867000414,1333.9931867000414,1333.9931867000414,1333.9931867000414,1333.9931867000414,1333.9931867000414,1333.9931867000414,38,28,51,58,51,57,None,None,,,[],[],[],[],[],[],[],0.6,1,1336.512099500047,1336.512099500047,1336.512099500047,1336.512099500047,1336.512099500047,1336.512099500047,1336.512099500047,1336.512099500047,0.0059371000388637185,1336.512099500047,71,[-0.009259259259259259],[-0.27314814814814814],[1],[0],[0],[3.6716595999896526],['tijiao_random_2'],1340.1965831000125,1340.1965831000125,1340.1965831000125,1340.1965831000125,7.9259259259259265,1.2403403000207618,1341.4546668999828,1343.0681014000438,,,,,,,,,,,,,,,,,,,268,m,23,2023-03-26_16h59.58.367,RL,2022.2.4,60.06922378311125,
1,-0.3,-0.225,0,90,90,90,,,,,,,,,,None,1343.0681014000438,1343.0681014000438,1343.0681014000438,1343.0681014000438,1343.0681014000438,1343.0681014000438,j,0.0853291000239551,1343.1875250999583,1343.1875250999583,1343.1875250999583,1343.1875250999583,1343.1875250999583,1343.1875250999583,1343.4834736000048,1343.4834736000048,1345.4618362999754,1345.4618362999754,1345.4618362999754,1345.4618362999754,1345.4618362999754,1345.4618362999754,1345.4618362999754,1345.4618362999754,1345.4618362999754,1345.4618362999754,1345.4618362999754,1345.4618362999754,1345.4618362999754,1345.4618362999754,1345.4618362999754,1345.4618362999754,1345.4618362999754,26,30,44,61,61,55,6.0,1.3788939999649301,,,[],[],[],[],[],[],[],0.2,3,,,,,,,,,,,,[],[],[],[],[],[],[],,,,,None,None,1349.3753334999783,1351.2620093000587,1347.9705992999952,1347.9705992999952,1347.9705992999952,1347.9705992999952,1347.9705992999952,,,,,,,,,,,,,,268,m,23,2023-03-26_16h59.58.367,RL,2022.2.4,60.06922378311125,
