bandit0,black_x_pos_random,black_y_pos_random,trials.thisRepN,trials.thisTrialN,trials.thisN,trials.thisIndex,instru_img1.started,instru_resp.started,instru_resp.keys,instru_resp.rt,instru_img2.started,instru_resp2.started,instru_resp2.keys,instru_resp2.rt,fixbefore_2.started,rest_response.keys,red.started,green.started,yellow.started,blue.started,choose_bandit.started,Fixation.started,choose_bandit.keys,choose_bandit.rt,black.started,red_2.started,green_2.started,yellow_2.started,blue_2.started,fixation_2.started,docs.started,wait_playerB.started,docs.stopped,wait_playerB.stopped,black.stopped,red_2.stopped,green_2.stopped,yellow_2.stopped,blue_2.stopped,fixation_2.stopped,black_com.started,reward_sub.started,palyerb.started,reward__sub.started,compare.started,red_compare.started,green_com.started,yellow_com.started,blue_com.started,rewardyellow,rewardred,rewardblue,rewardgreen,subchoose,playerb,slider.response,slider.rt,expectself.started,expect_self_black.started,expect_self.started,expect_self_red.started,expect_self_green.started,expect_self_yellow.started,expect_self_blue.started,tijiao.started,tijiao_click.started,check.started,expectself.text,value_expect_self,tijiao_click.x,tijiao_click.y,tijiao_click.leftButton,tijiao_click.midButton,tijiao_click.rightButton,tijiao_click.time,tijiao_click.clicked_name,random_whicharm,whether_ask,expect_random_3.text,tijiao_random.x,tijiao_random.y,tijiao_random.leftButton,tijiao_random.midButton,tijiao_random.rightButton,tijiao_random.time,tijiao_random.clicked_name,slider_2.started,image_7.started,confi.started,notconfi.started,slider_2.response,slider_2.rt,intertrialfix.started,intertrialfix.stopped,image_3.started,slider.started,text.started,image_4.started,image_5.started,jiantou_random.started,expect_red.started,expect_green.started,expect_yellow.started,expect_blue.started,expect_random_2.started,expect_random_3.started,tijiao_random_2.started,tijiao_random.started,check_2.started,rest_image.started,rest_response.started,rest_response.rt,bigx.started,bigx.stopped,participant,Gender,Age,date,expName,psychopyVersion,frameRate,
,,,,,,,23.5988848998677,23.5988848998677,space,2.230303500080481,,,,,,,,,,,,,,,,,,,,,,,,,,,,,,,,,,,,,,,,,,,,,,,,,,,,,,,,,,,,,,,,,,,,,,,,,,,,,,,,,,,,,,,,,,,,,,,,,,,,,,,,,269,f,23,2023-04-04_09h55.46.720,RL,2022.2.4,60.15381328129028,
,,,,,,,,,,,25.91121489997022,25.91121489997022,s,8.077966699842364,,,,,,,,,,,,,,,,,,,,,,,,,,,,,,,,,,,,,,,,,,,,,,,,,,,,,,,,,,,,,,,,,,,,,,,,,,,,,,,,,,,,,,,,,,,,,,,,,,,,,269,f,23,2023-04-04_09h55.46.720,RL,2022.2.4,60.15381328129028,
1,-0.3,-0.225,0,0,0,0,,,,,,,,,34.014983699889854,None,35.04347419994883,35.04347419994883,35.04347419994883,35.04347419994883,35.04347419994883,35.04347419994883,i,0.368270100094378,35.46200569998473,35.46200569998473,35.46200569998473,35.46200569998473,35.46200569998473,35.46200569998473,35.743712099967524,35.743712099967524,36.67402569996193,36.67402569996193,36.692151699913666,36.692151699913666,36.692151699913666,36.692151699913666,36.692151699913666,36.692151699913666,36.692151699913666,36.692151699913666,36.692151699913666,36.692151699913666,36.692151699913666,36.692151699913666,36.692151699913666,36.692151699913666,36.692151699913666,34,44,78,42,78,66,None,None,39.22261480009183,39.22261480009183,39.22261480009183,39.22261480009183,39.22261480009183,39.22261480009183,39.22261480009183,39.22261480009183,0.00614389986731112,39.22261480009183,80,80,[-0.06388888888888888],[-0.2861111111111111],[1],[0],[0],[6.145237599965185],['tijiao'],-0.2,0,,[],[],[],[],[],[],[],45.48899589991197,45.48899589991197,45.48899589991197,45.48899589991197,8.018518518518519,3.821863899938762,49.36479520006105,51.2344124999363,,,,,,,,,,,,,,,,,,,,,269,f,23,2023-04-04_09h55.46.720,RL,2022.2.4,60.15381328129028,
0,0.3,0.225,0,1,1,1,,,,,,,,,,None,51.2344124999363,51.2344124999363,51.2344124999363,51.2344124999363,51.2344124999363,51.2344124999363,f,0.3847111000213772,51.65803629998118,51.65803629998118,51.65803629998118,51.65803629998118,51.65803629998118,51.65803629998118,51.94926550006494,51.94926550006494,53.36220959993079,53.36220959993079,53.37862559990026,53.37862559990026,53.37862559990026,53.37862559990026,53.37862559990026,53.37862559990026,53.37862559990026,53.37862559990026,53.37862559990026,53.37862559990026,53.37862559990026,53.37862559990026,53.37862559990026,53.37862559990026,53.37862559990026,35,40,71,30,40,40,None,None,55.888603900093585,55.888603900093585,55.888603900093585,55.888603900093585,55.888603900093585,55.888603900093585,55.888603900093585,55.888603900093585,0.005875800037756562,55.888603900093585,50,50,[-0.014814814814814815],[-0.2953703703703704],[1],[0],[0],[11.359658899949864],['tijiao'],0.2,0,,[],[],[],[],[],[],[],67.270573399961,67.270573399961,67.270573399961,67.270573399961,7.018518518518519,5.419055100064725,72.70811489992775,74.23836570000276,,,,,,,,,,,,,,,,,,,,,269,f,23,2023-04-04_09h55.46.720,RL,2022.2.4,60.15381328129028,
1,-0.3,-0.225,0,2,2,2,,,,,,,,,,None,74.23836570000276,74.23836570000276,74.23836570000276,74.23836570000276,74.23836570000276,74.23836570000276,r,0.3593816999346018,74.62760329991579,74.62760329991579,74.62760329991579,74.62760329991579,74.62760329991579,74.62760329991579,74.91987979994155,74.91987979994155,75.81729590008035,75.81729590008035,75.81729590008035,75.81729590008035,75.81729590008035,75.81729590008035,75.81729590008035,75.81729590008035,75.81729590008035,75.81729590008035,75.81729590008035,75.81729590008035,75.81729590008035,75.81729590008035,75.81729590008035,75.81729590008035,75.81729590008035,43,46,80,30,43,72,5.0,6.663714800029993,,,,,,,,,,,,,[],[],[],[],[],[],[],-0.2,3,,[],[],[],[],[],[],[],,,,,None,None,85.02414049999788,86.73736210004427,78.32711170008406,78.32711170008406,78.32711170008406,78.32711170008406,78.32711170008406,,,,,,,,,,,,,,,,269,f,23,2023-04-04_09h55.46.720,RL,2022.2.4,60.15381328129028,
0,0.3,0.225,0,3,3,3,,,,,,,,,,None,86.73736210004427,86.73736210004427,86.73736210004427,86.73736210004427,86.73736210004427,86.73736210004427,j,0.47384949983097613,87.24362020008266,87.24362020008266,87.24362020008266,87.24362020008266,87.24362020008266,87.24362020008266,87.53523020003922,87.53523020003922,89.03126779990271,89.03126779990271,89.04772969987243,89.04772969987243,89.04772969987243,89.04772969987243,89.04772969987243,89.04772969987243,89.04772969987243,89.04772969987243,89.04772969987243,89.04772969987243,89.04772969987243,89.04772969987243,89.04772969987243,89.04772969987243,89.04772969987243,38,53,73,35,35,66,4.0,7.528098199982196,,,,,,,,,,,,,[],[],[],[],[],[],[],0.6,2,,[],[],[],[],[],[],[],,,,,None,None,99.11649330006912,100.74895889987238,91.55677910009399,91.55677910009399,91.55677910009399,91.55677910009399,91.55677910009399,,,,,,,,,,,,,,,,269,f,23,2023-04-04_09h55.46.720,RL,2022.2.4,60.15381328129028,
1,-0.3,-0.225,0,4,4,4,,,,,,,,,,None,100.74895889987238,100.74895889987238,100.74895889987238,100.74895889987238,100.74895889987238,100.74895889987238,j,0.5147748999297619,101.28252759994939,101.28252759994939,101.28252759994939,101.28252759994939,101.28252759994939,101.28252759994939,101.58069420000538,101.58069420000538,103.15949740004726,103.15949740004726,103.15949740004726,103.15949740004726,103.15949740004726,103.15949740004726,103.15949740004726,103.15949740004726,103.15949740004726,103.15949740004726,103.15949740004726,103.15949740004726,103.15949740004726,103.15949740004726,103.15949740004726,103.15949740004726,103.15949740004726,34,56,75,35,35,44,3.0,6.963180499849841,,,,,,,,,,,,,[],[],[],[],[],[],[],0.6,2,,[],[],[],[],[],[],[],,,,,None,None,112.65959469997324,114.29563040006906,105.66839640005492,105.66839640005492,105.66839640005492,105.66839640005492,105.66839640005492,,,,,,,,,,,,,,,,269,f,23,2023-04-04_09h55.46.720,RL,2022.2.4,60.15381328129028,
0,0.3,0.225,0,5,5,5,,,,,,,,,,None,114.29563040006906,114.29563040006906,114.29563040006906,114.29563040006906,114.29563040006906,114.29563040006906,f,0.4150167000479996,114.72848569997586,114.72848569997586,114.72848569997586,114.72848569997586,114.72848569997586,114.72848569997586,115.0268677000422,115.0268677000422,116.32369860005565,116.32369860005565,116.32369860005565,116.32369860005565,116.32369860005565,116.32369860005565,116.32369860005565,116.32369860005565,116.32369860005565,116.32369860005565,116.32369860005565,116.32369860005565,116.32369860005565,116.32369860005565,116.32369860005565,116.32369860005565,116.32369860005565,41,52,68,30,52,71,None,None,118.83362210006453,118.83362210006453,118.83362210006453,118.83362210006453,118.83362210006453,118.83362210006453,118.83362210006453,118.83362210006453,0.0062367001082748175,118.83362210006453,83,83,[-0.03981481481481482],[-0.30092592592592593],[1],[0],[0],[20.83473060000688],['tijiao'],-0.6,0,,[],[],[],[],[],[],[],139.6896361000836,139.6896361000836,139.6896361000836,139.6896361000836,8.00925925925926,7.280421799980104,146.9886097998824,148.651915299939,,,,,,,,,,,,,,,,,,,,,269,f,23,2023-04-04_09h55.46.720,RL,2022.2.4,60.15381328129028,
1,-0.3,-0.225,0,6,6,6,,,,,,,,,,None,148.651915299939,148.651915299939,148.651915299939,148.651915299939,148.651915299939,148.651915299939,f,0.46917190006934106,149.15280879987404,149.15280879987404,149.15280879987404,149.15280879987404,149.15280879987404,149.15280879987404,149.44998669996858,149.44998669996858,150.3473463000264,150.3473463000264,150.3473463000264,150.3473463000264,150.3473463000264,150.3473463000264,150.3473463000264,150.3473463000264,150.3473463000264,150.3473463000264,150.3473463000264,150.3473463000264,150.3473463000264,150.3473463000264,150.3473463000264,150.3473463000264,150.3473463000264,36,58,69,31,58,63,5.0,1.5450540001038462,,,,,,,,,,,,,[],[],[],[],[],[],[],0.6,3,,[],[],[],[],[],[],[],,,,,None,None,154.4300363000948,156.2976539998781,152.85656139999628,152.85656139999628,152.85656139999628,152.85656139999628,152.85656139999628,,,,,,,,,,,,,,,,269,f,23,2023-04-04_09h55.46.720,RL,2022.2.4,60.15381328129028,
0,0.3,0.225,0,7,7,7,,,,,,,,,,None,156.2976539998781,156.2976539998781,156.2976539998781,156.2976539998781,156.2976539998781,156.2976539998781,i,0.4150215999688953,156.73004859988578,156.73004859988578,156.73004859988578,156.73004859988578,156.73004859988578,156.73004859988578,157.02892849990167,157.02892849990167,158.05975580005907,158.05975580005907,158.05975580005907,158.05975580005907,158.05975580005907,158.05975580005907,158.05975580005907,158.05975580005907,158.05975580005907,158.05975580005907,158.05975580005907,158.05975580005907,158.05975580005907,158.05975580005907,158.05975580005907,158.05975580005907,158.05975580005907,36,51,77,36,77,66,None,None,,,,,,,,,,,,,[],[],[],[],[],[],[],0.2,1,94,[0.04814814814814815],[-0.29907407407407405],[1],[0],[0],[16.204453100217506],['tijiao_random_2'],176.79737779987045,176.79737779987045,176.79737779987045,176.79737779987045,7.0,8.020622299984097,184.8353502000682,186.6647580000572,,,,,,160.58226009993814,160.58226009993814,160.58226009993814,160.58226009993814,160.58226009993814,160.58226009993814,160.58226009993814,160.58226009993814,0.006732399808242917,160.58226009993814,,,,,,269,f,23,2023-04-04_09h55.46.720,RL,2022.2.4,60.15381328129028,
1,-0.3,-0.225,0,8,8,8,,,,,,,,,,None,186.6647580000572,186.6647580000572,186.6647580000572,186.6647580000572,186.6647580000572,186.6647580000572,f,0.6100660997908562,187.29817959992215,187.29817959992215,187.29817959992215,187.29817959992215,187.29817959992215,187.29817959992215,187.59576980001293,187.59576980001293,188.77576219988987,188.77576219988987,188.77576219988987,188.77576219988987,188.77576219988987,188.77576219988987,188.77576219988987,188.77576219988987,188.77576219988987,188.77576219988987,188.77576219988987,188.77576219988987,188.77576219988987,188.77576219988987,188.77576219988987,188.77576219988987,188.77576219988987,35,57,71,41,57,46,5.0,2.259866600157693,,,,,,,,,,,,,[],[],[],[],[],[],[],-0.6,3,,[],[],[],[],[],[],[],,,,,None,None,193.5719459000975,195.57388329994865,191.28501039999537,191.28501039999537,191.28501039999537,191.28501039999537,191.28501039999537,,,,,,,,,,,,,,,,269,f,23,2023-04-04_09h55.46.720,RL,2022.2.4,60.15381328129028,
0,0.3,0.225,0,9,9,9,,,,,,,,,,None,195.57388329994865,195.57388329994865,195.57388329994865,195.57388329994865,195.57388329994865,195.57388329994865,r,0.4719034000299871,196.0738699999638,196.0738699999638,196.0738699999638,196.0738699999638,196.0738699999638,196.0738699999638,196.3719138999004,196.3719138999004,197.5184291000478,197.5184291000478,197.5184291000478,197.5184291000478,197.5184291000478,197.5184291000478,197.5184291000478,197.5184291000478,197.5184291000478,197.5184291000478,197.5184291000478,197.5184291000478,197.5184291000478,197.5184291000478,197.5184291000478,197.5184291000478,197.5184291000478,39,55,76,47,39,64,None,None,,,,,,,,,,,,,[],[],[],[],[],[],[],-0.2,1,43,[0.03981481481481482],[-0.30092592592592593],[1],[0],[0],[13.378540199948475],['tijiao_random_2'],213.42931149993092,213.42931149993092,213.42931149993092,213.42931149993092,5.962962962962963,5.095915399957448,218.5435073999688,220.20660839998163,,,,,,200.03714110003784,200.03714110003784,200.03714110003784,200.03714110003784,200.03714110003784,200.03714110003784,200.03714110003784,200.03714110003784,0.006598800187930465,200.03714110003784,,,,,,269,f,23,2023-04-04_09h55.46.720,RL,2022.2.4,60.15381328129028,
1,-0.3,-0.225,0,10,10,10,,,,,,,,,,None,220.20660839998163,220.20660839998163,220.20660839998163,220.20660839998163,220.20660839998163,220.20660839998163,i,0.35391409997828305,220.59078249987215,220.59078249987215,220.59078249987215,220.59078249987215,220.59078249987215,220.59078249987215,220.88838939997368,220.88838939997368,221.93543930002488,221.93543930002488,221.93543930002488,221.93543930002488,221.93543930002488,221.93543930002488,221.93543930002488,221.93543930002488,221.93543930002488,221.93543930002488,221.93543930002488,221.93543930002488,221.93543930002488,221.93543930002488,221.93543930002488,221.93543930002488,221.93543930002488,35,55,83,46,83,59,None,None,224.4454604999628,224.4454604999628,224.4454604999628,224.4454604999628,224.4454604999628,224.4454604999628,224.4454604999628,224.4454604999628,0.00568940001539886,224.4454604999628,78,78,[0.019444444444444445],[-0.2833333333333333],[1],[0],[0],[15.4313171999529],['tijiao'],0.6,0,,[],[],[],[],[],[],[],239.89944089995697,239.89944089995697,239.89944089995697,239.89944089995697,6.898148148148148,7.464349000016227,247.38126900000498,249.02799309999682,,,,,,,,,,,,,,,,,,,,,269,f,23,2023-04-04_09h55.46.720,RL,2022.2.4,60.15381328129028,
0,0.3,0.225,0,11,11,11,,,,,,,,,,None,249.02799309999682,249.02799309999682,249.02799309999682,249.02799309999682,249.02799309999682,249.02799309999682,i,0.41750730015337467,249.47894469997846,249.47894469997846,249.47894469997846,249.47894469997846,249.47894469997846,249.47894469997846,249.77613870007917,249.77613870007917,251.1557666999288,251.1557666999288,251.1557666999288,251.1557666999288,251.1557666999288,251.1557666999288,251.1557666999288,251.1557666999288,251.1557666999288,251.1557666999288,251.1557666999288,251.1557666999288,251.1557666999288,251.1557666999288,251.1557666999288,251.1557666999288,251.1557666999288,40,65,75,45,75,64,None,None,253.66657099989243,253.66657099989243,253.66657099989243,253.66657099989243,253.66657099989243,253.66657099989243,253.66657099989243,253.66657099989243,0.006813300075009465,253.66657099989243,27,27,[0.024074074074074074],[-0.29814814814814816],[1],[0],[0],[16.594314499991015],['tijiao'],-0.6,0,,[],[],[],[],[],[],[],270.28324620006606,270.28324620006606,270.28324620006606,270.28324620006606,7.9907407407407405,4.5881422001402825,274.8895690999925,276.68584639998153,,,,,,,,,,,,,,,,,,,,,269,f,23,2023-04-04_09h55.46.720,RL,2022.2.4,60.15381328129028,
1,-0.3,-0.225,0,12,12,12,,,,,,,,,,None,276.68584639998153,276.68584639998153,276.68584639998153,276.68584639998153,276.68584639998153,276.68584639998153,i,0.37078940006904304,277.0854301999789,277.0854301999789,277.0854301999789,277.0854301999789,277.0854301999789,277.0854301999789,277.3841504000593,277.3841504000593,279.0294673999306,279.0294673999306,279.0294673999306,279.0294673999306,279.0294673999306,279.0294673999306,279.0294673999306,279.0294673999306,279.0294673999306,279.0294673999306,279.0294673999306,279.0294673999306,279.0294673999306,279.0294673999306,279.0294673999306,279.0294673999306,279.0294673999306,34,55,71,41,71,62,None,None,281.54170110006817,281.54170110006817,281.54170110006817,281.54170110006817,281.54170110006817,281.54170110006817,281.54170110006817,281.54170110006817,0.007537099998444319,281.54170110006817,98,98,[0.03148148148148148],[-0.3055555555555556],[1],[0],[0],[16.527351999888197],['tijiao'],-0.6,0,,[],[],[],[],[],[],[],298.09222600003704,298.09222600003704,298.09222600003704,298.09222600003704,9.962962962962964,2.841222800081596,300.952237599995,302.4821746000089,,,,,,,,,,,,,,,,,,,,,269,f,23,2023-04-04_09h55.46.720,RL,2022.2.4,60.15381328129028,
0,0.3,0.225,0,13,13,13,,,,,,,,,,None,302.4821746000089,302.4821746000089,302.4821746000089,302.4821746000089,302.4821746000089,302.4821746000089,i,0.4268058999441564,302.93244330002926,302.93244330002926,302.93244330002926,302.93244330002926,302.93244330002926,302.93244330002926,303.2304052999243,303.2304052999243,304.49342820001766,304.49342820001766,304.49342820001766,304.49342820001766,304.49342820001766,304.49342820001766,304.49342820001766,304.49342820001766,304.49342820001766,304.49342820001766,304.49342820001766,304.49342820001766,304.49342820001766,304.49342820001766,304.49342820001766,304.49342820001766,304.49342820001766,47,51,80,38,80,71,None,None,307.0054639999289,307.0054639999289,307.0054639999289,307.0054639999289,307.0054639999289,307.0054639999289,307.0054639999289,307.0054639999289,0.007189600029960275,307.0054639999289,64,64,[0.12314814814814815],[-0.2777777777777778],[1],[0],[0],[19.23658959986642],['tijiao'],-0.6,0,,[],[],[],[],[],[],[],326.26431309990585,326.26431309990585,326.26431309990585,326.26431309990585,5.944444444444445,6.01752240001224,332.2995571999345,334.0127451000735,,,,,,,,,,,,,,,,,,,,,269,f,23,2023-04-04_09h55.46.720,RL,2022.2.4,60.15381328129028,
1,-0.3,-0.225,0,14,14,14,,,,,,,,,,None,334.0127451000735,334.0127451000735,334.0127451000735,334.0127451000735,334.0127451000735,334.0127451000735,r,0.5035723999608308,334.54692330001853,334.54692330001853,334.54692330001853,334.54692330001853,334.54692330001853,334.54692330001853,334.8441542999353,334.8441542999353,336.42264089989476,336.42264089989476,336.43972199992277,336.43972199992277,336.43972199992277,336.43972199992277,336.43972199992277,336.43972199992277,336.43972199992277,336.43972199992277,336.43972199992277,336.43972199992277,336.43972199992277,336.43972199992277,336.43972199992277,336.43972199992277,336.43972199992277,37,55,80,52,37,57,2.0,3.7391840000636876,,,,,,,,,,,,,[],[],[],[],[],[],[],-0.2,2,,[],[],[],[],[],[],[],,,,,None,None,342.7153002000414,344.284429699881,338.9483455000445,338.9483455000445,338.9483455000445,338.9483455000445,338.9483455000445,,,,,,,,,,,,,,,,269,f,23,2023-04-04_09h55.46.720,RL,2022.2.4,60.15381328129028,
0,0.3,0.225,0,15,15,15,,,,,,,,,,None,344.284429699881,344.284429699881,344.284429699881,344.284429699881,344.284429699881,344.284429699881,r,0.5006162000354379,344.8172867000103,344.8172867000103,344.8172867000103,344.8172867000103,344.8172867000103,344.8172867000103,345.11616249987856,345.11616249987856,346.62856250000186,346.62856250000186,346.62856250000186,346.62856250000186,346.62856250000186,346.62856250000186,346.62856250000186,346.62856250000186,346.62856250000186,346.62856250000186,346.62856250000186,346.62856250000186,346.62856250000186,346.62856250000186,346.62856250000186,346.62856250000186,346.62856250000186,51,55,65,45,51,58,None,None,,,,,,,,,,,,,[],[],[],[],[],[],[],0.2,1,41,[0.009259259259259259],[-0.29074074074074074],[1],[0],[0],[14.25909429998137],['tijiao_random_2'],363.41986769996583,363.41986769996583,363.41986769996583,363.41986769996583,6.009259259259259,2.9350103999022394,366.3732388999779,368.0199342998676,,,,,,349.14795050001703,349.14795050001703,349.14795050001703,349.14795050001703,349.14795050001703,349.14795050001703,349.14795050001703,349.14795050001703,0.006692900089547038,349.14795050001703,,,,,,269,f,23,2023-04-04_09h55.46.720,RL,2022.2.4,60.15381328129028,
1,-0.3,-0.225,0,16,16,16,,,,,,,,,,None,368.0199342998676,368.0199342998676,368.0199342998676,368.0199342998676,368.0199342998676,368.0199342998676,j,0.5401031000073999,368.5860878000967,368.5860878000967,368.5860878000967,368.5860878000967,368.5860878000967,368.5860878000967,368.8845174999442,368.8845174999442,370.16404239996336,370.16404239996336,370.16404239996336,370.16404239996336,370.16404239996336,370.16404239996336,370.16404239996336,370.16404239996336,370.16404239996336,370.16404239996336,370.16404239996336,370.16404239996336,370.16404239996336,370.16404239996336,370.16404239996336,370.16404239996336,370.16404239996336,46,50,72,48,48,62,None,None,,,,,,,,,,,,,[],[],[],[],[],[],[],0.6,1,55,[-0.07407407407407407],[-0.2962962962962963],[1],[0],[0],[12.01650769985281],['tijiao_random_2'],384.7136285000015,384.7136285000015,384.7136285000015,384.7136285000015,7.055555555555555,5.4776747999712825,390.2087081000209,391.98758880002424,,,,,,372.68244999996386,372.68244999996386,372.68244999996386,372.68244999996386,372.68244999996386,372.68244999996386,372.68244999996386,372.68244999996386,0.0066801998764276505,372.68244999996386,,,,,,269,f,23,2023-04-04_09h55.46.720,RL,2022.2.4,60.15381328129028,
0,0.3,0.225,0,17,17,17,,,,,,,,,,None,391.98758880002424,391.98758880002424,391.98758880002424,391.98758880002424,391.98758880002424,391.98758880002424,i,0.481431599939242,392.4883461999707,392.4883461999707,392.4883461999707,392.4883461999707,392.4883461999707,392.4883461999707,392.7859710000921,392.7859710000921,394.1156669999473,394.1156669999473,394.1156669999473,394.1156669999473,394.1156669999473,394.1156669999473,394.1156669999473,394.1156669999473,394.1156669999473,394.1156669999473,394.1156669999473,394.1156669999473,394.1156669999473,394.1156669999473,394.1156669999473,394.1156669999473,394.1156669999473,48,54,63,53,63,43,7.0,3.1905674999579787,,,,,,,,,,,,,[],[],[],[],[],[],[],0.6,2,,[],[],[],[],[],[],[],,,,,None,None,399.8411169000901,401.42870970000513,396.62434810004197,396.62434810004197,396.62434810004197,396.62434810004197,396.62434810004197,,,,,,,,,,,,,,,,269,f,23,2023-04-04_09h55.46.720,RL,2022.2.4,60.15381328129028,
1,-0.3,-0.225,0,18,18,18,,,,,,,,,,None,401.42870970000513,401.42870970000513,401.42870970000513,401.42870970000513,401.42870970000513,401.42870970000513,f,0.4206041998695582,401.87819359987043,401.87819359987043,401.87819359987043,401.87819359987043,401.87819359987043,401.87819359987043,402.176708499901,402.176708499901,403.90564080001786,403.90564080001786,403.90564080001786,403.90564080001786,403.90564080001786,403.90564080001786,403.90564080001786,403.90564080001786,403.90564080001786,403.90564080001786,403.90564080001786,403.90564080001786,403.90564080001786,403.90564080001786,403.90564080001786,403.90564080001786,403.90564080001786,53,55,66,53,55,65,None,None,406.41560030006804,406.41560030006804,406.41560030006804,406.41560030006804,406.41560030006804,406.41560030006804,406.41560030006804,406.41560030006804,0.006208600010722876,406.41560030006804,79,79,[0.10185185185185185],[-0.29259259259259257],[1],[0],[0],[19.570548200048506],['tijiao'],-0.2,0,,[],[],[],[],[],[],[],426.0094365000259,426.0094365000259,426.0094365000259,426.0094365000259,9.0,3.2739375000819564,429.30163570004515,430.8151573999785,,,,,,,,,,,,,,,,,,,,,269,f,23,2023-04-04_09h55.46.720,RL,2022.2.4,60.15381328129028,
0,0.3,0.225,0,19,19,19,,,,,,,,,,None,430.8151573999785,430.8151573999785,430.8151573999785,430.8151573999785,430.8151573999785,430.8151573999785,f,0.33704380015842617,431.18143770005554,431.18143770005554,431.18143770005554,431.18143770005554,431.18143770005554,431.18143770005554,431.4803818000946,431.4803818000946,432.97614270006306,432.97614270006306,432.97614270006306,432.97614270006306,432.97614270006306,432.97614270006306,432.97614270006306,432.97614270006306,432.97614270006306,432.97614270006306,432.97614270006306,432.97614270006306,432.97614270006306,432.97614270006306,432.97614270006306,432.97614270006306,432.97614270006306,48,60,66,54,60,53,None,None,435.4883121000603,435.4883121000603,435.4883121000603,435.4883121000603,435.4883121000603,435.4883121000603,435.4883121000603,435.4883121000603,0.007554300129413605,435.4883121000603,99,99,"[0.05185185185185185, 0.03796296296296296, 0.028703703703703703, 0.028703703703703703, 0.000925925925925926, -0.030555555555555555]","[-0.2861111111111111, -0.2861111111111111, -0.28703703703703703, -0.28703703703703703, -0.2851851851851852, -0.2962962962962963]","[1, 1, 1, 1, 1, 1]","[0, 0, 0, 0, 0, 0]","[0, 0, 0, 0, 0, 0]","[10.759736800100654, 13.535743599990383, 17.225341600133106, 18.60506510012783, 20.78226330014877, 29.4915698999539]",['tijiao'],0.6,0,,[],[],[],[],[],[],[],465.00014759995975,465.00014759995975,465.00014759995975,465.00014759995975,10.86111111111111,5.719771200092509,470.73856110009365,472.3517728999723,,,,,,,,,,,,,,,,,,,,,269,f,23,2023-04-04_09h55.46.720,RL,2022.2.4,60.15381328129028,
1,-0.3,-0.225,0,20,20,20,,,,,,,,,,None,472.3517728999723,472.3517728999723,472.3517728999723,472.3517728999723,472.3517728999723,472.3517728999723,f,0.4122064998373389,472.7857897998765,472.7857897998765,472.7857897998765,472.7857897998765,472.7857897998765,472.7857897998765,473.0833785000723,473.0833785000723,474.19700439996086,474.19700439996086,474.19700439996086,474.19700439996086,474.19700439996086,474.19700439996086,474.19700439996086,474.19700439996086,474.19700439996086,474.19700439996086,474.19700439996086,474.19700439996086,474.19700439996086,474.19700439996086,474.19700439996086,474.19700439996086,474.19700439996086,46,55,65,51,55,32,7.0,1.2124574999324977,,,,,,,,,,,,,[],[],[],[],[],[],[],0.2,3,,[],[],[],[],[],[],[],,,,,None,None,477.94348270003684,479.73177190008573,476.70616229996085,476.70616229996085,476.70616229996085,476.70616229996085,476.70616229996085,,,,,,,,,,,,,,,,269,f,23,2023-04-04_09h55.46.720,RL,2022.2.4,60.15381328129028,
0,0.3,0.225,0,21,21,21,,,,,,,,,,None,479.73177190008573,479.73177190008573,479.73177190008573,479.73177190008573,479.73177190008573,479.73177190008573,j,0.8245228999294341,480.5814614999108,480.5814614999108,480.5814614999108,480.5814614999108,480.5814614999108,480.5814614999108,480.87848459999077,480.87848459999077,482.8069537000265,482.8069537000265,482.8069537000265,482.8069537000265,482.8069537000265,482.8069537000265,482.8069537000265,482.8069537000265,482.8069537000265,482.8069537000265,482.8069537000265,482.8069537000265,482.8069537000265,482.8069537000265,482.8069537000265,482.8069537000265,482.8069537000265,48,60,77,60,60,65,6.0,3.0907330000773072,,,,,,,,,,,,,[],[],[],[],[],[],[],0.6,3,,[],[],[],[],[],[],[],,,,,None,None,488.43422749987803,490.35255709988996,485.3158299000934,485.3158299000934,485.3158299000934,485.3158299000934,485.3158299000934,,,,,,,,,,,,,,,,269,f,23,2023-04-04_09h55.46.720,RL,2022.2.4,60.15381328129028,
1,-0.3,-0.225,0,22,22,22,,,,,,,,,,None,490.35255709988996,490.35255709988996,490.35255709988996,490.35255709988996,490.35255709988996,490.35255709988996,r,0.5716719999909401,490.95300709991716,490.95300709991716,490.95300709991716,490.95300709991716,490.95300709991716,490.95300709991716,491.2505805999972,491.2505805999972,492.94592430000193,492.94592430000193,492.94592430000193,492.94592430000193,492.94592430000193,492.94592430000193,492.94592430000193,492.94592430000193,492.94592430000193,492.94592430000193,492.94592430000193,492.94592430000193,492.94592430000193,492.94592430000193,492.94592430000193,492.94592430000193,492.94592430000193,53,54,67,49,53,57,None,None,495.4562373000663,495.4562373000663,495.4562373000663,495.4562373000663,495.4562373000663,495.4562373000663,495.4562373000663,495.4562373000663,0.007360300049185753,495.4562373000663,40,40,[0.06944444444444445],[-0.2962962962962963],[1],[0],[0],[17.542738300049677],['tijiao'],-0.6,0,,[],[],[],[],[],[],[],513.0215364999603,513.0215364999603,513.0215364999603,513.0215364999603,4.962962962962964,8.47695459984243,521.5170408000704,523.5284221998882,,,,,,,,,,,,,,,,,,,,,269,f,23,2023-04-04_09h55.46.720,RL,2022.2.4,60.15381328129028,
0,0.3,0.225,0,23,23,23,,,,,,,,,,None,523.5284221998882,523.5284221998882,523.5284221998882,523.5284221998882,523.5284221998882,523.5284221998882,j,0.44567609997466207,523.9954363000579,523.9954363000579,523.9954363000579,523.9954363000579,523.9954363000579,523.9954363000579,524.2937223999761,524.2937223999761,525.5236041999888,525.5236041999888,525.5236041999888,525.5236041999888,525.5236041999888,525.5236041999888,525.5236041999888,525.5236041999888,525.5236041999888,525.5236041999888,525.5236041999888,525.5236041999888,525.5236041999888,525.5236041999888,525.5236041999888,525.5236041999888,525.5236041999888,57,59,74,56,56,34,None,None,,,,,,,,,,,,,[],[],[],[],[],[],[],-0.2,1,11,[-0.030555555555555555],[-0.2962962962962963],[1],[0],[0],[25.79479720001109],['tijiao_random_2'],553.8514525000937,553.8514525000937,553.8514525000937,553.8514525000937,5.157407407407407,1.7208762997761369,555.5902398000471,557.2535409999546,,,,,,528.0424625000451,528.0424625000451,528.0424625000451,528.0424625000451,528.0424625000451,528.0424625000451,528.0424625000451,528.0424625000451,0.007272800197824836,528.0424625000451,,,,,,269,f,23,2023-04-04_09h55.46.720,RL,2022.2.4,60.15381328129028,
1,-0.3,-0.225,0,24,24,24,,,,,,,,,,None,557.2535409999546,557.2535409999546,557.2535409999546,557.2535409999546,557.2535409999546,557.2535409999546,i,0.3759411000646651,557.6543745000381,557.6543745000381,557.6543745000381,557.6543745000381,557.6543745000381,557.6543745000381,557.9518848999869,557.9518848999869,559.2479920000769,559.2479920000769,559.2479920000769,559.2479920000769,559.2479920000769,559.2479920000769,559.2479920000769,559.2479920000769,559.2479920000769,559.2479920000769,559.2479920000769,559.2479920000769,559.2479920000769,559.2479920000769,559.2479920000769,559.2479920000769,559.2479920000769,49,45,68,56,68,48,7.0,2.658037699991837,,,,,,,,,,,,,[],[],[],[],[],[],[],-0.2,2,,[],[],[],[],[],[],[],,,,,None,None,564.444044200005,566.062745400006,561.7573013999499,561.7573013999499,561.7573013999499,561.7573013999499,561.7573013999499,,,,,,,,,,,,,,,,269,f,23,2023-04-04_09h55.46.720,RL,2022.2.4,60.15381328129028,
0,0.3,0.225,0,25,25,25,,,,,,,,,,None,566.062745400006,566.062745400006,566.062745400006,566.062745400006,566.062745400006,566.062745400006,i,0.4918966998811811,566.5787656998727,566.5787656998727,566.5787656998727,566.5787656998727,566.5787656998727,566.5787656998727,566.8773068999872,566.8773068999872,568.556370300008,568.556370300008,568.556370300008,568.556370300008,568.556370300008,568.556370300008,568.556370300008,568.556370300008,568.556370300008,568.556370300008,568.556370300008,568.556370300008,568.556370300008,568.556370300008,568.556370300008,568.556370300008,568.556370300008,58,44,77,53,77,62,None,None,571.0681421000045,571.0681421000045,571.0681421000045,571.0681421000045,571.0681421000045,571.0681421000045,571.0681421000045,571.0681421000045,0.007240399951115251,571.0681421000045,90,90,[0.049074074074074076],[-0.30092592592592593],[1],[0],[0],[9.928845999995247],['tijiao'],-0.6,0,,[],[],[],[],[],[],[],581.0183284999803,581.0183284999803,581.0183284999803,581.0183284999803,10.935185185185185,4.62191960006021,585.6581597998738,587.6040441000368,,,,,,,,,,,,,,,,,,,,,269,f,23,2023-04-04_09h55.46.720,RL,2022.2.4,60.15381328129028,
1,-0.3,-0.225,0,26,26,26,,,,,,,,,,None,587.6040441000368,587.6040441000368,587.6040441000368,587.6040441000368,587.6040441000368,587.6040441000368,i,0.40311079984530807,588.0374304999132,588.0374304999132,588.0374304999132,588.0374304999132,588.0374304999132,588.0374304999132,588.3357031999622,588.3357031999622,589.1998993000016,589.1998993000016,589.1998993000016,589.1998993000016,589.1998993000016,589.1998993000016,589.1998993000016,589.1998993000016,589.1998993000016,589.1998993000016,589.1998993000016,589.1998993000016,589.1998993000016,589.1998993000016,589.1998993000016,589.1998993000016,589.1998993000016,51,50,65,54,65,67,None,None,591.7114170000423,591.7114170000423,591.7114170000423,591.7114170000423,591.7114170000423,591.7114170000423,591.7114170000423,591.7114170000423,0.007659400114789605,591.7114170000423,10,10,[0.05462962962962963],[-0.30648148148148147],[1],[0],[0],[11.757118200184777],['tijiao'],-0.6,0,,[],[],[],[],[],[],[],603.490365399979,603.490365399979,603.490365399979,603.490365399979,5.842592592592593,8.029100600164384,611.5380808999762,613.4003632999957,,,,,,,,,,,,,,,,,,,,,269,f,23,2023-04-04_09h55.46.720,RL,2022.2.4,60.15381328129028,
0,0.3,0.225,0,27,27,27,,,,,,,,,,None,613.4003632999957,613.4003632999957,613.4003632999957,613.4003632999957,613.4003632999957,613.4003632999957,f,0.33074510004371405,613.7505073999055,613.7505073999055,613.7505073999055,613.7505073999055,613.7505073999055,613.7505073999055,614.048475000076,614.048475000076,615.6775392999407,615.6775392999407,615.6775392999407,615.6775392999407,615.6775392999407,615.6775392999407,615.6775392999407,615.6775392999407,615.6775392999407,615.6775392999407,615.6775392999407,615.6775392999407,615.6775392999407,615.6775392999407,615.6775392999407,615.6775392999407,615.6775392999407,56,52,68,50,52,35,None,None,618.1877609000076,618.1877609000076,618.1877609000076,618.1877609000076,618.1877609000076,618.1877609000076,618.1877609000076,618.1877609000076,0.005887200124561787,618.1877609000076,58,58,[-0.009259259259259259],[-0.29814814814814816],[1],[0],[0],[18.07483489997685],['tijiao'],0.6,0,,[],[],[],[],[],[],[],636.2858182999771,636.2858182999771,636.2858182999771,636.2858182999771,8.962962962962962,10.254822399932891,646.558599299984,648.172078799922,,,,,,,,,,,,,,,,,,,,,269,f,23,2023-04-04_09h55.46.720,RL,2022.2.4,60.15381328129028,
1,-0.3,-0.225,0,28,28,28,,,,,,,,,,None,648.172078799922,648.172078799922,648.172078799922,648.172078799922,648.172078799922,648.172078799922,f,0.45829629991203547,648.6552170999348,648.6552170999348,648.6552170999348,648.6552170999348,648.6552170999348,648.6552170999348,648.9533851000015,648.9533851000015,649.9505771000404,649.9505771000404,649.9505771000404,649.9505771000404,649.9505771000404,649.9505771000404,649.9505771000404,649.9505771000404,649.9505771000404,649.9505771000404,649.9505771000404,649.9505771000404,649.9505771000404,649.9505771000404,649.9505771000404,649.9505771000404,649.9505771000404,56,50,73,64,50,66,None,None,652.4622229000088,652.4622229000088,652.4622229000088,652.4622229000088,652.4622229000088,652.4622229000088,652.4622229000088,652.4622229000088,0.006657999940216541,652.4622229000088,50,50,[0.03796296296296296],[-0.2777777777777778],[1],[0],[0],[14.284542700042948],['tijiao'],0.6,0,,[],[],[],[],[],[],[],666.7673496999778,666.7673496999778,666.7673496999778,666.7673496999778,4.935185185185185,9.475663100136444,676.2609739999752,677.8245476000011,,,,,,,,,,,,,,,,,,,,,269,f,23,2023-04-04_09h55.46.720,RL,2022.2.4,60.15381328129028,
0,0.3,0.225,0,29,29,29,,,,,,,,,,None,677.8245476000011,677.8245476000011,677.8245476000011,677.8245476000011,677.8245476000011,677.8245476000011,j,0.375984099926427,678.2258440998849,678.2258440998849,678.2258440998849,678.2258440998849,678.2258440998849,678.2258440998849,678.5224736998789,678.5224736998789,680.101791099878,680.101791099878,680.101791099878,680.101791099878,680.101791099878,680.101791099878,680.101791099878,680.101791099878,680.101791099878,680.101791099878,680.101791099878,680.101791099878,680.101791099878,680.101791099878,680.101791099878,680.101791099878,680.101791099878,48,48,69,50,50,64,None,None,,,,,,,,,,,,,[],[],[],[],[],[],[],0.6,1,74,[-0.027777777777777776],[-0.3074074074074074],[1],[0],[0],[19.29355700011365],['tijiao_random_2'],701.930126799969,701.930126799969,701.930126799969,701.930126799969,7.046296296296296,8.985173400025815,710.9333250999916,712.845477799885,,,,,,682.6221356000751,682.6221356000751,682.6221356000751,682.6221356000751,682.6221356000751,682.6221356000751,682.6221356000751,682.6221356000751,0.007181999972090125,682.6221356000751,,,,,,269,f,23,2023-04-04_09h55.46.720,RL,2022.2.4,60.15381328129028,
1,-0.3,-0.225,0,30,30,30,,,,,,,,,,None,712.845477799885,712.845477799885,712.845477799885,712.845477799885,712.845477799885,712.845477799885,i,0.3802503999322653,713.2476099000778,713.2476099000778,713.2476099000778,713.2476099000778,713.2476099000778,713.2476099000778,713.5439198999666,713.5439198999666,715.2226484999992,715.2226484999992,715.2226484999992,715.2226484999992,715.2226484999992,715.2226484999992,715.2226484999992,715.2226484999992,715.2226484999992,715.2226484999992,715.2226484999992,715.2226484999992,715.2226484999992,715.2226484999992,715.2226484999992,715.2226484999992,715.2226484999992,52,44,72,61,72,55,7.0,3.390156100038439,,,,,,,,,,,,,[],[],[],[],[],[],[],-0.2,3,,[],[],[],[],[],[],[],,,,,None,None,721.1479478999972,723.1507659000345,717.7318023000844,717.7318023000844,717.7318023000844,717.7318023000844,717.7318023000844,,,,,,,,,,,,,,,,269,f,23,2023-04-04_09h55.46.720,RL,2022.2.4,60.15381328129028,
0,0.3,0.225,0,31,31,31,,,,,,,,,,None,723.1507659000345,723.1507659000345,723.1507659000345,723.1507659000345,723.1507659000345,723.1507659000345,f,0.4686280000023544,723.6496604999993,723.6496604999993,723.6496604999993,723.6496604999993,723.6496604999993,723.6496604999993,723.9485210999846,723.9485210999846,725.1618737999815,725.1618737999815,725.1618737999815,725.1618737999815,725.1618737999815,725.1618737999815,725.1618737999815,725.1618737999815,725.1618737999815,725.1618737999815,725.1618737999815,725.1618737999815,725.1618737999815,725.1618737999815,725.1618737999815,725.1618737999815,725.1618737999815,56,33,78,62,33,71,None,None,727.6736534000374,727.6736534000374,727.6736534000374,727.6736534000374,727.6736534000374,727.6736534000374,727.6736534000374,727.6736534000374,0.007394399959594011,727.6736534000374,69,69,[0.07962962962962963],[-0.28055555555555556],[1],[0],[0],[16.145113999955356],['tijiao'],-0.2,0,,[],[],[],[],[],[],[],743.8415604999755,743.8415604999755,743.8415604999755,743.8415604999755,5.972222222222222,8.078401200007647,751.9378635000903,753.7505129000638,,,,,,,,,,,,,,,,,,,,,269,f,23,2023-04-04_09h55.46.720,RL,2022.2.4,60.15381328129028,
1,-0.3,-0.225,0,32,32,32,,,,,,,,,,None,753.7505129000638,753.7505129000638,753.7505129000638,753.7505129000638,753.7505129000638,753.7505129000638,i,0.3225117998663336,754.1012534000911,754.1012534000911,754.1012534000911,754.1012534000911,754.1012534000911,754.1012534000911,754.3990456999745,754.3990456999745,756.1276759000029,756.1276759000029,756.1276759000029,756.1276759000029,756.1276759000029,756.1276759000029,756.1276759000029,756.1276759000029,756.1276759000029,756.1276759000029,756.1276759000029,756.1276759000029,756.1276759000029,756.1276759000029,756.1276759000029,756.1276759000029,756.1276759000029,53,30,74,56,74,74,6.0,4.319986099842936,,,,,,,,,,,,,[],[],[],[],[],[],[],0.2,2,,[],[],[],[],[],[],[],,,,,None,None,762.9825244999956,764.8038224999327,758.6369109998923,758.6369109998923,758.6369109998923,758.6369109998923,758.6369109998923,,,,,,,,,,,,,,,,269,f,23,2023-04-04_09h55.46.720,RL,2022.2.4,60.15381328129028,
0,0.3,0.225,0,33,33,33,,,,,,,,,,None,764.8038224999327,764.8038224999327,764.8038224999327,764.8038224999327,764.8038224999327,764.8038224999327,j,0.39756630011834204,765.2206230999436,765.2206230999436,765.2206230999436,765.2206230999436,765.2206230999436,765.2206230999436,765.5187609998975,765.5187609998975,766.566102599958,766.566102599958,766.566102599958,766.566102599958,766.566102599958,766.566102599958,766.566102599958,766.566102599958,766.566102599958,766.566102599958,766.566102599958,766.566102599958,766.566102599958,766.566102599958,766.566102599958,766.566102599958,766.566102599958,58,27,69,60,60,69,None,None,769.0780187000055,769.0780187000055,769.0780187000055,769.0780187000055,769.0780187000055,769.0780187000055,769.0780187000055,769.0780187000055,0.0076274999883025885,769.0780187000055,70,70,[0.08796296296296297],[-0.2833333333333333],[1],[0],[0],[7.368650800082833],['tijiao'],0.2,0,,[],[],[],[],[],[],[],776.4678261000663,776.4678261000663,776.4678261000663,776.4678261000663,9.916666666666666,2.045088700018823,778.5317887999117,780.0951886000112,,,,,,,,,,,,,,,,,,,,,269,f,23,2023-04-04_09h55.46.720,RL,2022.2.4,60.15381328129028,
1,-0.3,-0.225,0,34,34,34,,,,,,,,,,None,780.0951886000112,780.0951886000112,780.0951886000112,780.0951886000112,780.0951886000112,780.0951886000112,j,0.35037810006178916,780.478059399873,780.478059399873,780.478059399873,780.478059399873,780.478059399873,780.478059399873,780.7771524998825,780.7771524998825,782.2728277000133,782.2728277000133,782.2728277000133,782.2728277000133,782.2728277000133,782.2728277000133,782.2728277000133,782.2728277000133,782.2728277000133,782.2728277000133,782.2728277000133,782.2728277000133,782.2728277000133,782.2728277000133,782.2728277000133,782.2728277000133,782.2728277000133,64,36,70,51,51,75,None,None,,,,,,,,,,,,,[],[],[],[],[],[],[],0.2,1,60,[0.09259259259259259],[-0.2777777777777778],[1],[0],[0],[17.20041840011254],['tijiao_random_2'],802.0068192998879,802.0068192998879,802.0068192998879,802.0068192998879,7.9907407407407405,6.358635799959302,808.3837609000038,810.1131664998829,,,,,,784.7924842999782,784.7924842999782,784.7924842999782,784.7924842999782,784.7924842999782,784.7924842999782,784.7924842999782,784.7924842999782,0.006855900166556239,784.7924842999782,,,,,,269,f,23,2023-04-04_09h55.46.720,RL,2022.2.4,60.15381328129028,
0,0.3,0.225,0,35,35,35,,,,,,,,,,None,810.1131664998829,810.1131664998829,810.1131664998829,810.1131664998829,810.1131664998829,810.1131664998829,i,0.39307230012491345,810.5296155998949,810.5296155998949,810.5296155998949,810.5296155998949,810.5296155998949,810.5296155998949,810.8284829000477,810.8284829000477,812.0252278000116,812.0252278000116,812.0252278000116,812.0252278000116,812.0252278000116,812.0252278000116,812.0252278000116,812.0252278000116,812.0252278000116,812.0252278000116,812.0252278000116,812.0252278000116,812.0252278000116,812.0252278000116,812.0252278000116,812.0252278000116,812.0252278000116,56,38,72,53,72,69,7.0,1.8778603000100702,,,,,,,,,,,,,[],[],[],[],[],[],[],0.2,3,,[],[],[],[],[],[],[],,,,,None,None,816.4385347000789,818.3575522999745,814.5342768998817,814.5342768998817,814.5342768998817,814.5342768998817,814.5342768998817,,,,,,,,,,,,,,,,269,f,23,2023-04-04_09h55.46.720,RL,2022.2.4,60.15381328129028,
1,-0.3,-0.225,0,36,36,36,,,,,,,,,,None,818.3575522999745,818.3575522999745,818.3575522999745,818.3575522999745,818.3575522999745,818.3575522999745,f,0.6200480000115931,819.0077281999402,819.0077281999402,819.0077281999402,819.0077281999402,819.0077281999402,819.0077281999402,819.3053597998805,819.3053597998805,821.0004769000225,821.0004769000225,821.0004769000225,821.0004769000225,821.0004769000225,821.0004769000225,821.0004769000225,821.0004769000225,821.0004769000225,821.0004769000225,821.0004769000225,821.0004769000225,821.0004769000225,821.0004769000225,821.0004769000225,821.0004769000225,821.0004769000225,59,31,73,55,31,69,None,None,,,,,,,,,,,,,[],[],[],[],[],[],[],-0.6,1,88,[0.09722222222222222],[-0.2898148148148148],[1],[0],[0],[14.108622699975967],['tijiao_random_2'],837.6424096000846,837.6424096000846,837.6424096000846,837.6424096000846,10.00925925925926,5.694072499871254,843.3552876999602,845.2177124998998,,,,,,823.5201930999756,823.5201930999756,823.5201930999756,823.5201930999756,823.5201930999756,823.5201930999756,823.5201930999756,823.5201930999756,0.006641099927946925,823.5201930999756,,,,,,269,f,23,2023-04-04_09h55.46.720,RL,2022.2.4,60.15381328129028,
0,0.3,0.225,0,37,37,37,,,,,,,,,,None,845.2177124998998,845.2177124998998,845.2177124998998,845.2177124998998,845.2177124998998,845.2177124998998,r,0.32391889998689294,845.5694490999449,845.5694490999449,845.5694490999449,845.5694490999449,845.5694490999449,845.5694490999449,845.8662536998745,845.8662536998745,847.4286990999244,847.4286990999244,847.4286990999244,847.4286990999244,847.4286990999244,847.4286990999244,847.4286990999244,847.4286990999244,847.4286990999244,847.4286990999244,847.4286990999244,847.4286990999244,847.4286990999244,847.4286990999244,847.4286990999244,847.4286990999244,847.4286990999244,68,28,77,55,68,69,None,None,,,,,,,,,,,,,[],[],[],[],[],[],[],-0.6,1,32,[0.046296296296296294],[-0.30462962962962964],[1],[0],[0],[18.778007899876684],['tijiao_random_2'],868.7417359999381,868.7417359999381,868.7417359999381,868.7417359999381,6.916666666666667,5.910192199982703,874.6694507999346,876.2493793000467,,,,,,849.9492993999738,849.9492993999738,849.9492993999738,849.9492993999738,849.9492993999738,849.9492993999738,849.9492993999738,849.9492993999738,0.006759899901226163,849.9492993999738,,,,,,269,f,23,2023-04-04_09h55.46.720,RL,2022.2.4,60.15381328129028,
1,-0.3,-0.225,0,38,38,38,,,,,,,,,,None,876.2493793000467,876.2493793000467,876.2493793000467,876.2493793000467,876.2493793000467,876.2493793000467,j,0.3553908998146653,876.6327491998672,876.6327491998672,876.6327491998672,876.6327491998672,876.6327491998672,876.6327491998672,876.9309785999358,876.9309785999358,878.0284742000513,878.0284742000513,878.0284742000513,878.0284742000513,878.0284742000513,878.0284742000513,878.0284742000513,878.0284742000513,878.0284742000513,878.0284742000513,878.0284742000513,878.0284742000513,878.0284742000513,878.0284742000513,878.0284742000513,878.0284742000513,878.0284742000513,59,39,76,56,56,31,7.0,2.2759501999244094,,,,,,,,,,,,,[],[],[],[],[],[],[],0.6,3,,[],[],[],[],[],[],[],,,,,None,None,882.8394770999439,884.7100535000209,880.5374352000654,880.5374352000654,880.5374352000654,880.5374352000654,880.5374352000654,,,,,,,,,,,,,,,,269,f,23,2023-04-04_09h55.46.720,RL,2022.2.4,60.15381328129028,
0,0.3,0.225,0,39,39,39,,,,,,,,,,None,884.7100535000209,884.7100535000209,884.7100535000209,884.7100535000209,884.7100535000209,884.7100535000209,j,0.5960899998899549,885.326638000086,885.326638000086,885.326638000086,885.326638000086,885.326638000086,885.326638000086,885.6240248000249,885.6240248000249,887.203235300025,887.203235300025,887.203235300025,887.203235300025,887.203235300025,887.203235300025,887.203235300025,887.203235300025,887.203235300025,887.203235300025,887.203235300025,887.203235300025,887.203235300025,887.203235300025,887.203235300025,887.203235300025,887.203235300025,67,42,64,61,61,75,5.0,4.952540999976918,,,,,,,,,,,,,[],[],[],[],[],[],[],0.6,3,,[],[],[],[],[],[],[],,,,,None,None,894.6931757000275,896.660393799888,889.712072199909,889.712072199909,889.712072199909,889.712072199909,889.712072199909,,,,,,,,,,,,,,,,269,f,23,2023-04-04_09h55.46.720,RL,2022.2.4,60.15381328129028,
1,-0.3,-0.225,0,40,40,40,,,,,,,,,,None,896.660393799888,896.660393799888,896.660393799888,896.660393799888,896.660393799888,896.660393799888,i,0.4234660998918116,897.109780699946,897.109780699946,897.109780699946,897.109780699946,897.109780699946,897.109780699946,897.4087104999926,897.4087104999926,899.3034657998942,899.3034657998942,899.3034657998942,899.3034657998942,899.3034657998942,899.3034657998942,899.3034657998942,899.3034657998942,899.3034657998942,899.3034657998942,899.3034657998942,899.3034657998942,899.3034657998942,899.3034657998942,899.3034657998942,899.3034657998942,899.3034657998942,64,44,71,64,71,72,None,None,,,,,,,,,,,,,[],[],[],[],[],[],[],-0.6,1,30,[0.058333333333333334],[-0.28703703703703703],[1],[0],[0],[15.488346199970692],['tijiao_random_2'],917.3247605999932,917.3247605999932,917.3247605999932,917.3247605999932,5.0,1.6387002000119537,918.9818899999373,920.6781075999606,,,,,,901.8235297000501,901.8235297000501,901.8235297000501,901.8235297000501,901.8235297000501,901.8235297000501,901.8235297000501,901.8235297000501,0.006573999999091029,901.8235297000501,,,,,,269,f,23,2023-04-04_09h55.46.720,RL,2022.2.4,60.15381328129028,
0,0.3,0.225,0,41,41,41,,,,,,,,,,None,920.6781075999606,920.6781075999606,920.6781075999606,920.6781075999606,920.6781075999606,920.6781075999606,r,0.32631939998827875,921.0306257000193,921.0306257000193,921.0306257000193,921.0306257000193,921.0306257000193,921.0306257000193,921.3269090999383,921.3269090999383,922.4736216000747,922.4736216000747,922.4736216000747,922.4736216000747,922.4736216000747,922.4736216000747,922.4736216000747,922.4736216000747,922.4736216000747,922.4736216000747,922.4736216000747,922.4736216000747,922.4736216000747,922.4736216000747,922.4736216000747,922.4736216000747,922.4736216000747,62,44,74,45,62,81,None,None,,,,,,,,,,,,,[],[],[],[],[],[],[],-0.2,1,66,[-0.03518518518518519],[-0.2861111111111111],[1],[0],[0],[7.211345900082961],['tijiao_random_2'],932.2178311999887,932.2178311999887,932.2178311999887,932.2178311999887,6.944444444444445,2.1041955000255257,934.3402452000882,935.9367557000369,,,,,,924.9934189999476,924.9934189999476,924.9934189999476,924.9934189999476,924.9934189999476,924.9934189999476,924.9934189999476,924.9934189999476,0.006992199923843145,924.9934189999476,,,,,,269,f,23,2023-04-04_09h55.46.720,RL,2022.2.4,60.15381328129028,
1,-0.3,-0.225,0,42,42,42,,,,,,,,,,None,935.9367557000369,935.9367557000369,935.9367557000369,935.9367557000369,935.9367557000369,935.9367557000369,i,0.3572241999208927,936.3195406999439,936.3195406999439,936.3195406999439,936.3195406999439,936.3195406999439,936.3195406999439,936.6185554000549,936.6185554000549,938.0976523999125,938.0976523999125,938.0976523999125,938.0976523999125,938.0976523999125,938.0976523999125,938.0976523999125,938.0976523999125,938.0976523999125,938.0976523999125,938.0976523999125,938.0976523999125,938.0976523999125,938.0976523999125,938.0976523999125,938.0976523999125,938.0976523999125,74,39,60,53,60,76,None,None,940.6088940999471,940.6088940999471,940.6088940999471,940.6088940999471,940.6088940999471,940.6088940999471,940.6088940999471,940.6088940999471,0.007156299892812967,940.6088940999471,80,80,[0.05555555555555555],[-0.2851851851851852],[1],[0],[0],[9.91230329987593],['tijiao'],-0.6,0,,[],[],[],[],[],[],[],950.5425473998766,950.5425473998766,950.5425473998766,950.5425473998766,10.046296296296298,2.262291199993342,952.8229833000805,954.8181725998875,,,,,,,,,,,,,,,,,,,,,269,f,23,2023-04-04_09h55.46.720,RL,2022.2.4,60.15381328129028,
0,0.3,0.225,0,43,43,43,,,,,,,,,,None,954.8181725998875,954.8181725998875,954.8181725998875,954.8181725998875,954.8181725998875,954.8181725998875,i,0.3266373001970351,955.1705563999712,955.1705563999712,955.1705563999712,955.1705563999712,955.1705563999712,955.1705563999712,955.4670166000724,955.4670166000724,956.9126917000394,956.9126917000394,956.9295069999062,956.9295069999062,956.9295069999062,956.9295069999062,956.9295069999062,956.9295069999062,956.9295069999062,956.9295069999062,956.9295069999062,956.9295069999062,956.9295069999062,956.9295069999062,956.9295069999062,956.9295069999062,956.9295069999062,75,44,64,52,64,65,4.0,3.0406895999331027,,,,,,,,,,,,,[],[],[],[],[],[],[],0.2,3,,[],[],[],[],[],[],[],,,,,None,None,962.50873459992,964.3426733999513,959.4388172000181,959.4388172000181,959.4388172000181,959.4388172000181,959.4388172000181,,,,,,,,,,,,,,,,269,f,23,2023-04-04_09h55.46.720,RL,2022.2.4,60.15381328129028,
1,-0.3,-0.225,0,44,44,44,,,,,,,,,,None,964.3426733999513,964.3426733999513,964.3426733999513,964.3426733999513,964.3426733999513,964.3426733999513,i,0.49151089997030795,964.860483000055,964.860483000055,964.860483000055,964.860483000055,964.860483000055,964.860483000055,965.1573794998694,965.1573794998694,966.7028425000608,966.7028425000608,966.7028425000608,966.7028425000608,966.7028425000608,966.7028425000608,966.7028425000608,966.7028425000608,966.7028425000608,966.7028425000608,966.7028425000608,966.7028425000608,966.7028425000608,966.7028425000608,966.7028425000608,966.7028425000608,966.7028425000608,74,47,56,56,56,74,None,None,969.213657299988,969.213657299988,969.213657299988,969.213657299988,969.213657299988,969.213657299988,969.213657299988,969.213657299988,0.006645199842751026,969.213657299988,49,49,[0.003703703703703704],[-0.3074074074074074],[1],[0],[0],[7.86833589989692],['tijiao'],-0.6,0,,[],[],[],[],[],[],[],977.1018608999439,977.1018608999439,977.1018608999439,977.1018608999439,4.046296296296296,5.920590599998832,983.04048039997,984.886407099897,,,,,,,,,,,,,,,,,,,,,269,f,23,2023-04-04_09h55.46.720,RL,2022.2.4,60.15381328129028,
0,0.3,0.225,0,45,45,45,,,,,,,,,,None,984.886407099897,984.886407099897,984.886407099897,984.886407099897,984.886407099897,984.886407099897,f,0.3773458998184651,985.2869780999608,985.2869780999608,985.2869780999608,985.2869780999608,985.2869780999608,985.2869780999608,985.5849202000536,985.5849202000536,986.964424100006,986.964424100006,986.964424100006,986.964424100006,986.964424100006,986.964424100006,986.964424100006,986.964424100006,986.964424100006,986.964424100006,986.964424100006,986.964424100006,986.964424100006,986.964424100006,986.964424100006,986.964424100006,986.964424100006,75,46,59,51,46,69,None,None,,,,,,,,,,,,,[],[],[],[],[],[],[],0.2,1,31,[-0.002777777777777778],[-0.3138888888888889],[1],[0],[0],[9.55486680008471],['tijiao_random_2'],999.0513432000298,999.0513432000298,999.0513432000298,999.0513432000298,4.944444444444445,5.6789832001086324,1004.748021400068,1006.6273326999508,,,,,,989.4841547000688,989.4841547000688,989.4841547000688,989.4841547000688,989.4841547000688,989.4841547000688,989.4841547000688,989.4841547000688,0.006442300044000149,989.4841547000688,,,,,,269,f,23,2023-04-04_09h55.46.720,RL,2022.2.4,60.15381328129028,
1,-0.3,-0.225,0,46,46,46,,,,,,,,,,None,1006.6273326999508,1006.6273326999508,1006.6273326999508,1006.6273326999508,1006.6273326999508,1006.6273326999508,j,0.3396269998047501,1006.9938328000717,1006.9938328000717,1006.9938328000717,1006.9938328000717,1006.9938328000717,1006.9938328000717,1007.2922390000895,1007.2922390000895,1009.1040511999745,1009.1040511999745,1009.1040511999745,1009.1040511999745,1009.1040511999745,1009.1040511999745,1009.1040511999745,1009.1040511999745,1009.1040511999745,1009.1040511999745,1009.1040511999745,1009.1040511999745,1009.1040511999745,1009.1040511999745,1009.1040511999745,1009.1040511999745,1009.1040511999745,74,50,66,51,51,70,3.0,2.1928588000591844,,,,,,,,,,,,,[],[],[],[],[],[],[],-0.6,2,,[],[],[],[],[],[],[],,,,,None,None,1013.8310666999314,1015.7687941000331,1011.6132346000522,1011.6132346000522,1011.6132346000522,1011.6132346000522,1011.6132346000522,,,,,,,,,,,,,,,,269,f,23,2023-04-04_09h55.46.720,RL,2022.2.4,60.15381328129028,
0,0.3,0.225,0,47,47,47,,,,,,,,,,None,1015.7687941000331,1015.7687941000331,1015.7687941000331,1015.7687941000331,1015.7687941000331,1015.7687941000331,f,0.5384335999842733,1016.334919600049,1016.334919600049,1016.334919600049,1016.334919600049,1016.334919600049,1016.334919600049,1016.6335177000146,1016.6335177000146,1017.630565600004,1017.630565600004,1017.6474011999089,1017.6474011999089,1017.6474011999089,1017.6474011999089,1017.6474011999089,1017.6474011999089,1017.6474011999089,1017.6474011999089,1017.6474011999089,1017.6474011999089,1017.6474011999089,1017.6474011999089,1017.6474011999089,1017.6474011999089,1017.6474011999089,74,58,62,55,58,64,None,None,1020.1572662999388,1020.1572662999388,1020.1572662999388,1020.1572662999388,1020.1572662999388,1020.1572662999388,1020.1572662999388,1020.1572662999388,0.005800000159069896,1020.1572662999388,40,40,[-0.06481481481481481],[-0.29814814814814816],[1],[0],[0],[13.288075200049207],['tijiao'],-0.2,0,,[],[],[],[],[],[],[],1033.469209099887,1033.469209099887,1033.469209099887,1033.469209099887,4.87037037037037,11.285030100028962,1044.7721961000934,1046.6013366000261,,,,,,,,,,,,,,,,,,,,,269,f,23,2023-04-04_09h55.46.720,RL,2022.2.4,60.15381328129028,
1,-0.3,-0.225,0,48,48,48,,,,,,,,,,None,1046.6013366000261,1046.6013366000261,1046.6013366000261,1046.6013366000261,1046.6013366000261,1046.6013366000261,r,0.37613210012204945,1047.0038902000524,1047.0038902000524,1047.0038902000524,1047.0038902000524,1047.0038902000524,1047.0038902000524,1047.2995507998858,1047.2995507998858,1048.9455083999783,1048.9455083999783,1048.9455083999783,1048.9455083999783,1048.9455083999783,1048.9455083999783,1048.9455083999783,1048.9455083999783,1048.9455083999783,1048.9455083999783,1048.9455083999783,1048.9455083999783,1048.9455083999783,1048.9455083999783,1048.9455083999783,1048.9455083999783,1048.9455083999783,73,59,59,43,73,73,5.0,3.5230775999370962,,,,,,,,,,,,,[],[],[],[],[],[],[],-0.2,3,,[],[],[],[],[],[],[],,,,,None,None,1055.0021546999924,1056.8236531000584,1051.4543622999918,1051.4543622999918,1051.4543622999918,1051.4543622999918,1051.4543622999918,,,,,,,,,,,,,,,,269,f,23,2023-04-04_09h55.46.720,RL,2022.2.4,60.15381328129028,
0,0.3,0.225,0,49,49,49,,,,,,,,,,None,1056.8236531000584,1056.8236531000584,1056.8236531000584,1056.8236531000584,1056.8236531000584,1056.8236531000584,i,0.35683559998869896,1057.2085980998818,1057.2085980998818,1057.2085980998818,1057.2085980998818,1057.2085980998818,1057.2085980998818,1057.505069399951,1057.505069399951,1059.0672134999186,1059.0672134999186,1059.0672134999186,1059.0672134999186,1059.0672134999186,1059.0672134999186,1059.0672134999186,1059.0672134999186,1059.0672134999186,1059.0672134999186,1059.0672134999186,1059.0672134999186,1059.0672134999186,1059.0672134999186,1059.0672134999186,1059.0672134999186,1059.0672134999186,78,58,66,54,66,50,None,None,1061.5797544999514,1061.5797544999514,1061.5797544999514,1061.5797544999514,1061.5797544999514,1061.5797544999514,1061.5797544999514,1061.5797544999514,0.007368999999016523,1061.5797544999514,70,70,[0.05648148148148148],[-0.30092592592592593],[1],[0],[0],[13.269867100054398],['tijiao'],0.2,0,,[],[],[],[],[],[],[],1074.8714147999417,1074.8714147999417,1074.8714147999417,1074.8714147999417,7.9907407407407405,4.2714142999611795,1079.1615531998686,1080.6749948998913,,,,,,,,,,,,,,,,,,,,,269,f,23,2023-04-04_09h55.46.720,RL,2022.2.4,60.15381328129028,
1,-0.3,-0.225,0,50,50,50,,,,,,,,,,None,1080.6749948998913,1080.6749948998913,1080.6749948998913,1080.6749948998913,1080.6749948998913,1080.6749948998913,i,0.13706599990837276,1080.8449573998805,1080.8449573998805,1080.8449573998805,1080.8449573998805,1080.8449573998805,1080.8449573998805,1081.1407359999139,1081.1407359999139,1081.955145899905,1081.955145899905,1081.955145899905,1081.955145899905,1081.955145899905,1081.955145899905,1081.955145899905,1081.955145899905,1081.955145899905,1081.955145899905,1081.955145899905,1081.955145899905,1081.955145899905,1081.955145899905,1081.955145899905,1081.955145899905,1081.955145899905,73,54,68,55,68,58,None,None,1084.4671265999787,1084.4671265999787,1084.4671265999787,1084.4671265999787,1084.4671265999787,1084.4671265999787,1084.4671265999787,1084.4671265999787,0.007398999994620681,1084.4671265999787,78,78,[0.04259259259259259],[-0.287962962962963],[1],[0],[0],[9.263702400028706],['tijiao'],-0.6,0,,[],[],[],[],[],[],[],1093.7523463000543,1093.7523463000543,1093.7523463000543,1093.7523463000543,7.962962962962963,4.157150400104001,1097.9272968000732,1099.5072200000286,,,,,,,,,,,,,,,,,,,,,269,f,23,2023-04-04_09h55.46.720,RL,2022.2.4,60.15381328129028,
0,0.3,0.225,0,51,51,51,,,,,,,,,,None,1099.5072200000286,1099.5072200000286,1099.5072200000286,1099.5072200000286,1099.5072200000286,1099.5072200000286,i,0.3406758001074195,1099.8759870999493,1099.8759870999493,1099.8759870999493,1099.8759870999493,1099.8759870999493,1099.8759870999493,1100.172204399947,1100.172204399947,1101.2859247000888,1101.2859247000888,1101.2859247000888,1101.2859247000888,1101.2859247000888,1101.2859247000888,1101.2859247000888,1101.2859247000888,1101.2859247000888,1101.2859247000888,1101.2859247000888,1101.2859247000888,1101.2859247000888,1101.2859247000888,1101.2859247000888,1101.2859247000888,1101.2859247000888,78,59,68,59,68,38,7.0,2.159650499932468,,,,,,,,,,,,,[],[],[],[],[],[],[],-0.2,2,,[],[],[],[],[],[],[],,,,,None,None,1105.981499799993,1107.5020824999083,1103.7949117999524,1103.7949117999524,1103.7949117999524,1103.7949117999524,1103.7949117999524,,,,,,,,,,,,,,,,269,f,23,2023-04-04_09h55.46.720,RL,2022.2.4,60.15381328129028,
1,-0.3,-0.225,0,52,52,52,,,,,,,,,,None,1107.5020824999083,1107.5020824999083,1107.5020824999083,1107.5020824999083,1107.5020824999083,1107.5020824999083,r,0.6471251999028027,1108.1676844998728,1108.1676844998728,1108.1676844998728,1108.1676844998728,1108.1676844998728,1108.1676844998728,1108.466123699909,1108.466123699909,1110.3277350999415,1110.3277350999415,1110.3277350999415,1110.3277350999415,1110.3277350999415,1110.3277350999415,1110.3277350999415,1110.3277350999415,1110.3277350999415,1110.3277350999415,1110.3277350999415,1110.3277350999415,1110.3277350999415,1110.3277350999415,1110.3277350999415,1110.3277350999415,1110.3277350999415,74,48,68,51,74,67,None,None,1112.8391187998932,1112.8391187998932,1112.8391187998932,1112.8391187998932,1112.8391187998932,1112.8391187998932,1112.8391187998932,1112.8391187998932,0.007622499950230122,1112.8391187998932,90,90,[0.06111111111111111],[-0.3037037037037037],[1],[0],[0],[9.164738499792293],['tijiao'],-0.6,0,,[],[],[],[],[],[],[],1122.0253781999927,1122.0253781999927,1122.0253781999927,1122.0253781999927,9.99074074074074,3.956696500070393,1126.000471400097,1127.5139232000802,,,,,,,,,,,,,,,,,,,,,269,f,23,2023-04-04_09h55.46.720,RL,2022.2.4,60.15381328129028,
0,0.3,0.225,0,53,53,53,,,,,,,,,,None,1127.5139232000802,1127.5139232000802,1127.5139232000802,1127.5139232000802,1127.5139232000802,1127.5139232000802,r,0.3462292000185698,1127.8805617000908,1127.8805617000908,1127.8805617000908,1127.8805617000908,1127.8805617000908,1127.8805617000908,1128.1788260999601,1128.1788260999601,1129.3259276000317,1129.3259276000317,1129.3259276000317,1129.3259276000317,1129.3259276000317,1129.3259276000317,1129.3259276000317,1129.3259276000317,1129.3259276000317,1129.3259276000317,1129.3259276000317,1129.3259276000317,1129.3259276000317,1129.3259276000317,1129.3259276000317,1129.3259276000317,1129.3259276000317,75,54,70,58,75,70,7.0,1.7939383999910206,,,,,,,,,,,,,[],[],[],[],[],[],[],0.2,3,,[],[],[],[],[],[],[],,,,,None,None,1133.656801499892,1135.5918926000595,1131.8348654999863,1131.8348654999863,1131.8348654999863,1131.8348654999863,1131.8348654999863,,,,,,,,,,,,,,,,269,f,23,2023-04-04_09h55.46.720,RL,2022.2.4,60.15381328129028,
1,-0.3,-0.225,0,54,54,54,,,,,,,,,,None,1135.5918926000595,1135.5918926000595,1135.5918926000595,1135.5918926000595,1135.5918926000595,1135.5918926000595,j,0.7797451999504119,1136.3906247999985,1136.3906247999985,1136.3906247999985,1136.3906247999985,1136.3906247999985,1136.3906247999985,1136.6892349000555,1136.6892349000555,1138.068440000061,1138.068440000061,1138.068440000061,1138.068440000061,1138.068440000061,1138.068440000061,1138.068440000061,1138.068440000061,1138.068440000061,1138.068440000061,1138.068440000061,1138.068440000061,1138.068440000061,1138.068440000061,1138.068440000061,1138.068440000061,1138.068440000061,72,42,70,53,53,62,None,None,1140.5789336999878,1140.5789336999878,1140.5789336999878,1140.5789336999878,1140.5789336999878,1140.5789336999878,1140.5789336999878,1140.5789336999878,0.005930099869146943,1140.5789336999878,57,57,[0.11851851851851852],[-0.275],[1],[0],[0],[10.379079000093043],['tijiao'],0.2,0,,[],[],[],[],[],[],[],1150.9814341000747,1150.9814341000747,1150.9814341000747,1150.9814341000747,6.944444444444445,5.567245800048113,1156.5669740999583,1158.1470852999482,,,,,,,,,,,,,,,,,,,,,269,f,23,2023-04-04_09h55.46.720,RL,2022.2.4,60.15381328129028,
0,0.3,0.225,0,55,55,55,,,,,,,,,,None,1158.1470852999482,1158.1470852999482,1158.1470852999482,1158.1470852999482,1158.1470852999482,1158.1470852999482,j,0.3083546000998467,1158.4800283999648,1158.4800283999648,1158.4800283999648,1158.4800283999648,1158.4800283999648,1158.4800283999648,1158.7789678000845,1158.7789678000845,1160.4241205998696,1160.4241205998696,1160.4241205998696,1160.4241205998696,1160.4241205998696,1160.4241205998696,1160.4241205998696,1160.4241205998696,1160.4241205998696,1160.4241205998696,1160.4241205998696,1160.4241205998696,1160.4241205998696,1160.4241205998696,1160.4241205998696,1160.4241205998696,1160.4241205998696,74,40,72,52,52,61,3.0,5.550501599907875,,,,,,,,,,,,,[],[],[],[],[],[],[],-0.2,3,,[],[],[],[],[],[],[],,,,,None,None,1168.510040000081,1170.2969635000918,1162.9332479999866,1162.9332479999866,1162.9332479999866,1162.9332479999866,1162.9332479999866,,,,,,,,,,,,,,,,269,f,23,2023-04-04_09h55.46.720,RL,2022.2.4,60.15381328129028,
1,-0.3,-0.225,0,56,56,56,,,,,,,,,,None,1170.2969635000918,1170.2969635000918,1170.2969635000918,1170.2969635000918,1170.2969635000918,1170.2969635000918,i,0.3505800000857562,1170.6806451999582,1170.6806451999582,1170.6806451999582,1170.6806451999582,1170.6806451999582,1170.6806451999582,1170.978889199905,1170.978889199905,1172.092095399974,1172.092095399974,1172.109158899868,1172.109158899868,1172.109158899868,1172.109158899868,1172.109158899868,1172.109158899868,1172.109158899868,1172.109158899868,1172.109158899868,1172.109158899868,1172.109158899868,1172.109158899868,1172.109158899868,1172.109158899868,1172.109158899868,71,49,69,48,69,66,None,None,1174.619406200014,1174.619406200014,1174.619406200014,1174.619406200014,1174.619406200014,1174.619406200014,1174.619406200014,1174.619406200014,0.006768000079318881,1174.619406200014,79,79,[0.005555555555555556],[-0.2898148148148148],[1],[0],[0],[9.297248100163415],['tijiao'],0.2,0,,[],[],[],[],[],[],[],1183.9435588999186,1183.9435588999186,1183.9435588999186,1183.9435588999186,7.027777777777778,4.871060600038618,1188.829018499935,1190.5087901998777,,,,,,,,,,,,,,,,,,,,,269,f,23,2023-04-04_09h55.46.720,RL,2022.2.4,60.15381328129028,
0,0.3,0.225,0,57,57,57,,,,,,,,,,None,1190.5087901998777,1190.5087901998777,1190.5087901998777,1190.5087901998777,1190.5087901998777,1190.5087901998777,i,0.3302047001197934,1190.8595743000042,1190.8595743000042,1190.8595743000042,1190.8595743000042,1190.8595743000042,1190.8595743000042,1191.157268299954,1191.157268299954,1192.2377744000405,1192.2377744000405,1192.2377744000405,1192.2377744000405,1192.2377744000405,1192.2377744000405,1192.2377744000405,1192.2377744000405,1192.2377744000405,1192.2377744000405,1192.2377744000405,1192.2377744000405,1192.2377744000405,1192.2377744000405,1192.2377744000405,1192.2377744000405,1192.2377744000405,76,42,67,52,67,70,None,None,1194.7493137000129,1194.7493137000129,1194.7493137000129,1194.7493137000129,1194.7493137000129,1194.7493137000129,1194.7493137000129,1194.7493137000129,0.007654499961063266,1194.7493137000129,67,67,[0.01574074074074074],[-0.30277777777777776],[1],[0],[0],[12.055788000114262],['tijiao'],-0.2,0,,[],[],[],[],[],[],[],1206.8278071999084,1206.8278071999084,1206.8278071999084,1206.8278071999084,2.944444444444444,2.393539300188422,1209.2398725000676,1211.0360546000302,,,,,,,,,,,,,,,,,,,,,269,f,23,2023-04-04_09h55.46.720,RL,2022.2.4,60.15381328129028,
1,-0.3,-0.225,0,58,58,58,,,,,,,,,,None,1211.0360546000302,1211.0360546000302,1211.0360546000302,1211.0360546000302,1211.0360546000302,1211.0360546000302,f,0.34089899994432926,1211.403511799872,1211.403511799872,1211.403511799872,1211.403511799872,1211.403511799872,1211.403511799872,1211.7008181998972,1211.7008181998972,1212.9977110000327,1212.9977110000327,1212.9977110000327,1212.9977110000327,1212.9977110000327,1212.9977110000327,1212.9977110000327,1212.9977110000327,1212.9977110000327,1212.9977110000327,1212.9977110000327,1212.9977110000327,1212.9977110000327,1212.9977110000327,1212.9977110000327,1212.9977110000327,1212.9977110000327,79,38,62,45,38,74,1.0,2.7915366000961512,,,,,,,,,,,,,[],[],[],[],[],[],[],-0.6,2,,[],[],[],[],[],[],[],,,,,None,None,1218.3233646000735,1220.0611654000822,1215.5062990000006,1215.5062990000006,1215.5062990000006,1215.5062990000006,1215.5062990000006,,,,,,,,,,,,,,,,269,f,23,2023-04-04_09h55.46.720,RL,2022.2.4,60.15381328129028,
0,0.3,0.225,0,59,59,59,,,,,,,,,,None,1220.0611654000822,1220.0611654000822,1220.0611654000822,1220.0611654000822,1220.0611654000822,1220.0611654000822,f,0.3721957001835108,1220.4606872000732,1220.4606872000732,1220.4606872000732,1220.4606872000732,1220.4606872000732,1220.4606872000732,1220.7598947000224,1220.7598947000224,1221.9561826998834,1221.9561826998834,1221.9561826998834,1221.9561826998834,1221.9561826998834,1221.9561826998834,1221.9561826998834,1221.9561826998834,1221.9561826998834,1221.9561826998834,1221.9561826998834,1221.9561826998834,1221.9561826998834,1221.9561826998834,1221.9561826998834,1221.9561826998834,1221.9561826998834,81,54,72,39,54,75,2.0,3.3060573998373,,,,,,,,,,,,,[],[],[],[],[],[],[],0.2,2,,[],[],[],[],[],[],[],,,,,None,None,1227.799267299939,1229.3360252000857,1224.4652597000822,1224.4652597000822,1224.4652597000822,1224.4652597000822,1224.4652597000822,,,,,,,,,,,,,,,,269,f,23,2023-04-04_09h55.46.720,RL,2022.2.4,60.15381328129028,
1,-0.3,-0.225,0,60,60,60,,,,,,,,,,None,1229.3360252000857,1229.3360252000857,1229.3360252000857,1229.3360252000857,1229.3360252000857,1229.3360252000857,j,0.5823439999949187,1229.951393000083,1229.951393000083,1229.951393000083,1229.951393000083,1229.951393000083,1229.951393000083,1230.2502208999358,1230.2502208999358,1231.8630208999384,1231.8630208999384,1231.8630208999384,1231.8630208999384,1231.8630208999384,1231.8630208999384,1231.8630208999384,1231.8630208999384,1231.8630208999384,1231.8630208999384,1231.8630208999384,1231.8630208999384,1231.8630208999384,1231.8630208999384,1231.8630208999384,1231.8630208999384,1231.8630208999384,69,44,69,35,35,76,None,None,,,,,,,,,,,,,[],[],[],[],[],[],[],0.2,1,96,[-0.07222222222222222],[-0.2935185185185185],[1],[0],[0],[12.16430400009267],['tijiao_random_2'],1246.5600363998674,1246.5600363998674,1246.5600363998674,1246.5600363998674,3.9074074074074074,10.148817300098017,1256.7270541999023,1258.6394819999114,,,,,,1234.3827019000892,1234.3827019000892,1234.3827019000892,1234.3827019000892,1234.3827019000892,1234.3827019000892,1234.3827019000892,1234.3827019000892,0.006523099960759282,1234.3827019000892,,,,,,269,f,23,2023-04-04_09h55.46.720,RL,2022.2.4,60.15381328129028,
0,0.3,0.225,0,61,61,61,,,,,,,,,,None,1258.6394819999114,1258.6394819999114,1258.6394819999114,1258.6394819999114,1258.6394819999114,1258.6394819999114,i,0.3562707998789847,1259.0259539999533,1259.0259539999533,1259.0259539999533,1259.0259539999533,1259.0259539999533,1259.0259539999533,1259.3209257000126,1259.3209257000126,1260.135248699924,1260.135248699924,1260.135248699924,1260.135248699924,1260.135248699924,1260.135248699924,1260.135248699924,1260.135248699924,1260.135248699924,1260.135248699924,1260.135248699924,1260.135248699924,1260.135248699924,1260.135248699924,1260.135248699924,1260.135248699924,1260.135248699924,73,39,67,50,67,64,None,None,1262.645775699988,1262.645775699988,1262.645775699988,1262.645775699988,1262.645775699988,1262.645775699988,1262.645775699988,1262.645775699988,0.00624390016309917,1262.645775699988,73,73,[-0.026851851851851852],[-0.2861111111111111],[1],[0],[0],[14.251902899937704],['tijiao'],-0.2,0,,[],[],[],[],[],[],[],1276.9188280000817,1276.9188280000817,1276.9188280000817,1276.9188280000817,6.916666666666667,3.6418202000204474,1280.5789481999818,1282.1750229999889,,,,,,,,,,,,,,,,,,,,,269,f,23,2023-04-04_09h55.46.720,RL,2022.2.4,60.15381328129028,
1,-0.3,-0.225,0,62,62,62,,,,,,,,,,None,1282.1750229999889,1282.1750229999889,1282.1750229999889,1282.1750229999889,1282.1750229999889,1282.1750229999889,i,0.3075994998216629,1282.5102331999224,1282.5102331999224,1282.5102331999224,1282.5102331999224,1282.5102331999224,1282.5102331999224,1282.8072190000676,1282.8072190000676,1283.8708122998942,1283.8708122998942,1283.8708122998942,1283.8708122998942,1283.8708122998942,1283.8708122998942,1283.8708122998942,1283.8708122998942,1283.8708122998942,1283.8708122998942,1283.8708122998942,1283.8708122998942,1283.8708122998942,1283.8708122998942,1283.8708122998942,1283.8708122998942,1283.8708122998942,70,50,70,42,70,83,None,None,1286.3828044000547,1286.3828044000547,1286.3828044000547,1286.3828044000547,1286.3828044000547,1286.3828044000547,1286.3828044000547,1286.3828044000547,0.007764899870380759,1286.3828044000547,70,70,[0.040740740740740744],[-0.2972222222222222],[1],[0],[0],[10.078764399979264],['tijiao'],0.2,0,,[],[],[],[],[],[],[],1296.4842673998792,1296.4842673998792,1296.4842673998792,1296.4842673998792,7.0092592592592595,2.1309831000398844,1298.6295256000012,1300.475025499938,,,,,,,,,,,,,,,,,,,,,269,f,23,2023-04-04_09h55.46.720,RL,2022.2.4,60.15381328129028,
0,0.3,0.225,0,63,63,63,,,,,,,,,,None,1300.475025499938,1300.475025499938,1300.475025499938,1300.475025499938,1300.475025499938,1300.475025499938,i,0.3589537001680583,1300.858962799888,1300.858962799888,1300.858962799888,1300.858962799888,1300.858962799888,1300.858962799888,1301.1571953000966,1301.1571953000966,1302.137852099957,1302.137852099957,1302.137852099957,1302.137852099957,1302.137852099957,1302.137852099957,1302.137852099957,1302.137852099957,1302.137852099957,1302.137852099957,1302.137852099957,1302.137852099957,1302.137852099957,1302.137852099957,1302.137852099957,1302.137852099957,1302.137852099957,67,46,62,39,62,78,None,None,1304.6487137000076,1304.6487137000076,1304.6487137000076,1304.6487137000076,1304.6487137000076,1304.6487137000076,1304.6487137000076,1304.6487137000076,0.007317000068724155,1304.6487137000076,50,50,[0.027777777777777776],[-0.28888888888888886],[1],[0],[0],[7.967770700110123],['tijiao'],0.2,0,,[],[],[],[],[],[],[],1312.6393595000263,1312.6393595000263,1312.6393595000263,1312.6393595000263,5.046296296296296,5.069284599972889,1317.7272928000893,1319.689632399939,,,,,,,,,,,,,,,,,,,,,269,f,23,2023-04-04_09h55.46.720,RL,2022.2.4,60.15381328129028,
1,-0.3,-0.225,0,64,64,64,,,,,,,,,,None,1319.689632399939,1319.689632399939,1319.689632399939,1319.689632399939,1319.689632399939,1319.689632399939,j,0.34108130005188286,1320.0569887999445,1320.0569887999445,1320.0569887999445,1320.0569887999445,1320.0569887999445,1320.0569887999445,1320.354416999966,1320.354416999966,1322.0999547999818,1322.0999547999818,1322.0999547999818,1322.0999547999818,1322.0999547999818,1322.0999547999818,1322.0999547999818,1322.0999547999818,1322.0999547999818,1322.0999547999818,1322.0999547999818,1322.0999547999818,1322.0999547999818,1322.0999547999818,1322.0999547999818,1322.0999547999818,1322.0999547999818,58,45,74,38,38,71,None,None,1324.6123744999059,1324.6123744999059,1324.6123744999059,1324.6123744999059,1324.6123744999059,1324.6123744999059,1324.6123744999059,1324.6123744999059,0.008202000055462122,1324.6123744999059,40,40,[0.005555555555555556],[-0.2916666666666667],[1],[0],[0],[10.010845500044525],['tijiao'],-0.6,0,,[],[],[],[],[],[],[],1334.644551699981,1334.644551699981,1334.644551699981,1334.644551699981,4.962962962962964,7.082257800037041,1341.7450377000496,1343.3419029999059,,,,,,,,,,,,,,,,,,,,,269,f,23,2023-04-04_09h55.46.720,RL,2022.2.4,60.15381328129028,
0,0.3,0.225,0,65,65,65,,,,,,,,,,None,1343.3419029999059,1343.3419029999059,1343.3419029999059,1343.3419029999059,1343.3419029999059,1343.3419029999059,r,0.41423880006186664,1343.7751567999367,1343.7751567999367,1343.7751567999367,1343.7751567999367,1343.7751567999367,1343.7751567999367,1344.0729865999892,1344.0729865999892,1344.9703915000428,1344.9703915000428,1344.9703915000428,1344.9703915000428,1344.9703915000428,1344.9703915000428,1344.9703915000428,1344.9703915000428,1344.9703915000428,1344.9703915000428,1344.9703915000428,1344.9703915000428,1344.9703915000428,1344.9703915000428,1344.9703915000428,1344.9703915000428,1344.9703915000428,57,35,62,43,57,69,None,None,,,,,,,,,,,,,[],[],[],[],[],[],[],0.6,1,80,[-0.05092592592592592],[-0.2824074074074074],[1],[0],[0],[8.855272999964654],['tijiao_random_2'],1356.3591366000473,1356.3591366000473,1356.3591366000473,1356.3591366000473,3.935185185185185,4.166184199973941,1360.5436497000046,1362.472440399928,,,,,,1347.4914891000371,1347.4914891000371,1347.4914891000371,1347.4914891000371,1347.4914891000371,1347.4914891000371,1347.4914891000371,1347.4914891000371,0.006723400205373764,1347.4914891000371,,,,,,269,f,23,2023-04-04_09h55.46.720,RL,2022.2.4,60.15381328129028,
1,-0.3,-0.225,0,66,66,66,,,,,,,,,,None,1362.472440399928,1362.472440399928,1362.472440399928,1362.472440399928,1362.472440399928,1362.472440399928,j,0.3949007000774145,1362.8897275999188,1362.8897275999188,1362.8897275999188,1362.8897275999188,1362.8897275999188,1362.8897275999188,1363.1878452999517,1363.1878452999517,1364.4677037000656,1364.4677037000656,1364.4677037000656,1364.4677037000656,1364.4677037000656,1364.4677037000656,1364.4677037000656,1364.4677037000656,1364.4677037000656,1364.4677037000656,1364.4677037000656,1364.4677037000656,1364.4677037000656,1364.4677037000656,1364.4677037000656,1364.4677037000656,1364.4677037000656,65,37,68,45,45,86,2.0,3.506406500004232,,,,,,,,,,,,,[],[],[],[],[],[],[],0.6,2,,[],[],[],[],[],[],[],,,,,None,None,1370.5112191999797,1372.0633354000747,1366.976675099926,1366.976675099926,1366.976675099926,1366.976675099926,1366.976675099926,,,,,,,,,,,,,,,,269,f,23,2023-04-04_09h55.46.720,RL,2022.2.4,60.15381328129028,
0,0.3,0.225,0,67,67,67,,,,,,,,,,None,1372.0633354000747,1372.0633354000747,1372.0633354000747,1372.0633354000747,1372.0633354000747,1372.0633354000747,f,0.3797293999232352,1372.462766099954,1372.462766099954,1372.462766099954,1372.462766099954,1372.462766099954,1372.462766099954,1372.761675799964,1372.761675799964,1374.0581219999585,1374.0581219999585,1374.0581219999585,1374.0581219999585,1374.0581219999585,1374.0581219999585,1374.0581219999585,1374.0581219999585,1374.0581219999585,1374.0581219999585,1374.0581219999585,1374.0581219999585,1374.0581219999585,1374.0581219999585,1374.0581219999585,1374.0581219999585,1374.0581219999585,51,46,68,41,46,80,1.0,6.780192600097507,,,,,,,,,,,,,[],[],[],[],[],[],[],0.2,2,,[],[],[],[],[],[],[],,,,,None,None,1383.375485100085,1385.2936513000168,1376.5670896999072,1376.5670896999072,1376.5670896999072,1376.5670896999072,1376.5670896999072,,,,,,,,,,,,,,,,269,f,23,2023-04-04_09h55.46.720,RL,2022.2.4,60.15381328129028,
1,-0.3,-0.225,0,68,68,68,,,,,,,,,,None,1385.2936513000168,1385.2936513000168,1385.2936513000168,1385.2936513000168,1385.2936513000168,1385.2936513000168,i,0.3260745999868959,1385.6462149000727,1385.6462149000727,1385.6462149000727,1385.6462149000727,1385.6462149000727,1385.6462149000727,1385.9421504999045,1385.9421504999045,1387.4880806000438,1387.4880806000438,1387.4880806000438,1387.4880806000438,1387.4880806000438,1387.4880806000438,1387.4880806000438,1387.4880806000438,1387.4880806000438,1387.4880806000438,1387.4880806000438,1387.4880806000438,1387.4880806000438,1387.4880806000438,1387.4880806000438,1387.4880806000438,1387.4880806000438,66,43,67,46,67,90,2.0,3.6728055998682976,,,,,,,,,,,,,[],[],[],[],[],[],[],-0.2,3,,[],[],[],[],[],[],[],,,,,None,None,1393.698819000041,1395.6987809999846,1389.9972496998962,1389.9972496998962,1389.9972496998962,1389.9972496998962,1389.9972496998962,,,,,,,,,,,,,,,,269,f,23,2023-04-04_09h55.46.720,RL,2022.2.4,60.15381328129028,
0,0.3,0.225,0,69,69,69,,,,,,,,,,None,1395.6987809999846,1395.6987809999846,1395.6987809999846,1395.6987809999846,1395.6987809999846,1395.6987809999846,r,0.3097407999448478,1396.0319103999063,1396.0319103999063,1396.0319103999063,1396.0319103999063,1396.0319103999063,1396.0319103999063,1396.3307314999402,1396.3307314999402,1397.3442810999695,1397.3442810999695,1397.3442810999695,1397.3442810999695,1397.3442810999695,1397.3442810999695,1397.3442810999695,1397.3442810999695,1397.3442810999695,1397.3442810999695,1397.3442810999695,1397.3442810999695,1397.3442810999695,1397.3442810999695,1397.3442810999695,1397.3442810999695,1397.3442810999695,62,52,62,34,62,81,2.0,6.132489700103179,,,,,,,,,,,,,[],[],[],[],[],[],[],-0.2,2,,[],[],[],[],[],[],[],,,,,None,None,1406.0133843999356,1407.865423799958,1399.8536038999446,1399.8536038999446,1399.8536038999446,1399.8536038999446,1399.8536038999446,,,,,,,,,,,,,,,,269,f,23,2023-04-04_09h55.46.720,RL,2022.2.4,60.15381328129028,
1,-0.3,-0.225,0,70,70,70,,,,,,,,,,None,1407.865423799958,1407.865423799958,1407.865423799958,1407.865423799958,1407.865423799958,1407.865423799958,j,0.31052970001474023,1408.198380799964,1408.198380799964,1408.198380799964,1408.198380799964,1408.198380799964,1408.198380799964,1408.4975451999344,1408.4975451999344,1410.491800100077,1410.491800100077,1410.491800100077,1410.491800100077,1410.491800100077,1410.491800100077,1410.491800100077,1410.491800100077,1410.491800100077,1410.491800100077,1410.491800100077,1410.491800100077,1410.491800100077,1410.491800100077,1410.491800100077,1410.491800100077,1410.491800100077,63,49,63,41,41,69,None,None,1413.0029031999875,1413.0029031999875,1413.0029031999875,1413.0029031999875,1413.0029031999875,1413.0029031999875,1413.0029031999875,1413.0029031999875,0.006501700030639768,1413.0029031999875,59,59,[-0.04722222222222222],[-0.29814814814814816],[1],[0],[0],[6.006303499918431],['tijiao'],-0.2,0,,[],[],[],[],[],[],[],1419.033231700072,1419.033231700072,1419.033231700072,1419.033231700072,1.9537037037037037,1.744724800111726,1420.7960683000274,1422.5917072000448,,,,,,,,,,,,,,,,,,,,,269,f,23,2023-04-04_09h55.46.720,RL,2022.2.4,60.15381328129028,
0,0.3,0.225,0,71,71,71,,,,,,,,,,None,1422.5917072000448,1422.5917072000448,1422.5917072000448,1422.5917072000448,1422.5917072000448,1422.5917072000448,r,0.3892591001931578,1423.0108497999609,1423.0108497999609,1423.0108497999609,1423.0108497999609,1423.0108497999609,1423.0108497999609,1423.3067026000936,1423.3067026000936,1425.3181010000408,1425.3181010000408,1425.3181010000408,1425.3181010000408,1425.3181010000408,1425.3181010000408,1425.3181010000408,1425.3181010000408,1425.3181010000408,1425.3181010000408,1425.3181010000408,1425.3181010000408,1425.3181010000408,1425.3181010000408,1425.3181010000408,1425.3181010000408,1425.3181010000408,67,53,56,37,67,92,3.0,2.7573223998770118,,,,,,,,,,,,,[],[],[],[],[],[],[],-0.6,3,,[],[],[],[],[],[],[],,,,,None,None,1430.6095996999647,1432.165573199978,1427.8271035000216,1427.8271035000216,1427.8271035000216,1427.8271035000216,1427.8271035000216,,,,,,,,,,,,,,,,269,f,23,2023-04-04_09h55.46.720,RL,2022.2.4,60.15381328129028,
1,-0.3,-0.225,0,72,72,72,,,,,,,,,,None,1432.165573199978,1432.165573199978,1432.165573199978,1432.165573199978,1432.165573199978,1432.165573199978,i,0.35577349993400276,1432.5504735999275,1432.5504735999275,1432.5504735999275,1432.5504735999275,1432.5504735999275,1432.5504735999275,1432.8475875000004,1432.8475875000004,1434.0774493000936,1434.0774493000936,1434.0774493000936,1434.0774493000936,1434.0774493000936,1434.0774493000936,1434.0774493000936,1434.0774493000936,1434.0774493000936,1434.0774493000936,1434.0774493000936,1434.0774493000936,1434.0774493000936,1434.0774493000936,1434.0774493000936,1434.0774493000936,1434.0774493000936,59,54,60,47,60,92,None,None,1436.5895974999294,1436.5895974999294,1436.5895974999294,1436.5895974999294,1436.5895974999294,1436.5895974999294,1436.5895974999294,1436.5895974999294,0.006741699995473027,1436.5895974999294,90,90,[-0.040740740740740744],[-0.28055555555555556],[1],[0],[0],[9.264428099850193],['tijiao'],-0.2,0,,[],[],[],[],[],[],[],1445.8757760999724,1445.8757760999724,1445.8757760999724,1445.8757760999724,6.9907407407407405,5.302308700047433,1451.1962594999932,1452.9256911000703,,,,,,,,,,,,,,,,,,,,,269,f,23,2023-04-04_09h55.46.720,RL,2022.2.4,60.15381328129028,
0,0.3,0.225,0,73,73,73,,,,,,,,,,None,1452.9256911000703,1452.9256911000703,1452.9256911000703,1452.9256911000703,1452.9256911000703,1452.9256911000703,i,0.398817699868232,1453.3434210999403,1453.3434210999403,1453.3434210999403,1453.3434210999403,1453.3434210999403,1453.3434210999403,1453.6410145999398,1453.6410145999398,1454.5048839999363,1454.5048839999363,1454.5048839999363,1454.5048839999363,1454.5048839999363,1454.5048839999363,1454.5048839999363,1454.5048839999363,1454.5048839999363,1454.5048839999363,1454.5048839999363,1454.5048839999363,1454.5048839999363,1454.5048839999363,1454.5048839999363,1454.5048839999363,1454.5048839999363,58,52,56,47,56,103,None,None,,,,,,,,,,,,,[],[],[],[],[],[],[],-0.6,1,77,[0.025],[-0.2851851851851852],[1],[0],[0],[7.45893369987607],['tijiao_random_2'],1464.4995200000703,1464.4995200000703,1464.4995200000703,1464.4995200000703,3.953703703703704,4.530439399881288,1469.047702099895,1470.9433852999937,,,,,,1457.0261985000689,1457.0261985000689,1457.0261985000689,1457.0261985000689,1457.0261985000689,1457.0261985000689,1457.0261985000689,1457.0261985000689,0.007174799917265773,1457.0261985000689,,,,,,269,f,23,2023-04-04_09h55.46.720,RL,2022.2.4,60.15381328129028,
1,-0.3,-0.225,0,74,74,74,,,,,,,,,,None,1470.9433852999937,1470.9433852999937,1470.9433852999937,1470.9433852999937,1470.9433852999937,1470.9433852999937,j,0.347666900139302,1471.3122360000852,1471.3122360000852,1471.3122360000852,1471.3122360000852,1471.3122360000852,1471.3122360000852,1471.6086935000494,1471.6086935000494,1473.6028980999254,1473.6028980999254,1473.6196969999,1473.6196969999,1473.6196969999,1473.6196969999,1473.6196969999,1473.6196969999,1473.6196969999,1473.6196969999,1473.6196969999,1473.6196969999,1473.6196969999,1473.6196969999,1473.6196969999,1473.6196969999,1473.6196969999,67,58,57,50,50,93,None,None,1476.1307363000233,1476.1307363000233,1476.1307363000233,1476.1307363000233,1476.1307363000233,1476.1307363000233,1476.1307363000233,1476.1307363000233,0.007038099924102426,1476.1307363000233,50,50,[-0.03425925925925926],[-0.2916666666666667],[1],[0],[0],[7.818343500141054],['tijiao'],-0.2,0,,[],[],[],[],[],[],[],1483.9701358999591,1483.9701358999591,1483.9701358999591,1483.9701358999591,2.9907407407407405,3.3756900001317263,1487.3643459999003,1489.3097482000012,,,,,,,,,,,,,,,,,,,,,269,f,23,2023-04-04_09h55.46.720,RL,2022.2.4,60.15381328129028,
0,0.3,0.225,0,75,75,75,,,,,,,,,,q,1587.4268803999294,1587.4268803999294,1587.4268803999294,1587.4268803999294,1587.4268803999294,1587.4268803999294,None,,,,,,,,,,,,,,,,,,,,,,,,,,,66,57,66,44,0,**,None,None,,,,,,,,,,,,,[],[],[],[],[],[],[],-0.6,3,,[],[],[],[],[],[],[],,,,,None,None,1594.9710478000343,1596.5007110999431,,,,,,,,,,,,,,,,1489.3097482000012,1489.3097482000012,98.08973899995908,1588.9617560999468,1594.9710478000343,269,f,23,2023-04-04_09h55.46.720,RL,2022.2.4,60.15381328129028,
1,-0.3,-0.225,0,76,76,76,,,,,,,,,,None,1596.5007110999431,1596.5007110999431,1596.5007110999431,1596.5007110999431,1596.5007110999431,1596.5007110999431,i,0.3098414000123739,1596.833585999906,1596.833585999906,1596.833585999906,1596.833585999906,1596.833585999906,1596.833585999906,1597.132728900062,1597.132728900062,1599.1103515999857,1599.1103515999857,1599.1103515999857,1599.1103515999857,1599.1103515999857,1599.1103515999857,1599.1103515999857,1599.1103515999857,1599.1103515999857,1599.1103515999857,1599.1103515999857,1599.1103515999857,1599.1103515999857,1599.1103515999857,1599.1103515999857,1599.1103515999857,1599.1103515999857,64,61,64,47,64,95,3.0,2.4254862999077886,,,,,,,,,,,,,[],[],[],[],[],[],[],0.6,2,,[],[],[],[],[],[],[],,,,,None,None,1604.0723454998806,1606.0249407999218,1601.619816499995,1601.619816499995,1601.619816499995,1601.619816499995,1601.619816499995,,,,,,,,,,,,,,,,269,f,23,2023-04-04_09h55.46.720,RL,2022.2.4,60.15381328129028,
0,0.3,0.225,0,77,77,77,,,,,,,,,,None,1606.0249407999218,1606.0249407999218,1606.0249407999218,1606.0249407999218,1606.0249407999218,1606.0249407999218,j,0.28515920019708574,1606.3409235998988,1606.3409235998988,1606.3409235998988,1606.3409235998988,1606.3409235998988,1606.3409235998988,1606.6401619000826,1606.6401619000826,1607.9531950999517,1607.9531950999517,1607.9531950999517,1607.9531950999517,1607.9531950999517,1607.9531950999517,1607.9531950999517,1607.9531950999517,1607.9531950999517,1607.9531950999517,1607.9531950999517,1607.9531950999517,1607.9531950999517,1607.9531950999517,1607.9531950999517,1607.9531950999517,1607.9531950999517,59,50,66,41,41,105,None,None,,,,,,,,,,,,,[],[],[],[],[],[],[],0.2,1,34,[-0.04537037037037037],[-0.2814814814814815],[1],[0],[0],[6.8628667001612484],['tijiao_random_2'],1617.3479643000755,1617.3479643000755,1617.3479643000755,1617.3479643000755,5.055555555555555,2.935245499946177,1620.3013524999842,1621.9480292999651,,,,,,1610.473284299951,1610.473284299951,1610.473284299951,1610.473284299951,1610.473284299951,1610.473284299951,1610.473284299951,1610.473284299951,0.007067800033837557,1610.473284299951,,,,,,269,f,23,2023-04-04_09h55.46.720,RL,2022.2.4,60.15381328129028,
1,-0.3,-0.225,0,78,78,78,,,,,,,,,,None,1621.9480292999651,1621.9480292999651,1621.9480292999651,1621.9480292999651,1621.9480292999651,1621.9480292999651,r,0.40066189994104207,1622.3847530998755,1622.3847530998755,1622.3847530998755,1622.3847530998755,1622.3847530998755,1622.3847530998755,1622.6793821000028,1622.6793821000028,1623.7766865999438,1623.7766865999438,1623.7766865999438,1623.7766865999438,1623.7766865999438,1623.7766865999438,1623.7766865999438,1623.7766865999438,1623.7766865999438,1623.7766865999438,1623.7766865999438,1623.7766865999438,1623.7766865999438,1623.7766865999438,1623.7766865999438,1623.7766865999438,1623.7766865999438,59,59,56,37,59,95,None,None,,,,,,,,,,,,,[],[],[],[],[],[],[],0.2,1,90,[0.012037037037037037],[-0.29074074074074074],[1],[0],[0],[5.002072799950838],['tijiao_random_2'],1631.311593499966,1631.311593499966,1631.311593499966,1631.311593499966,1.9629629629629628,3.2182698999531567,1634.5460467000958,1636.242176400032,,,,,,1626.294945700094,1626.294945700094,1626.294945700094,1626.294945700094,1626.294945700094,1626.294945700094,1626.294945700094,1626.294945700094,0.006563700037077069,1626.294945700094,,,,,,269,f,23,2023-04-04_09h55.46.720,RL,2022.2.4,60.15381328129028,
0,0.3,0.225,0,79,79,79,,,,,,,,,,None,1636.242176400032,1636.242176400032,1636.242176400032,1636.242176400032,1636.242176400032,1636.242176400032,j,0.35150540014728904,1636.6259552000556,1636.6259552000556,1636.6259552000556,1636.6259552000556,1636.6259552000556,1636.6259552000556,1636.9240989000537,1636.9240989000537,1638.4365552000236,1638.4365552000236,1638.4365552000236,1638.4365552000236,1638.4365552000236,1638.4365552000236,1638.4365552000236,1638.4365552000236,1638.4365552000236,1638.4365552000236,1638.4365552000236,1638.4365552000236,1638.4365552000236,1638.4365552000236,1638.4365552000236,1638.4365552000236,1638.4365552000236,48,52,66,30,30,15,None,None,,,,,,,,,,,,,[],[],[],[],[],[],[],0.6,1,70,[-0.12314814814814815],[-0.29814814814814816],[1],[0],[0],[4.867681999923661],['tijiao_random_2'],1645.8349919999018,1645.8349919999018,1645.8349919999018,1645.8349919999018,6.925925925925926,2.654019500128925,1648.5077907999512,1650.4368676999584,,,,,,1640.9557141000405,1640.9557141000405,1640.9557141000405,1640.9557141000405,1640.9557141000405,1640.9557141000405,1640.9557141000405,1640.9557141000405,0.007437899941578507,1640.9557141000405,,,,,,269,f,23,2023-04-04_09h55.46.720,RL,2022.2.4,60.15381328129028,
1,-0.3,-0.225,0,80,80,80,,,,,,,,,,None,1650.4368676999584,1650.4368676999584,1650.4368676999584,1650.4368676999584,1650.4368676999584,1650.4368676999584,j,0.3470968999899924,1650.8054855999071,1650.8054855999071,1650.8054855999071,1650.8054855999071,1650.8054855999071,1650.8054855999071,1651.102098299889,1651.102098299889,1652.1158259999938,1652.1158259999938,1652.1158259999938,1652.1158259999938,1652.1158259999938,1652.1158259999938,1652.1158259999938,1652.1158259999938,1652.1158259999938,1652.1158259999938,1652.1158259999938,1652.1158259999938,1652.1158259999938,1652.1158259999938,1652.1158259999938,1652.1158259999938,1652.1158259999938,57,53,63,36,36,102,1.0,4.320765499956906,,,,,,,,,,,,,[],[],[],[],[],[],[],0.2,3,,[],[],[],[],[],[],[],,,,,None,None,1658.9722974000033,1660.7253624000587,1654.6247449000366,1654.6247449000366,1654.6247449000366,1654.6247449000366,1654.6247449000366,,,,,,,,,,,,,,,,269,f,23,2023-04-04_09h55.46.720,RL,2022.2.4,60.15381328129028,
0,0.3,0.225,0,81,81,81,,,,,,,,,,None,1660.7253624000587,1660.7253624000587,1660.7253624000587,1660.7253624000587,1660.7253624000587,1660.7253624000587,f,0.2925233000423759,1661.0417657999787,1661.0417657999787,1661.0417657999787,1661.0417657999787,1661.0417657999787,1661.0417657999787,1661.3406704999506,1661.3406704999506,1662.438083899906,1662.438083899906,1662.438083899906,1662.438083899906,1662.438083899906,1662.438083899906,1662.438083899906,1662.438083899906,1662.438083899906,1662.438083899906,1662.438083899906,1662.438083899906,1662.438083899906,1662.438083899906,1662.438083899906,1662.438083899906,1662.438083899906,49,50,59,36,50,98,None,None,,,,,,,,,,,,,[],[],[],[],[],[],[],-0.2,1,60,[-0.1111111111111111],[-0.2898148148148148],[1],[0],[0],[4.552034199936315],['tijiao_random_2'],1669.5232476999518,1669.5232476999518,1669.5232476999518,1669.5232476999518,5.101851851851852,2.668390299892053,1672.209735600045,1674.1056269998662,,,,,,1664.9566641000565,1664.9566641000565,1664.9566641000565,1664.9566641000565,1664.9566641000565,1664.9566641000565,1664.9566641000565,1664.9566641000565,0.007072599837556481,1664.9566641000565,,,,,,269,f,23,2023-04-04_09h55.46.720,RL,2022.2.4,60.15381328129028,
1,-0.3,-0.225,0,82,82,82,,,,,,,,,,None,1674.1056269998662,1674.1056269998662,1674.1056269998662,1674.1056269998662,1674.1056269998662,1674.1056269998662,f,0.40795170003548265,1674.5400731000118,1674.5400731000118,1674.5400731000118,1674.5400731000118,1674.5400731000118,1674.5400731000118,1674.8373229000717,1674.8373229000717,1675.9842306000646,1675.9842306000646,1675.9842306000646,1675.9842306000646,1675.9842306000646,1675.9842306000646,1675.9842306000646,1675.9842306000646,1675.9842306000646,1675.9842306000646,1675.9842306000646,1675.9842306000646,1675.9842306000646,1675.9842306000646,1675.9842306000646,1675.9842306000646,1675.9842306000646,52,39,61,41,39,99,1.0,2.1769648001063615,,,,,,,,,,,,,[],[],[],[],[],[],[],0.6,3,,[],[],[],[],[],[],[],,,,,None,None,1680.6981770999264,1682.499417599989,1678.493118399987,1678.493118399987,1678.493118399987,1678.493118399987,1678.493118399987,,,,,,,,,,,,,,,,269,f,23,2023-04-04_09h55.46.720,RL,2022.2.4,60.15381328129028,
0,0.3,0.225,0,83,83,83,,,,,,,,,,None,1682.499417599989,1682.499417599989,1682.499417599989,1682.499417599989,1682.499417599989,1682.499417599989,i,0.37020959984511137,1682.8986277999356,1682.8986277999356,1682.8986277999356,1682.8986277999356,1682.8986277999356,1682.8986277999356,1683.1979348000605,1683.1979348000605,1684.1120066000149,1684.1120066000149,1684.1120066000149,1684.1120066000149,1684.1120066000149,1684.1120066000149,1684.1120066000149,1684.1120066000149,1684.1120066000149,1684.1120066000149,1684.1120066000149,1684.1120066000149,1684.1120066000149,1684.1120066000149,1684.1120066000149,1684.1120066000149,1684.1120066000149,38,50,63,37,63,98,5.0,2.0771436002105474,,,,,,,,,,,,,[],[],[],[],[],[],[],-0.2,3,,[],[],[],[],[],[],[],,,,,None,None,1688.7241553999484,1690.6439745000098,1686.6205172000919,1686.6205172000919,1686.6205172000919,1686.6205172000919,1686.6205172000919,,,,,,,,,,,,,,,,269,f,23,2023-04-04_09h55.46.720,RL,2022.2.4,60.15381328129028,
1,-0.3,-0.225,0,84,84,84,,,,,,,,,,None,1690.6439745000098,1690.6439745000098,1690.6439745000098,1690.6439745000098,1690.6439745000098,1690.6439745000098,r,0.307128099957481,1690.979399899952,1690.979399899952,1690.979399899952,1690.979399899952,1690.979399899952,1690.979399899952,1691.2757449999917,1691.2757449999917,1693.0040055999998,1693.0040055999998,1693.0040055999998,1693.0040055999998,1693.0040055999998,1693.0040055999998,1693.0040055999998,1693.0040055999998,1693.0040055999998,1693.0040055999998,1693.0040055999998,1693.0040055999998,1693.0040055999998,1693.0040055999998,1693.0040055999998,1693.0040055999998,1693.0040055999998,47,51,58,39,47,99,None,None,1695.5167968999594,1695.5167968999594,1695.5167968999594,1695.5167968999594,1695.5167968999594,1695.5167968999594,1695.5167968999594,1695.5167968999594,0.008199900155887008,1695.5167968999594,60,60,[0.03796296296296296],[-0.2740740740740741],[1],[0],[0],[6.055481699993834],['tijiao'],0.6,0,,[],[],[],[],[],[],[],1701.594035499962,1701.594035499962,1701.594035499962,1701.594035499962,4.972222222222222,2.028170800069347,1703.6409799999092,1705.3701688998844,,,,,,,,,,,,,,,,,,,,,269,f,23,2023-04-04_09h55.46.720,RL,2022.2.4,60.15381328129028,
0,0.3,0.225,0,85,85,85,,,,,,,,,,None,1705.3701688998844,1705.3701688998844,1705.3701688998844,1705.3701688998844,1705.3701688998844,1705.3701688998844,j,0.4108915999531746,1705.8051434999797,1705.8051434999797,1705.8051434999797,1705.8051434999797,1705.8051434999797,1705.8051434999797,1706.1017038000282,1706.1017038000282,1707.8636731000151,1707.8636731000151,1707.8805951999966,1707.8805951999966,1707.8805951999966,1707.8805951999966,1707.8805951999966,1707.8805951999966,1707.8805951999966,1707.8805951999966,1707.8805951999966,1707.8805951999966,1707.8805951999966,1707.8805951999966,1707.8805951999966,1707.8805951999966,1707.8805951999966,46,46,53,43,43,54,None,None,1710.3904327999335,1710.3904327999335,1710.3904327999335,1710.3904327999335,1710.3904327999335,1710.3904327999335,1710.3904327999335,1710.3904327999335,0.005638800095766783,1710.3904327999335,73,73,[-0.06296296296296296],[-0.29259259259259257],[1],[0],[0],[8.15201670001261],['tijiao'],0.6,0,,[],[],[],[],[],[],[],1718.5638570999727,1718.5638570999727,1718.5638570999727,1718.5638570999727,3.0092592592592595,3.8739650000352412,1722.4559822999872,1724.2852000999264,,,,,,,,,,,,,,,,,,,,,269,f,23,2023-04-04_09h55.46.720,RL,2022.2.4,60.15381328129028,
1,-0.3,-0.225,0,86,86,86,,,,,,,,,,None,1724.2852000999264,1724.2852000999264,1724.2852000999264,1724.2852000999264,1724.2852000999264,1724.2852000999264,i,0.3072117001283914,1724.6203825999983,1724.6203825999983,1724.6203825999983,1724.6203825999983,1724.6203825999983,1724.6203825999983,1724.9173876000568,1724.9173876000568,1726.0808856000658,1726.0808856000658,1726.0808856000658,1726.0808856000658,1726.0808856000658,1726.0808856000658,1726.0808856000658,1726.0808856000658,1726.0808856000658,1726.0808856000658,1726.0808856000658,1726.0808856000658,1726.0808856000658,1726.0808856000658,1726.0808856000658,1726.0808856000658,1726.0808856000658,49,49,62,43,62,97,None,None,,,,,,,,,,,,,[],[],[],[],[],[],[],-0.6,1,79,[-0.11574074074074074],[-0.2898148148148148],[1],[0],[0],[5.299363499972969],['tijiao_random_2'],1733.9130416999105,1733.9130416999105,1733.9130416999105,1733.9130416999105,3.981481481481482,4.714906099950895,1738.6455737000797,1740.4746908999514,,,,,,1728.6005778999534,1728.6005778999534,1728.6005778999534,1728.6005778999534,1728.6005778999534,1728.6005778999534,1728.6005778999534,1728.6005778999534,0.006954299984499812,1728.6005778999534,,,,,,269,f,23,2023-04-04_09h55.46.720,RL,2022.2.4,60.15381328129028,
0,0.3,0.225,0,87,87,87,,,,,,,,,,None,1740.4746908999514,1740.4746908999514,1740.4746908999514,1740.4746908999514,1740.4746908999514,1740.4746908999514,f,0.3161623999476433,1740.824406699976,1740.824406699976,1740.824406699976,1740.824406699976,1740.824406699976,1740.824406699976,1741.1231072000228,1741.1231072000228,1742.9514299000148,1742.9514299000148,1742.9514299000148,1742.9514299000148,1742.9514299000148,1742.9514299000148,1742.9514299000148,1742.9514299000148,1742.9514299000148,1742.9514299000148,1742.9514299000148,1742.9514299000148,1742.9514299000148,1742.9514299000148,1742.9514299000148,1742.9514299000148,1742.9514299000148,52,54,74,25,54,84,2.0,3.107166599947959,,,,,,,,,,,,,[],[],[],[],[],[],[],-0.6,3,,[],[],[],[],[],[],[],,,,,None,None,1748.5939750999678,1750.280961799901,1745.4602407999337,1745.4602407999337,1745.4602407999337,1745.4602407999337,1745.4602407999337,,,,,,,,,,,,,,,,269,f,23,2023-04-04_09h55.46.720,RL,2022.2.4,60.15381328129028,
