bandit0,black_x_pos_random,black_y_pos_random,trials.thisRepN,trials.thisTrialN,trials.thisN,trials.thisIndex,instru_img1.started,instru_img1.stopped,instru_resp.keys,instru_resp.rt,instru_resp.started,instru_resp.stopped,instru_img2.started,instru_img2.stopped,instru_resp2.keys,instru_resp2.rt,instru_resp2.started,instru_resp2.stopped,fixbefore_2.started,fixbefore_2.stopped,rest_image.started,rest_image.stopped,rest_response.keys,rest_response.started,rest_response.stopped,red.started,red.stopped,green.started,green.stopped,yellow.started,yellow.stopped,blue.started,blue.stopped,choose_bandit.keys,choose_bandit.rt,choose_bandit.started,choose_bandit.stopped,Fixation.started,Fixation.stopped,black.started,black.stopped,red_2.started,red_2.stopped,green_2.started,green_2.stopped,yellow_2.started,yellow_2.stopped,blue_2.started,blue_2.stopped,fixation_2.started,fixation_2.stopped,docs.started,docs.stopped,wait_playerB.started,wait_playerB.stopped,black_com.started,black_com.stopped,reward_sub.started,reward_sub.stopped,palyerb.started,palyerb.stopped,reward__sub.started,reward__sub.stopped,compare.started,compare.stopped,red_compare.started,red_compare.stopped,green_com.started,green_com.stopped,yellow_com.started,yellow_com.stopped,blue_com.started,blue_com.stopped,rewardyellow,rewardred,rewardblue,rewardgreen,subchoose,playerb,image_3.started,image_3.stopped,slider.response,slider.rt,slider.started,slider.stopped,text.started,text.stopped,image_4.started,image_4.stopped,image_5.started,image_5.stopped,expectself.text,expectself.started,expectself.stopped,value_expect_self,expect_self_black.started,expect_self_black.stopped,expect_self.started,expect_self.stopped,expect_self_red.started,expect_self_red.stopped,expect_self_green.started,expect_self_green.stopped,expect_self_yellow.started,expect_self_yellow.stopped,expect_self_blue.started,expect_self_blue.stopped,tijiao.started,tijiao.stopped,tijiao_click.started,tijiao_click.stopped,check.started,check.stopped,random_whicharm,whether_ask,jiantou_random.started,jiantou_random.stopped,expect_red.started,expect_red.stopped,expect_green.started,expect_green.stopped,expect_yellow.started,expect_yellow.stopped,expect_blue.started,expect_blue.stopped,expect_random_2.started,expect_random_2.stopped,expect_random_3.text,expect_random_3.started,expect_random_3.stopped,tijiao_random_2.started,tijiao_random_2.stopped,tijiao_random.started,tijiao_random.stopped,check_2.started,check_2.stopped,slider_2.response,slider_2.rt,slider_2.started,slider_2.stopped,image_7.started,image_7.stopped,confi.started,confi.stopped,notconfi.started,notconfi.stopped,bigx.started,bigx.stopped,intertrialfix.started,intertrialfix.stopped,tijiao_click.x,tijiao_click.y,tijiao_click.leftButton,tijiao_click.midButton,tijiao_click.rightButton,tijiao_click.time,tijiao_click.clicked_name,tijiao_random.x,tijiao_random.y,tijiao_random.leftButton,tijiao_random.midButton,tijiao_random.rightButton,tijiao_random.time,tijiao_random.clicked_name,rest_response.rt,participant,Gender,Age,date,expName,psychopyVersion,frameRate,
,,,,,,,24.29604100016877,None,space,1.8003505999222398,24.29604100016877,None,,,,,,,,,,,,,,,,,,,,,,,,,,,,,,,,,,,,,,,,,,,,,,,,,,,,,,,,,,,,,,,,,,,,,,,,,,,,,,,,,,,,,,,,,,,,,,,,,,,,,,,,,,,,,,,,,,,,,,,,,,,,,,,,,,,,,,,,,,,,,,,,,,,,,,,,,,270,f,23,2023_Apr_04_0955,RL,2021.2.3,59.950205385035325,
,,,,,,,,,,,,,26.20122280018404,None,s,25.935370599851012,26.20122280018404,None,,,,,,,,,,,,,,,,,,,,,,,,,,,,,,,,,,,,,,,,,,,,,,,,,,,,,,,,,,,,,,,,,,,,,,,,,,,,,,,,,,,,,,,,,,,,,,,,,,,,,,,,,,,,,,,,,,,,,,,,,,,,,,,,,,,,,,,,,,,,,,,,,,,,270,f,23,2023_Apr_04_0955,RL,2021.2.3,59.950205385035325,
1,-0.3,-0.225,0,0,0,0,,,,,,,,,,,,,52.16806980012916,None,None,None,None,None,None,53.2461419000756,None,53.2461419000756,None,53.2461419000756,None,53.2461419000756,None,j,0.660565200028941,53.2461419000756,None,53.2461419000756,None,54.02528220019303,None,54.02528220019303,None,54.02528220019303,None,54.02528220019303,None,54.02528220019303,None,54.02528220019303,None,54.309003200149164,55.2760380001273,54.309003200149164,55.2760380001273,55.3739082000684,None,55.3739082000684,None,55.3739082000684,None,55.3739082000684,None,55.3739082000684,None,55.3739082000684,None,55.3739082000684,None,55.3739082000684,None,55.3739082000684,None,53,67,34,39,39,28,57.978750800015405,None,5.0,3.164075099863112,57.978750800015405,None,57.978750800015405,None,57.978750800015405,None,57.978750800015405,None,,None,None,,None,None,None,None,None,None,None,None,None,None,None,None,None,None,None,None,None,None,-0.2,2,None,None,None,None,None,None,None,None,None,None,None,None,,None,None,None,None,None,None,None,None,None,None,None,None,None,None,None,None,None,None,None,None,61.7911926000379,None,,,,,,,,,,,,,,,,270,f,23,2023_Apr_04_0955,RL,2021.2.3,59.950205385035325,
0,0.3,0.225,0,1,1,1,,,,,,,,,,,,,,,None,None,None,None,None,63.46992770000361,None,63.46992770000361,None,63.46992770000361,None,63.46992770000361,None,r,0.5070063001476228,63.46992770000361,None,63.46992770000361,None,64.0279280000832,None,64.0279280000832,None,64.0279280000832,None,64.0279280000832,None,64.0279280000832,None,64.0279280000832,None,64.31588440015912,65.33326670015231,64.31588440015912,65.33326670015231,65.36669150018133,None,65.36669150018133,None,65.36669150018133,None,65.36669150018133,None,65.36669150018133,None,65.36669150018133,None,65.36669150018133,None,65.36669150018133,None,65.36669150018133,None,33,63,29,43,33,70,None,None,None,None,None,None,None,None,None,None,None,None,33,67.95739290001802,None,33,67.95739290001802,None,67.95739290001802,None,67.95739290001802,None,67.95739290001802,None,67.95739290001802,None,67.95739290001802,None,67.95739290001802,None,0.005407379940152168,None,67.95739290001802,None,-0.6,0,None,None,None,None,None,None,None,None,None,None,None,None,,None,None,None,None,None,None,None,None,9.958333333333332,3.2168795000761747,72.34781390009448,None,72.34781390009448,None,72.34781390009448,None,72.34781390009448,None,None,None,75.5730561001692,None,0.11458333333333333,-0.296875,1,0,0,4.309865799965337,tijiao,,,,,,,,,270,f,23,2023_Apr_04_0955,RL,2021.2.3,59.950205385035325,
1,-0.3,-0.225,0,2,2,2,,,,,,,,,,,,,,,None,None,None,None,None,77.12908340012655,None,77.12908340012655,None,77.12908340012655,None,77.12908340012655,None,j,0.567752999952063,77.12908340012655,None,77.12908340012655,None,77.74658770021051,None,77.74658770021051,None,77.74658770021051,None,77.74658770021051,None,77.74658770021051,None,77.74658770021051,None,78.04207760002464,None,78.04207760002464,None,79.22750670020469,None,79.22750670020469,None,79.22750670020469,None,79.22750670020469,None,79.22750670020469,None,79.22750670020469,None,79.22750670020469,None,79.22750670020469,None,79.22750670020469,None,40,62,31,40,40,71,81.75025580008514,None,5.0,2.6649663001298904,81.75025580008514,None,81.75025580008514,None,81.75025580008514,None,81.75025580008514,None,,None,None,,None,None,None,None,None,None,None,None,None,None,None,None,None,None,None,None,None,None,-0.6,2,None,None,None,None,None,None,None,None,None,None,None,None,,None,None,None,None,None,None,None,None,None,None,None,None,None,None,None,None,None,None,None,None,84.47124189999886,None,,,,,,,,,,,,,,,,270,f,23,2023_Apr_04_0955,RL,2021.2.3,59.950205385035325,
0,0.3,0.225,0,3,3,3,,,,,,,,,,,,,,,None,None,None,None,None,86.35256760008633,None,86.35256760008633,None,86.35256760008633,None,86.35256760008633,None,i,0.664270999841392,86.35256760008633,None,86.35256760008633,None,87.06117680016905,None,87.06117680016905,None,87.06117680016905,None,87.06117680016905,None,87.06117680016905,None,87.06117680016905,None,87.34857870009728,88.41616760008037,87.34857870009728,88.41616760008037,88.44992800010368,None,88.44992800010368,None,88.44992800010368,None,88.44992800010368,None,88.44992800010368,None,88.44992800010368,None,88.44992800010368,None,88.44992800010368,None,88.44992800010368,None,52,58,26,49,26,67,90.96540080010891,None,2.0,2.903682000003755,90.96540080010891,None,90.96540080010891,None,90.96540080010891,None,90.96540080010891,None,,None,None,,None,None,None,None,None,None,None,None,None,None,None,None,None,None,None,None,None,None,0.2,2,None,None,None,None,None,None,None,None,None,None,None,None,,None,None,None,None,None,None,None,None,None,None,None,None,None,None,None,None,None,None,None,None,93.92606970015913,None,,,,,,,,,,,,,,,,270,f,23,2023_Apr_04_0955,RL,2021.2.3,59.950205385035325,
1,-0.3,-0.225,0,4,4,4,,,,,,,,,,,,,,,None,None,None,None,None,95.57065880019218,None,95.57065880019218,None,95.57065880019218,None,95.57065880019218,None,f,1.0364849001634866,95.57065880019218,None,95.57065880019218,None,96.64829350006767,None,96.64829350006767,None,96.64829350006767,None,96.64829350006767,None,96.64829350006767,None,96.64829350006767,None,96.93867970001884,98.75642440002412,96.93867970001884,98.75642440002412,98.79257580009289,None,98.79257580009289,None,98.79257580009289,None,98.79257580009289,None,98.79257580009289,None,98.79257580009289,None,98.79257580009289,None,98.79257580009289,None,98.79257580009289,None,47,61,30,54,61,65,None,None,None,None,None,None,None,None,None,None,None,None,61,101.32638350012712,None,61,101.32638350012712,None,101.32638350012712,None,101.32638350012712,None,101.32638350012712,None,101.32638350012712,None,101.32638350012712,None,101.32638350012712,None,0.007225539768114686,None,101.32638350012712,None,0.6,0,None,None,None,None,None,None,None,None,None,None,None,None,,None,None,None,None,None,None,None,None,8.96875,2.3305945999454707,105.2880681999959,None,105.2880681999959,None,105.2880681999959,None,105.2880681999959,None,None,None,107.64939890010282,None,-0.020833333333333332,-0.3072916666666667,1,0,0,3.9117577001452446,tijiao,,,,,,,,,270,f,23,2023_Apr_04_0955,RL,2021.2.3,59.950205385035325,
0,0.3,0.225,0,5,5,5,,,,,,,,,,,,,,,None,None,None,None,None,109.25084410002455,None,109.25084410002455,None,109.25084410002455,None,109.25084410002455,None,i,0.4873176000546664,109.25084410002455,None,109.25084410002455,None,109.78608460002579,None,109.78608460002579,None,109.78608460002579,None,109.78608460002579,None,109.78608460002579,None,109.78608460002579,None,110.08106500003487,None,110.08106500003487,None,111.53679010015912,None,111.53679010015912,None,111.53679010015912,None,111.53679010015912,None,111.53679010015912,None,111.53679010015912,None,111.53679010015912,None,111.53679010015912,None,111.53679010015912,None,47,70,24,49,24,58,None,None,None,None,None,None,None,None,None,None,None,None,,None,None,,None,None,None,None,None,None,None,None,None,None,None,None,None,None,None,None,None,None,-0.2,1,114.09966850001365,None,114.09966850001365,None,114.09966850001365,None,114.09966850001365,None,114.09966850001365,None,114.09966850001365,None,69,114.09966850001365,None,114.09966850001365,None,0.00942811998538673,None,114.09966850001365,None,6.924479166666666,2.1505255000665784,119.4238657001406,None,119.4238657001406,None,119.4238657001406,None,119.4238657001406,None,None,None,121.58841650001705,None,,,,,,,,0.13020833333333334,-0.3059895833333333,1,0,0,5.264723300002515,tijiao_random_2,,270,f,23,2023_Apr_04_0955,RL,2021.2.3,59.950205385035325,
1,-0.3,-0.225,0,6,6,6,,,,,,,,,,,,,,,None,None,None,None,None,123.27781090000644,None,123.27781090000644,None,123.27781090000644,None,123.27781090000644,None,f,0.4503059999551624,123.27781090000644,None,123.27781090000644,None,123.7795458000619,None,123.7795458000619,None,123.7795458000619,None,123.7795458000619,None,123.7795458000619,None,123.7795458000619,None,124.07399610010907,None,124.07399610010907,None,125.95915870019235,None,125.95915870019235,None,125.95915870019235,None,125.95915870019235,None,125.95915870019235,None,125.95915870019235,None,125.95915870019235,None,125.95915870019235,None,125.95915870019235,None,48,69,28,55,69,39,None,None,None,None,None,None,None,None,None,None,None,None,,None,None,,None,None,None,None,None,None,None,None,None,None,None,None,None,None,None,None,None,None,0.2,1,128.5152310000267,None,128.5152310000267,None,128.5152310000267,None,128.5152310000267,None,128.5152310000267,None,128.5152310000267,None,34,128.5152310000267,None,128.5152310000267,None,0.002672819886356592,None,128.5152310000267,None,6.872395833333334,2.8130803001113236,132.45498100016266,None,132.45498100016266,None,132.45498100016266,None,132.45498100016266,None,None,None,135.28118060017005,None,,,,,,,,0.08203125,-0.2526041666666667,1,0,0,3.906246499856934,tijiao_random_2,,270,f,23,2023_Apr_04_0955,RL,2021.2.3,59.950205385035325,
0,0.3,0.225,0,7,7,7,,,,,,,,,,,,,,,None,None,None,None,None,137.27072880021296,None,137.27072880021296,None,137.27072880021296,None,137.27072880021296,None,r,0.5074782997835428,137.27072880021296,None,137.27072880021296,None,137.8256731000729,None,137.8256731000729,None,137.8256731000729,None,137.8256731000729,None,137.8256731000729,None,137.8256731000729,None,138.100506399991,139.88518199999817,138.100506399991,139.88518199999817,139.93596610007808,None,139.93596610007808,None,139.93596610007808,None,139.93596610007808,None,139.93596610007808,None,139.93596610007808,None,139.93596610007808,None,139.93596610007808,None,139.93596610007808,None,53,58,22,49,53,30,None,None,None,None,None,None,None,None,None,None,None,None,53,142.46662560012192,None,53,142.46662560012192,None,142.46662560012192,None,142.46662560012192,None,142.46662560012192,None,142.46662560012192,None,142.46662560012192,None,142.46662560012192,None,0.012439339887350798,None,142.46662560012192,None,0.2,0,None,None,None,None,None,None,None,None,None,None,None,None,,None,None,None,None,None,None,None,None,9.0859375,2.381014300044626,146.94685230008326,None,146.94685230008326,None,146.94685230008326,None,146.94685230008326,None,None,None,149.34131900011562,None,0.07942708333333333,-0.23177083333333334,1,0,0,3.0316366001497954,tijiao,,,,,,,,,270,f,23,2023_Apr_04_0955,RL,2021.2.3,59.950205385035325,
1,-0.3,-0.225,0,8,8,8,,,,,,,,,,,,,,,None,None,None,None,None,151.09652210003696,None,151.09652210003696,None,151.09652210003696,None,151.09652210003696,None,f,0.9218091000802815,151.09652210003696,None,151.09652210003696,None,152.06370629998855,None,152.06370629998855,None,152.06370629998855,None,152.06370629998855,None,152.06370629998855,None,152.06370629998855,None,152.360265100142,None,152.360265100142,None,153.67570220003836,None,153.67570220003836,None,153.67570220003836,None,153.67570220003836,None,153.67570220003836,None,153.67570220003836,None,153.67570220003836,None,153.67570220003836,None,153.67570220003836,None,53,50,11,46,50,41,None,None,None,None,None,None,None,None,None,None,None,None,53,156.2142011001706,None,53,156.2142011001706,None,156.2142011001706,None,156.2142011001706,None,156.2142011001706,None,156.2142011001706,None,156.2142011001706,None,156.2142011001706,None,0.008208839921280742,None,156.2142011001706,None,0.2,0,None,None,None,None,None,None,None,None,None,None,None,None,,None,None,None,None,None,None,None,None,8.109375,1.4723475000355393,160.5865613000933,None,160.5865613000933,None,160.5865613000933,None,160.5865613000933,None,None,None,162.082359299995,None,0.125,-0.2799479166666667,1,0,0,4.328180800192058,tijiao,,,,,,,,,270,f,23,2023_Apr_04_0955,RL,2021.2.3,59.950205385035325,
0,0.3,0.225,0,9,9,9,,,,,,,,,,,,,,,None,None,None,None,None,163.70557970018126,None,163.70557970018126,None,163.70557970018126,None,163.70557970018126,None,i,0.8728782997932285,163.70557970018126,None,163.70557970018126,None,164.6259304000996,None,164.6259304000996,None,164.6259304000996,None,164.6259304000996,None,164.6259304000996,None,164.6259304000996,None,164.9190997001715,166.88710330007598,164.9190997001715,166.88710330007598,166.92388470005244,None,166.92388470005244,None,166.92388470005244,None,166.92388470005244,None,166.92388470005244,None,166.92388470005244,None,166.92388470005244,None,166.92388470005244,None,166.92388470005244,None,51,60,19,47,19,59,169.4359182000626,None,2.0,3.3047388999257237,169.4359182000626,None,169.4359182000626,None,169.4359182000626,None,169.4359182000626,None,,None,None,,None,None,None,None,None,None,None,None,None,None,None,None,None,None,None,None,None,None,0.6,3,None,None,None,None,None,None,None,None,None,None,None,None,,None,None,None,None,None,None,None,None,None,None,None,None,None,None,None,None,None,None,None,None,172.79569300008006,None,,,,,,,,,,,,,,,,270,f,23,2023_Apr_04_0955,RL,2021.2.3,59.950205385035325,
1,-0.3,-0.225,0,10,10,10,,,,,,,,,,,,,,,None,None,None,None,None,174.33017410011962,None,174.33017410011962,None,174.33017410011962,None,174.33017410011962,None,i,0.8683376000262797,174.33017410011962,None,174.33017410011962,None,175.25406550010666,None,175.25406550010666,None,175.25406550010666,None,175.25406550010666,None,175.25406550010666,None,175.25406550010666,None,175.5431580999866,176.82745119999163,175.5431580999866,176.82745119999163,176.86314670019783,None,176.86314670019783,None,176.86314670019783,None,176.86314670019783,None,176.86314670019783,None,176.86314670019783,None,176.86314670019783,None,176.86314670019783,None,176.86314670019783,None,40,63,21,50,21,28,None,None,None,None,None,None,None,None,None,None,None,None,,None,None,,None,None,None,None,None,None,None,None,None,None,None,None,None,None,None,None,None,None,-0.6,1,179.4075478001032,None,179.4075478001032,None,179.4075478001032,None,179.4075478001032,None,179.4075478001032,None,179.4075478001032,None,53,179.4075478001032,None,179.4075478001032,None,0.013136919820681214,None,179.4075478001032,None,6.9375,1.9585845000110567,183.93945499998517,None,183.93945499998517,None,183.93945499998517,None,183.93945499998517,None,None,None,185.9169336000923,None,,,,,,,,-0.07552083333333333,-0.2903645833333333,1,0,0,4.5008555999957025,tijiao_random_2,,270,f,23,2023_Apr_04_0955,RL,2021.2.3,59.950205385035325,
0,0.3,0.225,0,11,11,11,,,,,,,,,,,,,,,None,None,None,None,None,187.77227700012736,None,187.77227700012736,None,187.77227700012736,None,187.77227700012736,None,j,0.8562317001633346,187.77227700012736,None,187.77227700012736,None,188.67778160003945,None,188.67778160003945,None,188.67778160003945,None,188.67778160003945,None,188.67778160003945,None,188.67778160003945,None,188.95229030004703,190.27001810004003,188.95229030004703,190.27001810004003,190.30442440020852,None,190.30442440020852,None,190.30442440020852,None,190.30442440020852,None,190.30442440020852,None,190.30442440020852,None,190.30442440020852,None,190.30442440020852,None,190.30442440020852,None,38,53,27,49,49,38,192.80829630000517,None,5.0,1.9986556000076234,192.80829630000517,None,192.80829630000517,None,192.80829630000517,None,192.80829630000517,None,,None,None,,None,None,None,None,None,None,None,None,None,None,None,None,None,None,None,None,None,None,-0.2,3,None,None,None,None,None,None,None,None,None,None,None,None,,None,None,None,None,None,None,None,None,None,None,None,None,None,None,None,None,None,None,None,None,194.86246319999918,None,,,,,,,,,,,,,,,,270,f,23,2023_Apr_04_0955,RL,2021.2.3,59.950205385035325,
1,-0.3,-0.225,0,12,12,12,,,,,,,,,,,,,,,None,None,None,None,None,196.762122400105,None,196.762122400105,None,196.762122400105,None,196.762122400105,None,f,0.39653920009732246,196.762122400105,None,196.762122400105,None,197.19912240002304,None,197.19912240002304,None,197.19912240002304,None,197.19912240002304,None,197.19912240002304,None,197.19912240002304,None,197.47508850018494,199.1262269001454,197.47508850018494,199.1262269001454,199.15996280009858,None,199.15996280009858,None,199.15996280009858,None,199.15996280009858,None,199.15996280009858,None,199.15996280009858,None,199.15996280009858,None,199.15996280009858,None,199.15996280009858,None,50,49,29,44,49,76,None,None,None,None,None,None,None,None,None,None,None,None,,None,None,,None,None,None,None,None,None,None,None,None,None,None,None,None,None,None,None,None,None,-0.2,1,201.7184036001563,None,201.7184036001563,None,201.7184036001563,None,201.7184036001563,None,201.7184036001563,None,201.7184036001563,None,49,201.7184036001563,None,201.7184036001563,None,0.0003925201017409563,None,201.7184036001563,None,8.942708333333332,1.8308355000335723,204.57054430013523,None,204.57054430013523,None,204.57054430013523,None,204.57054430013523,None,None,None,206.41413360019214,None,,,,,,,,0.1484375,-0.2526041666666667,1,0,0,2.819887800142169,tijiao_random_2,,270,f,23,2023_Apr_04_0955,RL,2021.2.3,59.950205385035325,
0,0.3,0.225,0,13,13,13,,,,,,,,,,,,,,,None,None,None,None,None,208.01945170015097,None,208.01945170015097,None,208.01945170015097,None,208.01945170015097,None,r,1.2494147000834346,208.01945170015097,None,208.01945170015097,None,209.32142799999565,None,209.32142799999565,None,209.32142799999565,None,209.32142799999565,None,209.32142799999565,None,209.32142799999565,None,209.61662370013073,None,209.61662370013073,None,210.94789190008305,None,210.94789190008305,None,210.94789190008305,None,210.94789190008305,None,210.94789190008305,None,210.94789190008305,None,210.94789190008305,None,210.94789190008305,None,210.94789190008305,None,45,53,34,50,45,76,213.47512380010448,None,4.0,2.2813482000492513,213.47512380010448,None,213.47512380010448,None,213.47512380010448,None,213.47512380010448,None,,None,None,,None,None,None,None,None,None,None,None,None,None,None,None,None,None,None,None,None,None,0.6,2,None,None,None,None,None,None,None,None,None,None,None,None,,None,None,None,None,None,None,None,None,None,None,None,None,None,None,None,None,None,None,None,None,215.80920240003616,None,,,,,,,,,,,,,,,,270,f,23,2023_Apr_04_0955,RL,2021.2.3,59.950205385035325,
1,-0.3,-0.225,0,14,14,14,,,,,,,,,,,,,,,None,None,None,None,None,217.59324340010062,None,217.59324340010062,None,217.59324340010062,None,217.59324340010062,None,f,0.5455846001859754,217.59324340010062,None,217.59324340010062,None,218.17927130009048,None,218.17927130009048,None,218.17927130009048,None,218.17927130009048,None,218.17927130009048,None,218.17927130009048,None,218.47299370006658,219.47388070006855,218.47299370006658,219.47388070006855,219.5049227999989,None,219.5049227999989,None,219.5049227999989,None,219.5049227999989,None,219.5049227999989,None,219.5049227999989,None,219.5049227999989,None,219.5049227999989,None,219.5049227999989,None,49,57,36,54,57,71,None,None,None,None,None,None,None,None,None,None,None,None,,None,None,,None,None,None,None,None,None,None,None,None,None,None,None,None,None,None,None,None,None,-0.2,1,222.05898850015365,None,222.05898850015365,None,222.05898850015365,None,222.05898850015365,None,222.05898850015365,None,222.05898850015365,None,57,222.05898850015365,None,222.05898850015365,None,0.008949219947680831,None,222.05898850015365,None,8.03125,2.0592663001734763,225.50495850015432,None,225.50495850015432,None,225.50495850015432,None,225.50495850015432,None,None,None,227.57851990009658,None,,,,,,,,0.006510416666666667,-0.28125,1,0,0,3.412831500172615,tijiao_random_2,,270,f,23,2023_Apr_04_0955,RL,2021.2.3,59.950205385035325,
0,0.3,0.225,0,15,15,15,,,,,,,,,,,,,,,None,None,None,None,None,229.5179202000145,None,229.5179202000145,None,229.5179202000145,None,229.5179202000145,None,j,0.4809473000932485,229.5179202000145,None,229.5179202000145,None,230.03776490013115,None,230.03776490013115,None,230.03776490013115,None,230.03776490013115,None,230.03776490013115,None,230.03776490013115,None,230.33152130013332,None,230.33152130013332,None,231.46227840008214,None,231.46227840008214,None,231.46227840008214,None,231.46227840008214,None,231.46227840008214,None,231.46227840008214,None,231.46227840008214,None,231.46227840008214,None,231.46227840008214,None,54,46,36,41,41,75,233.98167360015213,None,5.0,2.3057778000365943,233.98167360015213,None,233.98167360015213,None,233.98167360015213,None,233.98167360015213,None,,None,None,,None,None,None,None,None,None,None,None,None,None,None,None,None,None,None,None,None,None,-0.2,2,None,None,None,None,None,None,None,None,None,None,None,None,,None,None,None,None,None,None,None,None,None,None,None,None,None,None,None,None,None,None,None,None,236.3543666000478,None,,,,,,,,,,,,,,,,270,f,23,2023_Apr_04_0955,RL,2021.2.3,59.950205385035325,
1,-0.3,-0.225,0,16,16,16,,,,,,,,,,,,,,,None,None,None,None,None,238.20787750021555,None,238.20787750021555,None,238.20787750021555,None,238.20787750021555,None,r,0.681026800069958,238.20787750021555,None,238.20787750021555,None,238.92677310016006,None,238.92677310016006,None,238.92677310016006,None,238.92677310016006,None,238.92677310016006,None,238.92677310016006,None,239.22099720011465,None,239.22099720011465,None,240.13555110013112,None,240.13555110013112,None,240.13555110013112,None,240.13555110013112,None,240.13555110013112,None,240.13555110013112,None,240.13555110013112,None,240.13555110013112,None,240.13555110013112,None,42,48,45,45,42,70,242.66020350018516,None,3.0,3.450279600219801,242.66020350018516,None,242.66020350018516,None,242.66020350018516,None,242.66020350018516,None,,None,None,,None,None,None,None,None,None,None,None,None,None,None,None,None,None,None,None,None,None,-0.2,2,None,None,None,None,None,None,None,None,None,None,None,None,,None,None,None,None,None,None,None,None,None,None,None,None,None,None,None,None,None,None,None,None,246.1635034000501,None,,,,,,,,,,,,,,,,270,f,23,2023_Apr_04_0955,RL,2021.2.3,59.950205385035325,
0,0.3,0.225,0,17,17,17,,,,,,,,,,,,,,,None,None,None,None,None,248.01433490007184,None,248.01433490007184,None,248.01433490007184,None,248.01433490007184,None,i,0.5146495001390576,248.01433490007184,None,248.01433490007184,None,248.5838178000413,None,248.5838178000413,None,248.5838178000413,None,248.5838178000413,None,248.5838178000413,None,248.5838178000413,None,248.87769720004871,None,248.87769720004871,None,249.91641529998742,None,249.91641529998742,None,249.91641529998742,None,249.91641529998742,None,249.91641529998742,None,249.91641529998742,None,249.91641529998742,None,249.91641529998742,None,249.91641529998742,None,48,46,25,37,25,71,252.42703160014935,None,1.0,1.9364930000156164,252.42703160014935,None,252.42703160014935,None,252.42703160014935,None,252.42703160014935,None,,None,None,,None,None,None,None,None,None,None,None,None,None,None,None,None,None,None,None,None,None,-0.2,3,None,None,None,None,None,None,None,None,None,None,None,None,,None,None,None,None,None,None,None,None,None,None,None,None,None,None,None,None,None,None,None,None,254.42139520007186,None,,,,,,,,,,,,,,,,270,f,23,2023_Apr_04_0955,RL,2021.2.3,59.950205385035325,
1,-0.3,-0.225,0,18,18,18,,,,,,,,,,,,,,,None,None,None,None,None,256.4035598000046,None,256.4035598000046,None,256.4035598000046,None,256.4035598000046,None,j,0.6555218000430614,256.4035598000046,None,256.4035598000046,None,257.1063813001383,None,257.1063813001383,None,257.1063813001383,None,257.1063813001383,None,257.1063813001383,None,257.1063813001383,None,257.4000213001855,None,257.4000213001855,None,259.0993275002111,None,259.0993275002111,None,259.0993275002111,None,259.0993275002111,None,259.0993275002111,None,259.0993275002111,None,259.0993275002111,None,259.0993275002111,None,259.0993275002111,None,58,39,36,35,35,63,None,None,None,None,None,None,None,None,None,None,None,None,,None,None,,None,None,None,None,None,None,None,None,None,None,None,None,None,None,None,None,None,None,-0.6,1,261.64591270009987,None,261.64591270009987,None,261.64591270009987,None,261.64591270009987,None,261.64591270009987,None,261.64591270009987,None,54,261.64591270009987,None,261.64591270009987,None,0.015441319905221462,None,261.64591270009987,None,1.9765625,4.33061490021646,264.68003739998676,None,264.68003739998676,None,264.68003739998676,None,264.68003739998676,None,None,None,269.02429660013877,None,,,,,,,,-0.13671875,-0.2747395833333333,1,0,0,3.0022189000155777,tijiao_random_2,,270,f,23,2023_Apr_04_0955,RL,2021.2.3,59.950205385035325,
0,0.3,0.225,0,19,19,19,,,,,,,,,,,,,,,None,None,None,None,None,270.8471603000071,None,270.8471603000071,None,270.8471603000071,None,270.8471603000071,None,f,0.9329578999895602,270.8471603000071,None,270.8471603000071,None,271.83248290000483,None,271.83248290000483,None,271.83248290000483,None,271.83248290000483,None,271.83248290000483,None,271.83248290000483,None,272.12690290017053,273.3945403001271,272.12690290017053,273.3945403001271,273.4326416000258,None,273.4326416000258,None,273.4326416000258,None,273.4326416000258,None,273.4326416000258,None,273.4326416000258,None,273.4326416000258,None,273.4326416000258,None,273.4326416000258,None,43,48,38,43,48,67,275.9608654000331,None,3.0,3.673131600022316,275.9608654000331,None,275.9608654000331,None,275.9608654000331,None,275.9608654000331,None,,None,None,,None,None,None,None,None,None,None,None,None,None,None,None,None,None,None,None,None,None,-0.2,2,None,None,None,None,None,None,None,None,None,None,None,None,,None,None,None,None,None,None,None,None,None,None,None,None,None,None,None,None,None,None,None,None,279.7146093000192,None,,,,,,,,,,,,,,,,270,f,23,2023_Apr_04_0955,RL,2021.2.3,59.950205385035325,
1,-0.3,-0.225,0,20,20,20,,,,,,,,,,,,,,,None,None,None,None,None,281.68709990009665,None,281.68709990009665,None,281.68709990009665,None,281.68709990009665,None,i,0.5140275999438018,281.68709990009665,None,281.68709990009665,None,282.2412571001332,None,282.2412571001332,None,282.2412571001332,None,282.2412571001332,None,282.2412571001332,None,282.2412571001332,None,282.5341305001639,None,282.5341305001639,None,284.1164235000033,None,284.1164235000033,None,284.1164235000033,None,284.1164235000033,None,284.1164235000033,None,284.1164235000033,None,284.1164235000033,None,284.1164235000033,None,284.1164235000033,None,41,41,27,44,27,41,None,None,None,None,None,None,None,None,None,None,None,None,27,286.6470893002115,None,27,286.6470893002115,None,286.6470893002115,None,286.6470893002115,None,286.6470893002115,None,286.6470893002115,None,286.6470893002115,None,286.6470893002115,None,0.014582839794456959,None,286.6470893002115,None,-0.6,0,None,None,None,None,None,None,None,None,None,None,None,None,,None,None,None,None,None,None,None,None,5.0625,2.1338899999391288,290.0610128000844,None,290.0610128000844,None,290.0610128000844,None,290.0610128000844,None,None,None,292.2068000000436,None,-0.09635416666666667,-0.3059895833333333,1,0,0,3.367560800164938,tijiao,,,,,,,,,270,f,23,2023_Apr_04_0955,RL,2021.2.3,59.950205385035325,
0,0.3,0.225,0,21,21,21,,,,,,,,,,,,,,,None,None,None,None,None,294.0972705001477,None,294.0972705001477,None,294.0972705001477,None,294.0972705001477,None,j,0.5029933000914752,294.0972705001477,None,294.0972705001477,None,294.6486601000652,None,294.6486601000652,None,294.6486601000652,None,294.6486601000652,None,294.6486601000652,None,294.6486601000652,None,294.94270450016484,None,294.94270450016484,None,296.1570110002067,None,296.1570110002067,None,296.1570110002067,None,296.1570110002067,None,296.1570110002067,None,296.1570110002067,None,296.1570110002067,None,296.1570110002067,None,296.1570110002067,None,39,38,28,44,44,25,None,None,None,None,None,None,None,None,None,None,None,None,,None,None,,None,None,None,None,None,None,None,None,None,None,None,None,None,None,None,None,None,None,-0.2,1,298.70833620009944,None,298.70833620009944,None,298.70833620009944,None,298.70833620009944,None,298.70833620009944,None,298.70833620009944,None,48,298.70833620009944,None,298.70833620009944,None,0.010347220115363598,None,298.70833620009944,None,5.114583333333333,2.468291800003499,303.0223660999909,None,303.0223660999909,None,303.0223660999909,None,303.0223660999909,None,None,None,305.5197126001585,None,,,,,,,,-0.053385416666666664,-0.2513020833333333,1,0,0,4.281203400110826,tijiao_random_2,,270,f,23,2023_Apr_04_0955,RL,2021.2.3,59.950205385035325,
1,-0.3,-0.225,0,22,22,22,,,,,,,,,,,,,,,None,None,None,None,None,307.47198810009286,None,307.47198810009286,None,307.47198810009286,None,307.47198810009286,None,i,0.3584242998622358,307.47198810009286,None,307.47198810009286,None,307.8749767001718,None,307.8749767001718,None,307.8749767001718,None,307.8749767001718,None,307.8749767001718,None,307.8749767001718,None,308.1684122001752,309.569897999987,308.1684122001752,309.569897999987,309.60152000002563,None,309.60152000002563,None,309.60152000002563,None,309.60152000002563,None,309.60152000002563,None,309.60152000002563,None,309.60152000002563,None,309.60152000002563,None,309.60152000002563,None,32,47,33,40,33,73,None,None,None,None,None,None,None,None,None,None,None,None,35,312.1390064000152,None,35,312.1390064000152,None,312.1390064000152,None,312.1390064000152,None,312.1390064000152,None,312.1390064000152,None,312.1390064000152,None,312.1390064000152,None,0.008491740096360445,None,312.1390064000152,None,0.6,0,None,None,None,None,None,None,None,None,None,None,None,None,,None,None,None,None,None,None,None,None,6.0390625,2.228304399875924,316.0156082001049,None,316.0156082001049,None,316.0156082001049,None,316.0156082001049,None,None,None,318.2582731000148,None,-0.09765625,-0.26171875,1,0,0,3.8299056000541896,tijiao,,,,,,,,,270,f,23,2023_Apr_04_0955,RL,2021.2.3,59.950205385035325,
0,0.3,0.225,0,23,23,23,,,,,,,,,,,,,,,None,None,None,None,None,320.2645306000486,None,320.2645306000486,None,320.2645306000486,None,320.2645306000486,None,i,0.7559348000213504,320.2645306000486,None,320.2645306000486,None,321.0700095000211,None,321.0700095000211,None,321.0700095000211,None,321.0700095000211,None,321.0700095000211,None,321.0700095000211,None,321.3610379002057,322.47862800001167,321.3610379002057,322.47862800001167,322.51019860012457,None,322.51019860012457,None,322.51019860012457,None,322.51019860012457,None,322.51019860012457,None,322.51019860012457,None,322.51019860012457,None,322.51019860012457,None,322.51019860012457,None,34,43,42,35,42,61,325.03462270018645,None,2.0,2.3840658999979496,325.03462270018645,None,325.03462270018645,None,325.03462270018645,None,325.03462270018645,None,,None,None,,None,None,None,None,None,None,None,None,None,None,None,None,None,None,None,None,None,None,0.6,2,None,None,None,None,None,None,None,None,None,None,None,None,,None,None,None,None,None,None,None,None,None,None,None,None,None,None,None,None,None,None,None,None,327.4950614001136,None,,,,,,,,,,,,,,,,270,f,23,2023_Apr_04_0955,RL,2021.2.3,59.950205385035325,
1,-0.3,-0.225,0,24,24,24,,,,,,,,,,,,,,,None,None,None,None,None,329.22080190014094,None,329.22080190014094,None,329.22080190014094,None,329.22080190014094,None,j,1.2698088998440653,329.22080190014094,None,329.22080190014094,None,330.5402152000461,None,330.5402152000461,None,330.5402152000461,None,330.5402152000461,None,330.5402152000461,None,330.5402152000461,None,330.8346307000611,332.0518730999902,330.8346307000611,332.0518730999902,332.0827277000062,None,332.0827277000062,None,332.0827277000062,None,332.0827277000062,None,332.0827277000062,None,332.0827277000062,None,332.0827277000062,None,332.0827277000062,None,332.0827277000062,None,35,38,49,40,40,76,None,None,None,None,None,None,None,None,None,None,None,None,46,334.6180845000781,None,46,334.6180845000781,None,334.6180845000781,None,334.6180845000781,None,334.6180845000781,None,334.6180845000781,None,334.6180845000781,None,334.6180845000781,None,0.010887640062719584,None,334.6180845000781,None,-0.2,0,None,None,None,None,None,None,None,None,None,None,None,None,,None,None,None,None,None,None,None,None,3.903645833333334,2.2651092000305653,339.764196400065,None,339.764196400065,None,339.764196400065,None,339.764196400065,None,None,None,342.04159480007365,None,-0.15755208333333334,-0.2903645833333333,1,0,0,5.098699999973178,tijiao,,,,,,,,,270,f,23,2023_Apr_04_0955,RL,2021.2.3,59.950205385035325,
0,0.3,0.225,0,25,25,25,,,,,,,,,,,,,,,None,None,None,None,None,343.76521510002203,None,343.76521510002203,None,343.76521510002203,None,343.76521510002203,None,f,0.5757208000868559,343.76521510002203,None,343.76521510002203,None,344.38561050011776,None,344.38561050011776,None,344.38561050011776,None,344.38561050011776,None,344.38561050011776,None,344.38561050011776,None,344.6774089001119,None,344.6774089001119,None,346.1085893001873,None,346.1085893001873,None,346.1085893001873,None,346.1085893001873,None,346.1085893001873,None,346.1085893001873,None,346.1085893001873,None,346.1085893001873,None,346.1085893001873,None,32,42,44,34,42,24,348.6320449002087,None,5.0,2.2021844999399036,348.6320449002087,None,348.6320449002087,None,348.6320449002087,None,348.6320449002087,None,,None,None,,None,None,None,None,None,None,None,None,None,None,None,None,None,None,None,None,None,None,0.2,2,None,None,None,None,None,None,None,None,None,None,None,None,,None,None,None,None,None,None,None,None,None,None,None,None,None,None,None,None,None,None,None,None,350.8903717000503,None,,,,,,,,,,,,,,,,270,f,23,2023_Apr_04_0955,RL,2021.2.3,59.950205385035325,
1,-0.3,-0.225,0,26,26,26,,,,,,,,,,,,,,,None,None,None,None,None,352.85400610021316,None,352.85400610021316,None,352.85400610021316,None,352.85400610021316,None,r,0.6967563999351114,352.85400610021316,None,352.85400610021316,None,353.5895403001923,None,353.5895403001923,None,353.5895403001923,None,353.5895403001923,None,353.5895403001923,None,353.5895403001923,None,353.88330400013365,None,353.88330400013365,None,355.23857510020025,None,355.23857510020025,None,355.23857510020025,None,355.23857510020025,None,355.23857510020025,None,355.23857510020025,None,355.23857510020025,None,355.23857510020025,None,355.23857510020025,None,25,45,38,42,25,61,None,None,None,None,None,None,None,None,None,None,None,None,38,357.76828180020675,None,38,357.76828180020675,None,357.76828180020675,None,357.76828180020675,None,357.76828180020675,None,357.76828180020675,None,357.76828180020675,None,357.76828180020675,None,0.009996940148994327,None,357.76828180020675,None,-0.6,0,None,None,None,None,None,None,None,None,None,None,None,None,,None,None,None,None,None,None,None,None,1.0390625,1.9474179001990706,361.7629883000627,None,361.7629883000627,None,361.7629883000627,None,361.7629883000627,None,None,None,363.72326670004986,None,0.14453125,-0.2838541666666667,1,0,0,3.946981400018558,tijiao,,,,,,,,,270,f,23,2023_Apr_04_0955,RL,2021.2.3,59.950205385035325,
0,0.3,0.225,0,27,27,27,,,,,,,,,,,,,,,None,None,None,None,None,365.3958580000326,None,365.3958580000326,None,365.3958580000326,None,365.3958580000326,None,f,0.6149083999916911,365.3958580000326,None,365.3958580000326,None,366.0656356001273,None,366.0656356001273,None,366.0656356001273,None,366.0656356001273,None,366.0656356001273,None,366.0656356001273,None,366.3591934000142,367.9434615999926,366.3591934000142,367.9434615999926,367.9762630001642,None,367.9762630001642,None,367.9762630001642,None,367.9762630001642,None,367.9762630001642,None,367.9762630001642,None,367.9762630001642,None,367.9762630001642,None,367.9762630001642,None,39,48,34,41,48,40,None,None,None,None,None,None,None,None,None,None,None,None,,None,None,,None,None,None,None,None,None,None,None,None,None,None,None,None,None,None,None,None,None,0.2,1,370.5248489000369,None,370.5248489000369,None,370.5248489000369,None,370.5248489000369,None,370.5248489000369,None,370.5248489000369,None,37,370.5248489000369,None,370.5248489000369,None,0.011108620092272758,None,370.5248489000369,None,3.994791666666666,3.068350699963048,377.6227621000726,None,377.6227621000726,None,377.6227621000726,None,377.6227621000726,None,None,None,380.7173253002111,None,,,,,,,,0.171875,-0.3216145833333333,1,0,0,7.067113799974322,tijiao_random_2,,270,f,23,2023_Apr_04_0955,RL,2021.2.3,59.950205385035325,
1,-0.3,-0.225,0,28,28,28,,,,,,,,,,,,,,,None,None,None,None,None,382.3409152000677,None,382.3409152000677,None,382.3409152000677,None,382.3409152000677,None,f,0.5500928999390453,382.3409152000677,None,382.3409152000677,None,382.94163830019534,None,382.94163830019534,None,382.94163830019534,None,382.94163830019534,None,382.94163830019534,None,382.94163830019534,None,383.23758930014446,384.721672100015,383.23758930014446,384.721672100015,384.75385060021654,None,384.75385060021654,None,384.75385060021654,None,384.75385060021654,None,384.75385060021654,None,384.75385060021654,None,384.75385060021654,None,384.75385060021654,None,384.75385060021654,None,34,44,29,45,44,34,None,None,None,None,None,None,None,None,None,None,None,None,44,387.28334220009856,None,44,387.28334220009856,None,387.28334220009856,None,387.28334220009856,None,387.28334220009856,None,387.28334220009856,None,387.28334220009856,None,387.28334220009856,None,0.014775939984247088,None,387.28334220009856,None,-0.2,0,None,None,None,None,None,None,None,None,None,None,None,None,,None,None,None,None,None,None,None,None,6.0,3.4329127999953926,390.300289100036,None,390.300289100036,None,390.300289100036,None,390.300289100036,None,None,None,393.7600448001176,None,-0.053385416666666664,-0.2708333333333333,1,0,0,2.9687171999830753,tijiao,,,,,,,,,270,f,23,2023_Apr_04_0955,RL,2021.2.3,59.950205385035325,
0,0.3,0.225,0,29,29,29,,,,,,,,,,,,,,,None,None,None,None,None,395.33381270011887,None,395.33381270011887,None,395.33381270011887,None,395.33381270011887,None,i,0.9671624999027699,395.33381270011887,None,395.33381270011887,None,396.3542318001855,None,396.3542318001855,None,396.3542318001855,None,396.3542318001855,None,396.3542318001855,None,396.3542318001855,None,396.64684370020404,None,396.64684370020404,None,397.9790720001329,None,397.9790720001329,None,397.9790720001329,None,397.9790720001329,None,397.9790720001329,None,397.9790720001329,None,397.9790720001329,None,397.9790720001329,None,397.9790720001329,None,28,39,35,46,35,64,400.49669490009546,None,1.0,3.2226301999762654,400.49669490009546,None,400.49669490009546,None,400.49669490009546,None,400.49669490009546,None,,None,None,,None,None,None,None,None,None,None,None,None,None,None,None,None,None,None,None,None,None,0.2,3,None,None,None,None,None,None,None,None,None,None,None,None,,None,None,None,None,None,None,None,None,None,None,None,None,None,None,None,None,None,None,None,None,403.77446940005757,None,,,,,,,,,,,,,,,,270,f,23,2023_Apr_04_0955,RL,2021.2.3,59.950205385035325,
1,-0.3,-0.225,0,30,30,30,,,,,,,,,,,,,,,None,None,None,None,None,405.5068056001328,None,405.5068056001328,None,405.5068056001328,None,405.5068056001328,None,j,0.49422709993086755,405.5068056001328,None,405.5068056001328,None,406.04285349999554,None,406.04285349999554,None,406.04285349999554,None,406.04285349999554,None,406.04285349999554,None,406.04285349999554,None,406.3367792000063,None,406.3367792000063,None,407.4193222001195,None,407.4193222001195,None,407.4193222001195,None,407.4193222001195,None,407.4193222001195,None,407.4193222001195,None,407.4193222001195,None,407.4193222001195,None,407.4193222001195,None,31,47,36,49,49,46,None,None,None,None,None,None,None,None,None,None,None,None,,None,None,,None,None,None,None,None,None,None,None,None,None,None,None,None,None,None,None,None,None,0.2,1,409.9631082001142,None,409.9631082001142,None,409.9631082001142,None,409.9631082001142,None,409.9631082001142,None,409.9631082001142,None,39,409.9631082001142,None,409.9631082001142,None,0.0010275400709360838,None,409.9631082001142,None,3.981770833333334,2.4576516998931766,415.305525300093,None,415.305525300093,None,415.305525300093,None,415.305525300093,None,None,None,417.7772735999897,None,,,,,,,,-0.11328125,-0.23177083333333334,1,0,0,3.504137300187722,tijiao_random_2,,270,f,23,2023_Apr_04_0955,RL,2021.2.3,59.950205385035325,
0,0.3,0.225,0,31,31,31,,,,,,,,,,,,,,,None,None,None,None,None,419.36633080011234,None,419.36633080011234,None,419.36633080011234,None,419.36633080011234,None,f,0.5848521997686476,419.36633080011234,None,419.36633080011234,None,420.0004984000698,None,420.0004984000698,None,420.0004984000698,None,420.0004984000698,None,420.0004984000698,None,420.0004984000698,None,420.2967299001757,None,420.2967299001757,None,421.561928300187,None,421.561928300187,None,421.561928300187,None,421.561928300187,None,421.561928300187,None,421.561928300187,None,421.561928300187,None,421.561928300187,None,421.561928300187,None,38,40,32,44,40,61,424.0808606999926,None,1.0,1.9885255999397486,424.0808606999926,None,424.0808606999926,None,424.0808606999926,None,424.0808606999926,None,,None,None,,None,None,None,None,None,None,None,None,None,None,None,None,None,None,None,None,None,None,-0.2,2,None,None,None,None,None,None,None,None,None,None,None,None,,None,None,None,None,None,None,None,None,None,None,None,None,None,None,None,None,None,None,None,None,426.1260425001383,None,,,,,,,,,,,,,,,,270,f,23,2023_Apr_04_0955,RL,2021.2.3,59.950205385035325,
1,-0.3,-0.225,0,32,32,32,,,,,,,,,,,,,,,None,None,None,None,None,427.7894137999974,None,427.7894137999974,None,427.7894137999974,None,427.7894137999974,None,r,0.621755899861455,427.7894137999974,None,427.7894137999974,None,428.45731630013324,None,428.45731630013324,None,428.45731630013324,None,428.45731630013324,None,428.45731630013324,None,428.45731630013324,None,428.7524259001948,None,428.7524259001948,None,430.38778590015136,None,430.38778590015136,None,430.38778590015136,None,430.38778590015136,None,430.38778590015136,None,430.38778590015136,None,430.38778590015136,None,430.38778590015136,None,430.38778590015136,None,36,39,25,42,36,48,432.9056985999923,None,2.0,2.3034582999534905,432.9056985999923,None,432.9056985999923,None,432.9056985999923,None,432.9056985999923,None,,None,None,,None,None,None,None,None,None,None,None,None,None,None,None,None,None,None,None,None,None,-0.6,3,None,None,None,None,None,None,None,None,None,None,None,None,,None,None,None,None,None,None,None,None,None,None,None,None,None,None,None,None,None,None,None,None,435.27487750002183,None,,,,,,,,,,,,,,,,270,f,23,2023_Apr_04_0955,RL,2021.2.3,59.950205385035325,
0,0.3,0.225,0,33,33,33,,,,,,,,,,,,,,,None,None,None,None,None,436.9455826000776,None,436.9455826000776,None,436.9455826000776,None,436.9455826000776,None,j,1.3068138998933136,436.9455826000776,None,436.9455826000776,None,438.297379600117,None,438.297379600117,None,438.297379600117,None,438.297379600117,None,438.297379600117,None,438.297379600117,None,438.5932193000335,None,438.5932193000335,None,440.4262988001574,None,440.4262988001574,None,440.4262988001574,None,440.4262988001574,None,440.4262988001574,None,440.4262988001574,None,440.4262988001574,None,440.4262988001574,None,440.4262988001574,None,37,35,28,41,41,64,442.9431425000075,None,1.0,3.1898610000498593,442.9431425000075,None,442.9431425000075,None,442.9431425000075,None,442.9431425000075,None,,None,None,,None,None,None,None,None,None,None,None,None,None,None,None,None,None,None,None,None,None,0.6,3,None,None,None,None,None,None,None,None,None,None,None,None,,None,None,None,None,None,None,None,None,None,None,None,None,None,None,None,None,None,None,None,None,446.21050560008734,None,,,,,,,,,,,,,,,,270,f,23,2023_Apr_04_0955,RL,2021.2.3,59.950205385035325,
1,-0.3,-0.225,0,34,34,34,,,,,,,,,,,,,,,None,None,None,None,None,447.9030755001586,None,447.9030755001586,None,447.9030755001586,None,447.9030755001586,None,r,0.6092473000753671,447.9030755001586,None,447.9030755001586,None,448.5555517000612,None,448.5555517000612,None,448.5555517000612,None,448.5555517000612,None,448.5555517000612,None,448.5555517000612,None,448.84960950003006,None,448.84960950003006,None,450.14965190016665,None,450.14965190016665,None,450.14965190016665,None,450.14965190016665,None,450.14965190016665,None,450.14965190016665,None,450.14965190016665,None,450.14965190016665,None,450.14965190016665,None,33,42,40,43,33,36,None,None,None,None,None,None,None,None,None,None,None,None,33,452.6804242001381,None,33,452.6804242001381,None,452.6804242001381,None,452.6804242001381,None,452.6804242001381,None,452.6804242001381,None,452.6804242001381,None,452.6804242001381,None,0.014428939670324326,None,452.6804242001381,None,-0.6,0,None,None,None,None,None,None,None,None,None,None,None,None,,None,None,None,None,None,None,None,None,10.153645833333332,1.9481969999615103,455.84534370014444,None,455.84534370014444,None,455.84534370014444,None,455.84534370014444,None,None,None,457.8224053001031,None,0.0078125,-0.2916666666666667,1,0,0,3.1182355999480933,tijiao,,,,,,,,,270,f,23,2023_Apr_04_0955,RL,2021.2.3,59.950205385035325,
0,0.3,0.225,0,35,35,35,,,,,,,,,,,,,,,None,None,None,None,None,459.6279841000214,None,459.6279841000214,None,459.6279841000214,None,459.6279841000214,None,f,0.7244099001400173,459.6279841000214,None,459.6279841000214,None,460.39812360005453,None,460.39812360005453,None,460.39812360005453,None,460.39812360005453,None,460.39812360005453,None,460.39812360005453,None,460.69114230014384,None,460.69114230014384,None,462.2394156001974,None,462.2394156001974,None,462.2394156001974,None,462.2394156001974,None,462.2394156001974,None,462.2394156001974,None,462.2394156001974,None,462.2394156001974,None,462.2394156001974,None,36,45,32,48,45,52,None,None,None,None,None,None,None,None,None,None,None,None,45,464.76975080021657,None,45,464.76975080021657,None,464.76975080021657,None,464.76975080021657,None,464.76975080021657,None,464.76975080021657,None,464.76975080021657,None,464.76975080021657,None,0.015029439935460687,None,464.76975080021657,None,0.6,0,None,None,None,None,None,None,None,None,None,None,None,None,,None,None,None,None,None,None,None,None,7.067708333333334,2.7026369001250714,468.266902100062,None,468.266902100062,None,468.266902100062,None,468.266902100062,None,None,None,471.00160369998775,None,0.0390625,-0.2890625,1,0,0,3.452322700060904,tijiao,,,,,,,,,270,f,23,2023_Apr_04_0955,RL,2021.2.3,59.950205385035325,
1,-0.3,-0.225,0,36,36,36,,,,,,,,,,,,,,,None,None,None,None,None,473.00435010017827,None,473.00435010017827,None,473.00435010017827,None,473.00435010017827,None,j,0.8480666999239475,473.00435010017827,None,473.00435010017827,None,473.9057689001784,None,473.9057689001784,None,473.9057689001784,None,473.9057689001784,None,473.9057689001784,None,473.9057689001784,None,474.2006364001427,None,474.2006364001427,None,475.5301810000092,None,475.5301810000092,None,475.5301810000092,None,475.5301810000092,None,475.5301810000092,None,475.5301810000092,None,475.5301810000092,None,475.5301810000092,None,475.5301810000092,None,33,46,21,49,49,64,478.0562525000423,None,2.0,2.4187930000480264,478.0562525000423,None,478.0562525000423,None,478.0562525000423,None,478.0562525000423,None,,None,None,,None,None,None,None,None,None,None,None,None,None,None,None,None,None,None,None,None,None,0.6,3,None,None,None,None,None,None,None,None,None,None,None,None,,None,None,None,None,None,None,None,None,None,None,None,None,None,None,None,None,None,None,None,None,480.5313707999885,None,,,,,,,,,,,,,,,,270,f,23,2023_Apr_04_0955,RL,2021.2.3,59.950205385035325,
0,0.3,0.225,0,37,37,37,,,,,,,,,,,,,,,None,None,None,None,None,482.4605839001015,None,482.4605839001015,None,482.4605839001015,None,482.4605839001015,None,r,1.3321771000046283,482.4605839001015,None,482.4605839001015,None,483.8462921001483,None,483.8462921001483,None,483.8462921001483,None,483.8462921001483,None,483.8462921001483,None,483.8462921001483,None,484.14077050006017,486.0589733000379,484.14077050006017,486.0589733000379,486.0961492001079,None,486.0961492001079,None,486.0961492001079,None,486.0961492001079,None,486.0961492001079,None,486.0961492001079,None,486.0961492001079,None,486.0961492001079,None,486.0961492001079,None,32,39,34,48,32,69,488.6242504999973,None,1.0,2.0875262999907136,488.6242504999973,None,488.6242504999973,None,488.6242504999973,None,488.6242504999973,None,,None,None,,None,None,None,None,None,None,None,None,None,None,None,None,None,None,None,None,None,None,-0.6,3,None,None,None,None,None,None,None,None,None,None,None,None,,None,None,None,None,None,None,None,None,None,None,None,None,None,None,None,None,None,None,None,None,490.7656201000791,None,,,,,,,,,,,,,,,,270,f,23,2023_Apr_04_0955,RL,2021.2.3,59.950205385035325,
1,-0.3,-0.225,0,38,38,38,,,,,,,,,,,,,,,None,None,None,None,None,492.7179175000638,None,492.7179175000638,None,492.7179175000638,None,492.7179175000638,None,i,0.44471439998596907,492.7179175000638,None,492.7179175000638,None,493.20327060017735,None,493.20327060017735,None,493.20327060017735,None,493.20327060017735,None,493.20327060017735,None,493.20327060017735,None,493.497395100072,494.98167530004866,493.497395100072,494.98167530004866,495.0159875000827,None,495.0159875000827,None,495.0159875000827,None,495.0159875000827,None,495.0159875000827,None,495.0159875000827,None,495.0159875000827,None,495.0159875000827,None,495.0159875000827,None,41,37,33,47,33,58,None,None,None,None,None,None,None,None,None,None,None,None,,None,None,,None,None,None,None,None,None,None,None,None,None,None,None,None,None,None,None,None,None,0.6,1,497.5662555000745,None,497.5662555000745,None,497.5662555000745,None,497.5662555000745,None,497.5662555000745,None,497.5662555000745,None,42,497.5662555000745,None,497.5662555000745,None,0.008036719867959619,None,497.5662555000745,None,2.953125,1.7624264999758452,504.13113220012747,None,504.13113220012747,None,504.13113220012747,None,504.13113220012747,None,None,None,505.9211901000235,None,,,,,,,,-0.14973958333333334,-0.2942708333333333,1,0,0,6.530565500026569,tijiao_random_2,,270,f,23,2023_Apr_04_0955,RL,2021.2.3,59.950205385035325,
0,0.3,0.225,0,39,39,39,,,,,,,,,,,,,,,None,None,None,None,None,507.7113745000679,None,507.7113745000679,None,507.7113745000679,None,507.7113745000679,None,i,0.881325899856165,507.7113745000679,None,507.7113745000679,None,508.63020420004614,None,508.63020420004614,None,508.63020420004614,None,508.63020420004614,None,508.63020420004614,None,508.63020420004614,None,508.9246046000626,509.97534970007837,508.9246046000626,509.97534970007837,510.0129900001921,None,510.0129900001921,None,510.0129900001921,None,510.0129900001921,None,510.0129900001921,None,510.0129900001921,None,510.0129900001921,None,510.0129900001921,None,510.0129900001921,None,41,38,36,48,36,61,512.5292287000921,None,1.0,2.163692800095305,512.5292287000921,None,512.5292287000921,None,512.5292287000921,None,512.5292287000921,None,,None,None,,None,None,None,None,None,None,None,None,None,None,None,None,None,None,None,None,None,None,-0.2,2,None,None,None,None,None,None,None,None,None,None,None,None,,None,None,None,None,None,None,None,None,None,None,None,None,None,None,None,None,None,None,None,None,514.7754878001288,None,,,,,,,,,,,,,,,,270,f,23,2023_Apr_04_0955,RL,2021.2.3,59.950205385035325,
1,-0.3,-0.225,0,40,40,40,,,,,,,,,,,,,,,None,None,None,None,None,516.5345933001954,None,516.5345933001954,None,516.5345933001954,None,516.5345933001954,None,i,1.2883403000887483,516.5345933001954,None,516.5345933001954,None,517.8710267001297,None,517.8710267001297,None,517.8710267001297,None,517.8710267001297,None,517.8710267001297,None,517.8710267001297,None,518.1685711001046,None,518.1685711001046,None,519.247489000205,None,519.247489000205,None,519.247489000205,None,519.247489000205,None,519.247489000205,None,519.247489000205,None,519.247489000205,None,519.247489000205,None,519.247489000205,None,32,35,38,45,38,65,521.7657144002151,None,1.0,2.4341532001271844,521.7657144002151,None,521.7657144002151,None,521.7657144002151,None,521.7657144002151,None,,None,None,,None,None,None,None,None,None,None,None,None,None,None,None,None,None,None,None,None,None,-0.6,2,None,None,None,None,None,None,None,None,None,None,None,None,,None,None,None,None,None,None,None,None,None,None,None,None,None,None,None,None,None,None,None,None,524.2567239000928,None,,,,,,,,,,,,,,,,270,f,23,2023_Apr_04_0955,RL,2021.2.3,59.950205385035325,
0,0.3,0.225,0,41,41,41,,,,,,,,,,,,,,,None,None,None,None,None,525.902732900111,None,525.902732900111,None,525.902732900111,None,525.902732900111,None,j,0.300234500085935,525.902732900111,None,525.902732900111,None,526.2435192000121,None,526.2435192000121,None,526.2435192000121,None,526.2435192000121,None,526.2435192000121,None,526.2435192000121,None,526.5368538000621,527.3536271001212,526.5368538000621,527.3536271001212,527.3728150001261,None,527.3728150001261,None,527.3728150001261,None,527.3728150001261,None,527.3728150001261,None,527.3728150001261,None,527.3728150001261,None,527.3728150001261,None,527.3728150001261,None,37,31,32,42,42,45,None,None,None,None,None,None,None,None,None,None,None,None,44,529.9067685001064,None,44,529.9067685001064,None,529.9067685001064,None,529.9067685001064,None,529.9067685001064,None,529.9067685001064,None,529.9067685001064,None,529.9067685001064,None,0.007302460027858615,None,529.9067685001064,None,0.2,0,None,None,None,None,None,None,None,None,None,None,None,None,,None,None,None,None,None,None,None,None,2.927083333333333,2.4756219999399036,537.0576059001032,None,537.0576059001032,None,537.0576059001032,None,537.0576059001032,None,None,None,539.5606692000292,None,-0.15234375,-0.24609375,1,0,0,4.395747899776325,tijiao,,,,,,,,,270,f,23,2023_Apr_04_0955,RL,2021.2.3,59.950205385035325,
1,-0.3,-0.225,0,42,42,42,,,,,,,,,,,,,,,None,None,None,None,None,541.1302466001362,None,541.1302466001362,None,541.1302466001362,None,541.1302466001362,None,None,,541.1302466001362,None,541.1302466001362,None,None,None,None,None,None,None,None,None,None,None,None,None,None,None,None,None,None,None,None,None,None,None,None,None,None,None,None,None,None,None,None,None,None,None,42,28,30,51,0,**,None,None,None,None,None,None,None,None,None,None,None,None,,None,None,,None,None,None,None,None,None,None,None,None,None,None,None,None,None,None,None,None,None,0.2,1,None,None,None,None,None,None,None,None,None,None,None,None,,None,None,None,None,None,None,None,None,None,None,None,None,None,None,None,None,None,None,542.8540195000824,None,548.8691576002166,None,,,,,,,,,,,,,,,,270,f,23,2023_Apr_04_0955,RL,2021.2.3,59.950205385035325,
0,0.3,0.225,0,43,43,43,,,,,,,,,,,,,,,None,None,None,None,None,550.6576410001144,None,550.6576410001144,None,550.6576410001144,None,550.6576410001144,None,j,0.3155537999700755,550.6576410001144,None,550.6576410001144,None,551.0284397001378,None,551.0284397001378,None,551.0284397001378,None,551.0284397001378,None,551.0284397001378,None,551.0284397001378,None,551.3207992000971,None,551.3207992000971,None,553.086534100119,None,553.086534100119,None,553.086534100119,None,553.086534100119,None,553.086534100119,None,553.086534100119,None,553.086534100119,None,553.086534100119,None,553.086534100119,None,32,32,33,50,50,59,555.6112592001446,None,1.0,2.183836800046265,555.6112592001446,None,555.6112592001446,None,555.6112592001446,None,555.6112592001446,None,,None,None,,None,None,None,None,None,None,None,None,None,None,None,None,None,None,None,None,None,None,-0.2,2,None,None,None,None,None,None,None,None,None,None,None,None,,None,None,None,None,None,None,None,None,None,None,None,None,None,None,None,None,None,None,None,None,557.8507290000562,None,,,,,,,,,,,,,,,,270,f,23,2023_Apr_04_0955,RL,2021.2.3,59.950205385035325,
1,-0.3,-0.225,0,44,44,44,,,,,,,,,,,,,,,None,None,None,None,None,559.6307128001936,None,559.6307128001936,None,559.6307128001936,None,559.6307128001936,None,r,0.43239500001072884,559.6307128001936,None,559.6307128001936,None,560.1171456000302,None,560.1171456000302,None,560.1171456000302,None,560.1171456000302,None,560.1171456000302,None,560.1171456000302,None,560.4108437001705,None,560.4108437001705,None,561.311323300004,None,561.311323300004,None,561.311323300004,None,561.311323300004,None,561.311323300004,None,561.311323300004,None,561.311323300004,None,561.311323300004,None,561.311323300004,None,40,30,41,44,40,56,563.8289980001282,None,1.0,2.004121500067413,563.8289980001282,None,563.8289980001282,None,563.8289980001282,None,563.8289980001282,None,,None,None,,None,None,None,None,None,None,None,None,None,None,None,None,None,None,None,None,None,None,-0.2,2,None,None,None,None,None,None,None,None,None,None,None,None,,None,None,None,None,None,None,None,None,None,None,None,None,None,None,None,None,None,None,None,None,565.8886423001532,None,,,,,,,,,,,,,,,,270,f,23,2023_Apr_04_0955,RL,2021.2.3,59.950205385035325,
0,0.3,0.225,0,45,45,45,,,,,,,,,,,,,,,None,None,None,None,None,567.6195427000057,None,567.6195427000057,None,567.6195427000057,None,567.6195427000057,None,f,0.38353829993866384,567.6195427000057,None,567.6195427000057,None,568.0539309000596,None,568.0539309000596,None,568.0539309000596,None,568.0539309000596,None,568.0539309000596,None,568.0539309000596,None,568.3493137999903,None,568.3493137999903,None,569.2156297001056,None,569.2156297001056,None,569.2156297001056,None,569.2156297001056,None,569.2156297001056,None,569.2156297001056,None,569.2156297001056,None,569.2156297001056,None,569.2156297001056,None,55,28,29,43,28,50,None,None,None,None,None,None,None,None,None,None,None,None,,None,None,,None,None,None,None,None,None,None,None,None,None,None,None,None,None,None,None,None,None,0.6,1,571.7679531001486,None,571.7679531001486,None,571.7679531001486,None,571.7679531001486,None,571.7679531001486,None,571.7679531001486,None,45,571.7679531001486,None,571.7679531001486,None,0.00927661987952888,None,571.7679531001486,None,2.901041666666667,2.26482480019331,576.1102646000218,None,576.1102646000218,None,576.1102646000218,None,576.1102646000218,None,None,None,578.3892441000789,None,,,,,,,,-0.20833333333333334,-0.2513020833333333,1,0,0,3.67953239986673,tijiao_random_2,,270,f,23,2023_Apr_04_0955,RL,2021.2.3,59.950205385035325,
1,-0.3,-0.225,0,46,46,46,,,,,,,,,,,,,,,None,None,None,None,None,580.3618664999958,None,580.3618664999958,None,580.3618664999958,None,580.3618664999958,None,f,0.4119102000258863,580.3618664999958,None,580.3618664999958,None,580.8156223001424,None,580.8156223001424,None,580.8156223001424,None,580.8156223001424,None,580.8156223001424,None,580.8156223001424,None,581.1089435000904,None,581.1089435000904,None,582.9574264001567,None,582.9574264001567,None,582.9574264001567,None,582.9574264001567,None,582.9574264001567,None,582.9574264001567,None,582.9574264001567,None,582.9574264001567,None,582.9574264001567,None,52,40,37,46,40,66,585.4781123001594,None,2.0,1.853058700216934,585.4781123001594,None,585.4781123001594,None,585.4781123001594,None,585.4781123001594,None,,None,None,,None,None,None,None,None,None,None,None,None,None,None,None,None,None,None,None,None,None,-0.2,2,None,None,None,None,None,None,None,None,None,None,None,None,,None,None,None,None,None,None,None,None,None,None,None,None,None,None,None,None,None,None,None,None,587.3987911001313,None,,,,,,,,,,,,,,,,270,f,23,2023_Apr_04_0955,RL,2021.2.3,59.950205385035325,
0,0.3,0.225,0,47,47,47,,,,,,,,,,,,,,,None,None,None,None,None,589.1180550002027,None,589.1180550002027,None,589.1180550002027,None,589.1180550002027,None,i,0.5153537001460791,589.1180550002027,None,589.1180550002027,None,589.6863812000956,None,589.6863812000956,None,589.6863812000956,None,589.6863812000956,None,589.6863812000956,None,589.6863812000956,None,589.9810601000208,None,589.9810601000208,None,591.0117740000132,None,591.0117740000132,None,591.0117740000132,None,591.0117740000132,None,591.0117740000132,None,591.0117740000132,None,591.0117740000132,None,591.0117740000132,None,591.0117740000132,None,48,44,31,33,31,63,None,None,None,None,None,None,None,None,None,None,None,None,,None,None,,None,None,None,None,None,None,None,None,None,None,None,None,None,None,None,None,None,None,-0.2,1,593.5580458000768,None,593.5580458000768,None,593.5580458000768,None,593.5580458000768,None,593.5580458000768,None,593.5580458000768,None,36,593.5580458000768,None,593.5580458000768,None,0.00040734000504016876,None,593.5580458000768,None,4.0859375,3.3636672999709845,598.8477217000909,None,598.8477217000909,None,598.8477217000909,None,598.8477217000909,None,None,None,602.238059299998,None,,,,,,,,-0.10807291666666667,-0.2591145833333333,1,0,0,5.255361299961805,tijiao_random_2,,270,f,23,2023_Apr_04_0955,RL,2021.2.3,59.950205385035325,
1,-0.3,-0.225,0,48,48,48,,,,,,,,,,,,,,,None,None,None,None,None,604.0446669000667,None,604.0446669000667,None,604.0446669000667,None,604.0446669000667,None,j,0.38967989990487695,604.0446669000667,None,604.0446669000667,None,604.4830318000168,None,604.4830318000168,None,604.4830318000168,None,604.4830318000168,None,604.4830318000168,None,604.4830318000168,None,604.7746492000297,None,604.7746492000297,None,606.1219262001105,None,606.1219262001105,None,606.1219262001105,None,606.1219262001105,None,606.1219262001105,None,606.1219262001105,None,606.1219262001105,None,606.1219262001105,None,606.1219262001105,None,52,37,34,35,35,63,608.6418578000739,None,1.0,2.0047917999327183,608.6418578000739,None,608.6418578000739,None,608.6418578000739,None,608.6418578000739,None,,None,None,,None,None,None,None,None,None,None,None,None,None,None,None,None,None,None,None,None,None,-0.6,3,None,None,None,None,None,None,None,None,None,None,None,None,,None,None,None,None,None,None,None,None,None,None,None,None,None,None,None,None,None,None,None,None,610.6999475001357,None,,,,,,,,,,,,,,,,270,f,23,2023_Apr_04_0955,RL,2021.2.3,59.950205385035325,
0,0.3,0.225,0,49,49,49,,,,,,,,,,,,,,,None,None,None,None,None,612.5672685999889,None,612.5672685999889,None,612.5672685999889,None,612.5672685999889,None,r,0.4672057998832315,612.5672685999889,None,612.5672685999889,None,613.0869900002144,None,613.0869900002144,None,613.0869900002144,None,613.0869900002144,None,613.0869900002144,None,613.0869900002144,None,613.3804517001845,615.34856030019,613.3804517001845,615.34856030019,615.3856113001239,None,615.3856113001239,None,615.3856113001239,None,615.3856113001239,None,615.3856113001239,None,615.3856113001239,None,615.3856113001239,None,615.3856113001239,None,615.3856113001239,None,53,37,26,38,53,66,617.902572600171,None,2.0,2.7703519999049604,617.902572600171,None,617.902572600171,None,617.902572600171,None,617.902572600171,None,,None,None,,None,None,None,None,None,None,None,None,None,None,None,None,None,None,None,None,None,None,0.2,2,None,None,None,None,None,None,None,None,None,None,None,None,,None,None,None,None,None,None,None,None,None,None,None,None,None,None,None,None,None,None,None,None,620.7406107001007,None,,,,,,,,,,,,,,,,270,f,23,2023_Apr_04_0955,RL,2021.2.3,59.950205385035325,
1,-0.3,-0.225,0,50,50,50,,,,,,,,,,,,,,,None,None,None,None,None,622.6907835002057,None,622.6907835002057,None,622.6907835002057,None,622.6907835002057,None,f,0.29392809979617596,622.6907835002057,None,622.6907835002057,None,623.0283822000492,None,623.0283822000492,None,623.0283822000492,None,623.0283822000492,None,623.0283822000492,None,623.0283822000492,None,623.3209828000981,None,623.3209828000981,None,624.3758578000125,None,624.3758578000125,None,624.3758578000125,None,624.3758578000125,None,624.3758578000125,None,624.3758578000125,None,624.3758578000125,None,624.3758578000125,None,624.3758578000125,None,44,52,32,30,52,35,None,None,None,None,None,None,None,None,None,None,None,None,,None,None,,None,None,None,None,None,None,None,None,None,None,None,None,None,None,None,None,None,None,-0.6,1,626.9219704000279,None,626.9219704000279,None,626.9219704000279,None,626.9219704000279,None,626.9219704000279,None,626.9219704000279,None,50,626.9219704000279,None,626.9219704000279,None,0.01009471993893385,None,626.9219704000279,None,4.919270833333333,1.598776699975133,632.2398361000232,None,632.2398361000232,None,632.2398361000232,None,632.2398361000232,None,None,None,633.8599547999911,None,,,,,,,,-0.061197916666666664,-0.26953125,1,0,0,5.281239700037986,tijiao_random_2,,270,f,23,2023_Apr_04_0955,RL,2021.2.3,59.950205385035325,
0,0.3,0.225,0,51,51,51,,,,,,,,,,,,,,,None,None,None,None,None,635.5161237001885,None,635.5161237001885,None,635.5161237001885,None,635.5161237001885,None,j,0.33866759994998574,635.5161237001885,None,635.5161237001885,None,635.902650100179,None,635.902650100179,None,635.902650100179,None,635.902650100179,None,635.902650100179,None,635.902650100179,None,636.1965583001729,None,636.1965583001729,None,638.0780514001381,None,638.0780514001381,None,638.0780514001381,None,638.0780514001381,None,638.0780514001381,None,638.0780514001381,None,638.0780514001381,None,638.0780514001381,None,638.0780514001381,None,45,44,34,35,35,60,640.5983932001982,None,2.0,2.1718049000483006,640.5983932001982,None,640.5983932001982,None,640.5983932001982,None,640.5983932001982,None,,None,None,,None,None,None,None,None,None,None,None,None,None,None,None,None,None,None,None,None,None,0.6,3,None,None,None,None,None,None,None,None,None,None,None,None,,None,None,None,None,None,None,None,None,None,None,None,None,None,None,None,None,None,None,None,None,642.8235038002022,None,,,,,,,,,,,,,,,,270,f,23,2023_Apr_04_0955,RL,2021.2.3,59.950205385035325,
1,-0.3,-0.225,0,52,52,52,,,,,,,,,,,,,,,None,None,None,None,None,644.4057819000445,None,644.4057819000445,None,644.4057819000445,None,644.4057819000445,None,j,0.48945640004239976,644.4057819000445,None,644.4057819000445,None,644.9430172999855,None,644.9430172999855,None,644.9430172999855,None,644.9430172999855,None,644.9430172999855,None,644.9430172999855,None,645.2358564999886,646.503548800014,645.2358564999886,646.503548800014,646.5336767002009,None,646.5336767002009,None,646.5336767002009,None,646.5336767002009,None,646.5336767002009,None,646.5336767002009,None,646.5336767002009,None,646.5336767002009,None,646.5336767002009,None,40,36,30,35,35,62,None,None,None,None,None,None,None,None,None,None,None,None,37,649.0635436000302,None,37,649.0635436000302,None,649.0635436000302,None,649.0635436000302,None,649.0635436000302,None,649.0635436000302,None,649.0635436000302,None,649.0635436000302,None,0.0011187600903213024,None,649.0635436000302,None,-0.2,0,None,None,None,None,None,None,None,None,None,None,None,None,,None,None,None,None,None,None,None,None,3.96875,3.3887083001900464,652.9746888000518,None,652.9746888000518,None,652.9746888000518,None,652.9746888000518,None,None,None,656.376629000064,None,-0.08463541666666667,-0.2838541666666667,1,0,0,3.855552199995145,tijiao,,,,,,,,,270,f,23,2023_Apr_04_0955,RL,2021.2.3,59.950205385035325,
0,0.3,0.225,0,53,53,53,,,,,,,,,,,,,,,None,None,None,None,None,658.0166977001354,None,658.0166977001354,None,658.0166977001354,None,658.0166977001354,None,f,0.38812740007415414,658.0166977001354,None,658.0166977001354,None,658.4535904000513,None,658.4535904000513,None,658.4535904000513,None,658.4535904000513,None,658.4535904000513,None,658.4535904000513,None,658.7286735000089,659.7293375001755,658.7286735000089,659.7293375001755,659.7637116000988,None,659.7637116000988,None,659.7637116000988,None,659.7637116000988,None,659.7637116000988,None,659.7637116000988,None,659.7637116000988,None,659.7637116000988,None,659.7637116000988,None,49,41,31,37,41,64,662.2828079001047,None,1.0,2.6040714997798204,662.2828079001047,None,662.2828079001047,None,662.2828079001047,None,662.2828079001047,None,,None,None,,None,None,None,None,None,None,None,None,None,None,None,None,None,None,None,None,None,None,-0.6,3,None,None,None,None,None,None,None,None,None,None,None,None,,None,None,None,None,None,None,None,None,None,None,None,None,None,None,None,None,None,None,None,None,664.9429472000338,None,,,,,,,,,,,,,,,,270,f,23,2023_Apr_04_0955,RL,2021.2.3,59.950205385035325,
1,-0.3,-0.225,0,54,54,54,,,,,,,,,,,,,,,None,None,None,None,None,666.7550892999861,None,666.7550892999861,None,666.7550892999861,None,666.7550892999861,None,j,0.4098382000811398,666.7550892999861,None,666.7550892999861,None,667.2124644999858,None,667.2124644999858,None,667.2124644999858,None,667.2124644999858,None,667.2124644999858,None,667.2124644999858,None,667.5012581001502,None,667.5012581001502,None,669.115889800014,None,669.115889800014,None,669.115889800014,None,669.115889800014,None,669.115889800014,None,669.115889800014,None,669.115889800014,None,669.115889800014,None,669.115889800014,None,45,37,34,39,39,67,None,None,None,None,None,None,None,None,None,None,None,None,,None,None,,None,None,None,None,None,None,None,None,None,None,None,None,None,None,None,None,None,None,-0.2,1,671.670239900006,None,671.670239900006,None,671.670239900006,None,671.670239900006,None,671.670239900006,None,671.670239900006,None,48,671.670239900006,None,671.670239900006,None,0.00843252008780837,None,671.670239900006,None,1.963541666666667,1.8721101998817176,675.5650444000494,None,675.5650444000494,None,675.5650444000494,None,675.5650444000494,None,None,None,677.4567519000266,None,,,,,,,,-0.1328125,-0.2604166666666667,1,0,0,3.8619760998990387,tijiao_random_2,,270,f,23,2023_Apr_04_0955,RL,2021.2.3,59.950205385035325,
0,0.3,0.225,0,55,55,55,,,,,,,,,,,,,,,None,None,None,None,None,679.0965110000689,None,679.0965110000689,None,679.0965110000689,None,679.0965110000689,None,f,0.6985276998020709,679.0965110000689,None,679.0965110000689,None,679.8354891000781,None,679.8354891000781,None,679.8354891000781,None,679.8354891000781,None,679.8354891000781,None,679.8354891000781,None,680.1269511000719,None,680.1269511000719,None,681.9254265001509,None,681.9254265001509,None,681.9254265001509,None,681.9254265001509,None,681.9254265001509,None,681.9254265001509,None,681.9254265001509,None,681.9254265001509,None,681.9254265001509,None,40,44,33,40,44,67,684.4499658001587,None,3.0,3.6521922999527305,684.4499658001587,None,684.4499658001587,None,684.4499658001587,None,684.4499658001587,None,,None,None,,None,None,None,None,None,None,None,None,None,None,None,None,None,None,None,None,None,None,0.2,3,None,None,None,None,None,None,None,None,None,None,None,None,,None,None,None,None,None,None,None,None,None,None,None,None,None,None,None,None,None,None,None,None,688.1670946001541,None,,,,,,,,,,,,,,,,270,f,23,2023_Apr_04_0955,RL,2021.2.3,59.950205385035325,
1,-0.3,-0.225,0,56,56,56,,,,,,,,,,,,,,,None,None,None,None,None,689.9379210001789,None,689.9379210001789,None,689.9379210001789,None,689.9379210001789,None,j,1.057170300045982,689.9379210001789,None,689.9379210001789,None,691.041587700136,None,691.041587700136,None,691.041587700136,None,691.041587700136,None,691.041587700136,None,691.041587700136,None,691.3348865001462,None,691.3348865001462,None,692.5379520000424,None,692.5379520000424,None,692.5379520000424,None,692.5379520000424,None,692.5379520000424,None,692.5379520000424,None,692.5379520000424,None,692.5379520000424,None,692.5379520000424,None,47,49,34,42,42,71,None,None,None,None,None,None,None,None,None,None,None,None,,None,None,,None,None,None,None,None,None,None,None,None,None,None,None,None,None,None,None,None,None,0.6,1,695.0792200001888,None,695.0792200001888,None,695.0792200001888,None,695.0792200001888,None,695.0792200001888,None,695.0792200001888,None,46,695.0792200001888,None,695.0792200001888,None,0.015553119825199246,None,695.0792200001888,None,4.919270833333333,2.502846600022167,698.7344900001772,None,698.7344900001772,None,698.7344900001772,None,698.7344900001772,None,None,None,701.2577435001731,None,,,,,,,,-0.07161458333333333,-0.3268229166666667,1,0,0,3.619974199915305,tijiao_random_2,,270,f,23,2023_Apr_04_0955,RL,2021.2.3,59.950205385035325,
0,0.3,0.225,0,57,57,57,,,,,,,,,,,,,,,None,None,None,None,None,703.0140256001614,None,703.0140256001614,None,703.0140256001614,None,703.0140256001614,None,r,0.5510406999383122,703.0140256001614,None,703.0140256001614,None,703.6157220001332,None,703.6157220001332,None,703.6157220001332,None,703.6157220001332,None,703.6157220001332,None,703.6157220001332,None,703.9099948001094,None,703.9099948001094,None,705.7104100000579,None,705.7104100000579,None,705.7104100000579,None,705.7104100000579,None,705.7104100000579,None,705.7104100000579,None,705.7104100000579,None,705.7104100000579,None,705.7104100000579,None,40,38,34,51,40,59,708.2267931001261,None,2.0,2.274176500039175,708.2267931001261,None,708.2267931001261,None,708.2267931001261,None,708.2267931001261,None,,None,None,,None,None,None,None,None,None,None,None,None,None,None,None,None,None,None,None,None,None,-0.6,2,None,None,None,None,None,None,None,None,None,None,None,None,,None,None,None,None,None,None,None,None,None,None,None,None,None,None,None,None,None,None,None,None,710.5668872001115,None,,,,,,,,,,,,,,,,270,f,23,2023_Apr_04_0955,RL,2021.2.3,59.950205385035325,
1,-0.3,-0.225,0,58,58,58,,,,,,,,,,,,,,,None,None,None,None,None,712.40364090004,None,712.40364090004,None,712.40364090004,None,712.40364090004,None,i,0.49148779991082847,712.40364090004,None,712.40364090004,None,712.9389712000266,None,712.9389712000266,None,712.9389712000266,None,712.9389712000266,None,712.9389712000266,None,712.9389712000266,None,713.2331340000965,None,713.2331340000965,None,714.8147044000216,None,714.8147044000216,None,714.8147044000216,None,714.8147044000216,None,714.8147044000216,None,714.8147044000216,None,714.8147044000216,None,714.8147044000216,None,714.8147044000216,None,45,41,34,44,34,15,None,None,None,None,None,None,None,None,None,None,None,None,37,717.353470900096,None,37,717.353470900096,None,717.353470900096,None,717.353470900096,None,717.353470900096,None,717.353470900096,None,717.353470900096,None,717.353470900096,None,0.007830839836969972,None,717.353470900096,None,-0.2,0,None,None,None,None,None,None,None,None,None,None,None,None,,None,None,None,None,None,None,None,None,3.03125,1.8556625000201166,727.2986587001942,None,727.2986587001942,None,727.2986587001942,None,727.2986587001942,None,None,None,729.1769070001319,None,-0.0703125,-0.328125,1,0,0,9.898836200125515,tijiao,,,,,,,,,270,f,23,2023_Apr_04_0955,RL,2021.2.3,59.950205385035325,
0,0.3,0.225,0,59,59,59,,,,,,,,,,,,,,,None,None,None,None,None,731.0328508000821,None,731.0328508000821,None,731.0328508000821,None,731.0328508000821,None,None,,731.0328508000821,None,731.0328508000821,None,None,None,None,None,None,None,None,None,None,None,None,None,None,None,None,None,None,None,None,None,None,None,None,None,None,None,None,None,None,None,None,None,None,None,42,30,28,46,0,**,None,None,None,None,None,None,None,None,None,None,None,None,,None,None,,None,None,None,None,None,None,None,None,None,None,None,None,None,None,None,None,None,None,-0.6,1,None,None,None,None,None,None,None,None,None,None,None,None,,None,None,None,None,None,None,None,None,None,None,None,None,None,None,None,None,None,None,732.6319753001444,None,738.6345049000811,None,,,,,,,,,,,,,,,,270,f,23,2023_Apr_04_0955,RL,2021.2.3,59.950205385035325,
1,-0.3,-0.225,0,60,60,60,,,,,,,,,,,,,,,None,None,None,None,None,740.4561020000838,None,740.4561020000838,None,740.4561020000838,None,740.4561020000838,None,r,0.5401914000976831,740.4561020000838,None,740.4561020000838,None,741.0424439001363,None,741.0424439001363,None,741.0424439001363,None,741.0424439001363,None,741.0424439001363,None,741.0424439001363,None,741.3360248000827,None,741.3360248000827,None,743.3237862000242,None,743.3237862000242,None,743.3237862000242,None,743.3237862000242,None,743.3237862000242,None,743.3237862000242,None,743.3237862000242,None,743.3237862000242,None,743.3237862000242,None,31,31,44,42,31,58,745.8380231000483,None,1.0,2.4186195998918265,745.8380231000483,None,745.8380231000483,None,745.8380231000483,None,745.8380231000483,None,,None,None,,None,None,None,None,None,None,None,None,None,None,None,None,None,None,None,None,None,None,0.2,2,None,None,None,None,None,None,None,None,None,None,None,None,,None,None,None,None,None,None,None,None,None,None,None,None,None,None,None,None,None,None,None,None,748.3162502001505,None,,,,,,,,,,,,,,,,270,f,23,2023_Apr_04_0955,RL,2021.2.3,59.950205385035325,
0,0.3,0.225,0,61,61,61,,,,,,,,,,,,,,,None,None,None,None,None,750.1463007000275,None,750.1463007000275,None,750.1463007000275,None,750.1463007000275,None,f,0.4202113999053836,750.1463007000275,None,750.1463007000275,None,750.6153473001905,None,750.6153473001905,None,750.6153473001905,None,750.6153473001905,None,750.6153473001905,None,750.6153473001905,None,750.9094006000087,752.0602489002049,750.9094006000087,752.0602489002049,752.0920025000814,None,752.0920025000814,None,752.0920025000814,None,752.0920025000814,None,752.0920025000814,None,752.0920025000814,None,752.0920025000814,None,752.0920025000814,None,752.0920025000814,None,46,35,43,51,35,74,754.6136458001565,None,1.0,4.304799699923024,754.6136458001565,None,754.6136458001565,None,754.6136458001565,None,754.6136458001565,None,,None,None,,None,None,None,None,None,None,None,None,None,None,None,None,None,None,None,None,None,None,0.2,3,None,None,None,None,None,None,None,None,None,None,None,None,,None,None,None,None,None,None,None,None,None,None,None,None,None,None,None,None,None,None,None,None,758.975206400035,None,,,,,,,,,,,,,,,,270,f,23,2023_Apr_04_0955,RL,2021.2.3,59.950205385035325,
1,-0.3,-0.225,0,62,62,62,,,,,,,,,,,,,,,None,None,None,None,None,760.736977300141,None,760.736977300141,None,760.736977300141,None,760.736977300141,None,i,0.709848300088197,760.736977300141,None,760.736977300141,None,761.490026500076,None,761.490026500076,None,761.490026500076,None,761.490026500076,None,761.490026500076,None,761.490026500076,None,761.7835539001971,None,761.7835539001971,None,763.5486355000176,None,763.5486355000176,None,763.5486355000176,None,763.5486355000176,None,763.5486355000176,None,763.5486355000176,None,763.5486355000176,None,763.5486355000176,None,763.5486355000176,None,38,34,35,39,35,77,766.075905600097,None,1.0,1.3661474999971688,766.075905600097,None,766.075905600097,None,766.075905600097,None,766.075905600097,None,,None,None,,None,None,None,None,None,None,None,None,None,None,None,None,None,None,None,None,None,None,-0.2,2,None,None,None,None,None,None,None,None,None,None,None,None,,None,None,None,None,None,None,None,None,None,None,None,None,None,None,None,None,None,None,None,None,767.4917119001038,None,,,,,,,,,,,,,,,,270,f,23,2023_Apr_04_0955,RL,2021.2.3,59.950205385035325,
0,0.3,0.225,0,63,63,63,,,,,,,,,,,,,,,None,None,None,None,None,769.4262039000168,None,769.4262039000168,None,769.4262039000168,None,769.4262039000168,None,i,0.35038649989292026,769.4262039000168,None,769.4262039000168,None,769.8273355001584,None,769.8273355001584,None,769.8273355001584,None,769.8273355001584,None,769.8273355001584,None,769.8273355001584,None,770.1226387000643,None,770.1226387000643,None,771.0716793001629,None,771.0716793001629,None,771.0716793001629,None,771.0716793001629,None,771.0716793001629,None,771.0716793001629,None,771.0716793001629,None,771.0716793001629,None,771.0716793001629,None,58,30,36,45,36,51,773.59182410012,None,1.0,1.8018902998883277,773.59182410012,None,773.59182410012,None,773.59182410012,None,773.59182410012,None,,None,None,,None,None,None,None,None,None,None,None,None,None,None,None,None,None,None,None,None,None,0.2,2,None,None,None,None,None,None,None,None,None,None,None,None,,None,None,None,None,None,None,None,None,None,None,None,None,None,None,None,None,None,None,None,None,775.4455470000394,None,,,,,,,,,,,,,,,,270,f,23,2023_Apr_04_0955,RL,2021.2.3,59.950205385035325,
1,-0.3,-0.225,0,64,64,64,,,,,,,,,,,,,,,None,None,None,None,None,776.9977811002173,None,776.9977811002173,None,776.9977811002173,None,776.9977811002173,None,j,0.5499970000237226,776.9977811002173,None,776.9977811002173,None,777.6020338002127,None,777.6020338002127,None,777.6020338002127,None,777.6020338002127,None,777.6020338002127,None,777.6020338002127,None,777.8948543001898,None,777.8948543001898,None,779.5110486000776,None,779.5110486000776,None,779.5110486000776,None,779.5110486000776,None,779.5110486000776,None,779.5110486000776,None,779.5110486000776,None,779.5110486000776,None,779.5110486000776,None,46,30,39,43,43,73,None,None,None,None,None,None,None,None,None,None,None,None,67,782.0416900001001,None,67,782.0416900001001,None,782.0416900001001,None,782.0416900001001,None,782.0416900001001,None,782.0416900001001,None,782.0416900001001,None,782.0416900001001,None,0.014654939994215965,None,782.0416900001001,None,0.6,0,None,None,None,None,None,None,None,None,None,None,None,None,,None,None,None,None,None,None,None,None,2.028645833333333,1.9967271001078188,788.9937027001288,None,788.9937027001288,None,788.9937027001288,None,788.9937027001288,None,None,None,791.0038490002044,None,-0.17317708333333334,-0.3033854166666667,1,0,0,6.904002200113609,tijiao,,,,,,,,,270,f,23,2023_Apr_04_0955,RL,2021.2.3,59.950205385035325,
0,0.3,0.225,0,65,65,65,,,,,,,,,,,,,,,None,None,None,None,None,792.8592941001989,None,792.8592941001989,None,792.8592941001989,None,792.8592941001989,None,f,0.35757129988633096,792.8592941001989,None,792.8592941001989,None,793.2635455001146,None,793.2635455001146,None,793.2635455001146,None,793.2635455001146,None,793.2635455001146,None,793.2635455001146,None,793.5556482002139,795.256933500059,793.5556482002139,795.256933500059,795.2898842000868,None,795.2898842000868,None,795.2898842000868,None,795.2898842000868,None,795.2898842000868,None,795.2898842000868,None,795.2898842000868,None,795.2898842000868,None,795.2898842000868,None,44,30,38,37,30,75,None,None,None,None,None,None,None,None,None,None,None,None,,None,None,,None,None,None,None,None,None,None,None,None,None,None,None,None,None,None,None,None,None,-0.6,1,797.8411408001557,None,797.8411408001557,None,797.8411408001557,None,797.8411408001557,None,797.8411408001557,None,797.8411408001557,None,43,797.8411408001557,None,797.8411408001557,None,0.0088444200810045,None,797.8411408001557,None,2.145833333333333,1.8633049000054598,801.9526865000371,None,801.9526865000371,None,801.9526865000371,None,801.9526865000371,None,None,None,803.8463024001103,None,,,,,,,,-0.036458333333333336,-0.2994791666666667,1,0,0,4.0794170999433845,tijiao_random_2,,270,f,23,2023_Apr_04_0955,RL,2021.2.3,59.950205385035325,
1,-0.3,-0.225,0,66,66,66,,,,,,,,,,,,,,,None,None,None,None,None,805.6181308000814,None,805.6181308000814,None,805.6181308000814,None,805.6181308000814,None,r,0.5087540000677109,805.6181308000814,None,805.6181308000814,None,806.1729187001474,None,806.1729187001474,None,806.1729187001474,None,806.1729187001474,None,806.1729187001474,None,806.1729187001474,None,806.4645903999917,None,806.4645903999917,None,808.0973667001817,None,808.0973667001817,None,808.0973667001817,None,808.0973667001817,None,808.0973667001817,None,808.0973667001817,None,808.0973667001817,None,808.0973667001817,None,808.0973667001817,None,49,30,48,40,49,73,810.6220952000003,None,1.0,2.1992975999601185,810.6220952000003,None,810.6220952000003,None,810.6220952000003,None,810.6220952000003,None,,None,None,,None,None,None,None,None,None,None,None,None,None,None,None,None,None,None,None,None,None,0.2,2,None,None,None,None,None,None,None,None,None,None,None,None,,None,None,None,None,None,None,None,None,None,None,None,None,None,None,None,None,None,None,None,None,812.8753572001588,None,,,,,,,,,,,,,,,,270,f,23,2023_Apr_04_0955,RL,2021.2.3,59.950205385035325,
0,0.3,0.225,0,67,67,67,,,,,,,,,,,,,,,None,None,None,None,None,814.8088969001547,None,814.8088969001547,None,814.8088969001547,None,814.8088969001547,None,i,0.5380869000218809,814.8088969001547,None,814.8088969001547,None,815.394699400058,None,815.394699400058,None,815.394699400058,None,815.394699400058,None,815.394699400058,None,815.394699400058,None,815.687705400167,None,815.687705400167,None,817.1521947002038,None,817.1521947002038,None,817.1521947002038,None,817.1521947002038,None,817.1521947002038,None,817.1521947002038,None,817.1521947002038,None,817.1521947002038,None,817.1521947002038,None,49,25,40,45,40,80,None,None,None,None,None,None,None,None,None,None,None,None,53,819.6714306999929,None,53,819.6714306999929,None,819.6714306999929,None,819.6714306999929,None,819.6714306999929,None,819.6714306999929,None,819.6714306999929,None,819.6714306999929,None,0.009969360195100307,None,819.6714306999929,None,-0.2,0,None,None,None,None,None,None,None,None,None,None,None,None,,None,None,None,None,None,None,None,None,1.1171875,1.8481976999901235,827.4031957001425,None,827.4031957001425,None,827.4031957001425,None,827.4031957001425,None,None,None,829.2636824001092,None,-0.1484375,-0.265625,1,0,0,7.683462200220674,tijiao,,,,,,,,,270,f,23,2023_Apr_04_0955,RL,2021.2.3,59.950205385035325,
1,-0.3,-0.225,0,68,68,68,,,,,,,,,,,,,,,None,None,None,None,None,830.9355467001442,None,830.9355467001442,None,830.9355467001442,None,830.9355467001442,None,j,1.0315759000368416,830.9355467001442,None,830.9355467001442,None,832.0060671002138,None,832.0060671002138,None,832.0060671002138,None,832.0060671002138,None,832.0060671002138,None,832.0060671002138,None,832.2998141001444,834.0003294001799,832.2998141001444,834.0003294001799,834.0329013001174,None,834.0329013001174,None,834.0329013001174,None,834.0329013001174,None,834.0329013001174,None,834.0329013001174,None,834.0329013001174,None,834.0329013001174,None,834.0329013001174,None,43,26,37,42,42,69,836.5484125001822,None,2.0,2.057444099802524,836.5484125001822,None,836.5484125001822,None,836.5484125001822,None,836.5484125001822,None,,None,None,,None,None,None,None,None,None,None,None,None,None,None,None,None,None,None,None,None,None,0.6,3,None,None,None,None,None,None,None,None,None,None,None,None,,None,None,None,None,None,None,None,None,None,None,None,None,None,None,None,None,None,None,None,None,838.6826547000092,None,,,,,,,,,,,,,,,,270,f,23,2023_Apr_04_0955,RL,2021.2.3,59.950205385035325,
0,0.3,0.225,0,69,69,69,,,,,,,,,,,,,,,None,None,None,None,None,840.4083837000653,None,840.4083837000653,None,840.4083837000653,None,840.4083837000653,None,r,0.5486822999082506,840.4083837000653,None,840.4083837000653,None,840.9949312000535,None,840.9949312000535,None,840.9949312000535,None,840.9949312000535,None,840.9949312000535,None,840.9949312000535,None,841.2887534000911,None,841.2887534000911,None,842.5395326002035,None,842.5395326002035,None,842.5395326002035,None,842.5395326002035,None,842.5395326002035,None,842.5395326002035,None,842.5395326002035,None,842.5395326002035,None,842.5395326002035,None,40,23,48,53,40,81,845.0607758001424,None,1.0,2.4513401000294834,845.0607758001424,None,845.0607758001424,None,845.0607758001424,None,845.0607758001424,None,,None,None,,None,None,None,None,None,None,None,None,None,None,None,None,None,None,None,None,None,None,-0.2,2,None,None,None,None,None,None,None,None,None,None,None,None,,None,None,None,None,None,None,None,None,None,None,None,None,None,None,None,None,None,None,None,None,847.5662951001432,None,,,,,,,,,,,,,,,,270,f,23,2023_Apr_04_0955,RL,2021.2.3,59.950205385035325,
1,-0.3,-0.225,0,70,70,70,,,,,,,,,,,,,,,None,None,None,None,None,849.2986355000176,None,849.2986355000176,None,849.2986355000176,None,849.2986355000176,None,f,0.48860949999652803,849.2986355000176,None,849.2986355000176,None,849.8348123000469,None,849.8348123000469,None,849.8348123000469,None,849.8348123000469,None,849.8348123000469,None,849.8348123000469,None,850.1285719000734,None,850.1285719000734,None,851.4455167001579,None,851.4455167001579,None,851.4455167001579,None,851.4455167001579,None,851.4455167001579,None,851.4455167001579,None,851.4455167001579,None,851.4455167001579,None,851.4455167001579,None,38,19,39,45,19,70,853.9692628001794,None,1.0,1.7977954000234604,853.9692628001794,None,853.9692628001794,None,853.9692628001794,None,853.9692628001794,None,,None,None,,None,None,None,None,None,None,None,None,None,None,None,None,None,None,None,None,None,None,0.2,2,None,None,None,None,None,None,None,None,None,None,None,None,,None,None,None,None,None,None,None,None,None,None,None,None,None,None,None,None,None,None,None,None,855.822497199988,None,,,,,,,,,,,,,,,,270,f,23,2023_Apr_04_0955,RL,2021.2.3,59.950205385035325,
0,0.3,0.225,0,71,71,71,,,,,,,,,,,,,,,None,None,None,None,None,857.6372718000785,None,857.6372718000785,None,857.6372718000785,None,857.6372718000785,None,i,0.37000740016810596,857.6372718000785,None,857.6372718000785,None,858.0565133001655,None,858.0565133001655,None,858.0565133001655,None,858.0565133001655,None,858.0565133001655,None,858.0565133001655,None,858.3506686000619,None,858.3506686000619,None,860.1001042001881,None,860.1001042001881,None,860.1001042001881,None,860.1001042001881,None,860.1001042001881,None,860.1001042001881,None,860.1001042001881,None,860.1001042001881,None,860.1001042001881,None,44,31,33,54,33,64,862.6216278001666,None,1.0,2.3685636001173407,862.6216278001666,None,862.6216278001666,None,862.6216278001666,None,862.6216278001666,None,,None,None,,None,None,None,None,None,None,None,None,None,None,None,None,None,None,None,None,None,None,0.2,2,None,None,None,None,None,None,None,None,None,None,None,None,,None,None,None,None,None,None,None,None,None,None,None,None,None,None,None,None,None,None,None,None,865.0603726000991,None,,,,,,,,,,,,,,,,270,f,23,2023_Apr_04_0955,RL,2021.2.3,59.950205385035325,
1,-0.3,-0.225,0,72,72,72,,,,,,,,,,,,,,,None,None,None,None,None,866.961128400173,None,866.961128400173,None,866.961128400173,None,866.961128400173,None,j,0.37610839982517064,866.961128400173,None,866.961128400173,None,867.3799217001069,None,867.3799217001069,None,867.3799217001069,None,867.3799217001069,None,867.3799217001069,None,867.3799217001069,None,867.6737535002176,None,867.6737535002176,None,869.3387080000248,None,869.3387080000248,None,869.3387080000248,None,869.3387080000248,None,869.3387080000248,None,869.3387080000248,None,869.3387080000248,None,869.3387080000248,None,869.3387080000248,None,37,30,46,49,49,75,None,None,None,None,None,None,None,None,None,None,None,None,,None,None,,None,None,None,None,None,None,None,None,None,None,None,None,None,None,None,None,None,None,0.6,1,871.8862838000059,None,871.8862838000059,None,871.8862838000059,None,871.8862838000059,None,871.8862838000059,None,871.8862838000059,None,47,871.8862838000059,None,871.8862838000059,None,0.015195119893178344,None,871.8862838000059,None,1.0390625,1.7566213998943567,876.2930478001945,None,876.2930478001945,None,876.2930478001945,None,876.2930478001945,None,None,None,878.0636101001874,None,,,,,,,,-0.15364583333333334,-0.2747395833333333,1,0,0,4.369428999954835,tijiao_random_2,,270,f,23,2023_Apr_04_0955,RL,2021.2.3,59.950205385035325,
0,0.3,0.225,0,73,73,73,,,,,,,,,,,,,,,None,None,None,None,None,879.8527352001984,None,879.8527352001984,None,879.8527352001984,None,879.8527352001984,None,f,0.7145967001561075,879.8527352001984,None,879.8527352001984,None,880.607642200077,None,880.607642200077,None,880.607642200077,None,880.607642200077,None,880.607642200077,None,880.607642200077,None,880.8831837000325,882.1505734000821,880.8831837000325,882.1505734000821,882.2045953001361,None,882.2045953001361,None,882.2045953001361,None,882.2045953001361,None,882.2045953001361,None,882.2045953001361,None,882.2045953001361,None,882.2045953001361,None,882.2045953001361,None,36,36,38,55,36,78,884.7341460001189,None,1.0,1.7204275999683887,884.7341460001189,None,884.7341460001189,None,884.7341460001189,None,884.7341460001189,None,,None,None,,None,None,None,None,None,None,None,None,None,None,None,None,None,None,None,None,None,None,0.2,2,None,None,None,None,None,None,None,None,None,None,None,None,,None,None,None,None,None,None,None,None,None,None,None,None,None,None,None,None,None,None,None,None,886.5307063001674,None,,,,,,,,,,,,,,,,270,f,23,2023_Apr_04_0955,RL,2021.2.3,59.950205385035325,
1,-0.3,-0.225,0,74,74,74,,,,,,,,,,,,,,,None,None,None,None,None,888.1753847000655,None,888.1753847000655,None,888.1753847000655,None,888.1753847000655,None,i,0.5731359999626875,888.1753847000655,None,888.1753847000655,None,888.794221600052,None,888.794221600052,None,888.794221600052,None,888.794221600052,None,888.794221600052,None,888.794221600052,None,889.0886930001434,None,889.0886930001434,None,890.6715554001275,None,890.6715554001275,None,890.6715554001275,None,890.6715554001275,None,890.6715554001275,None,890.6715554001275,None,890.6715554001275,None,890.6715554001275,None,890.6715554001275,None,30,34,35,43,35,54,None,None,None,None,None,None,None,None,None,None,None,None,38,893.206703600008,None,38,893.206703600008,None,893.206703600008,None,893.206703600008,None,893.206703600008,None,893.206703600008,None,893.206703600008,None,893.206703600008,None,0.010174839990213513,None,893.206703600008,None,-0.6,0,None,None,None,None,None,None,None,None,None,None,None,None,,None,None,None,None,None,None,None,None,3.96875,2.0776132000610232,898.7718234001659,None,898.7718234001659,None,898.7718234001659,None,898.7718234001659,None,None,None,900.8817565999925,None,-0.10416666666666667,-0.3020833333333333,1,0,0,5.5152584000024945,tijiao,,,,,,,,,270,f,23,2023_Apr_04_0955,RL,2021.2.3,59.950205385035325,
0,0.3,0.225,0,75,75,75,,,,,,,,,,,,,,,902.8650581000838,None,q,902.8650581000838,None,1605.4197524001356,None,1605.4197524001356,None,1605.4197524001356,None,1605.4197524001356,None,j,0.7345217000693083,1605.4197524001356,None,1605.4197524001356,None,1606.1971334000118,None,1606.1971334000118,None,1606.1971334000118,None,1606.1971334000118,None,1606.1971334000118,None,1606.1971334000118,None,1606.4868434001692,None,1606.4868434001692,None,1607.8210563000757,None,1607.8210563000757,None,1607.8210563000757,None,1607.8210563000757,None,1607.8210563000757,None,1607.8210563000757,None,1607.8210563000757,None,1607.8210563000757,None,1607.8210563000757,None,30,35,31,38,38,59,1610.3401206000708,None,2.0,2.6040205999743193,1610.3401206000708,None,1610.3401206000708,None,1610.3401206000708,None,1610.3401206000708,None,,None,None,,None,None,None,None,None,None,None,None,None,None,None,None,None,None,None,None,None,None,0.6,3,None,None,None,None,None,None,None,None,None,None,None,None,,None,None,None,None,None,None,None,None,None,None,None,None,None,None,None,None,None,None,None,None,1612.998783200048,None,,,,,,,,,,,,,,,702.4792452999391,270,f,23,2023_Apr_04_0955,RL,2021.2.3,59.950205385035325,
1,-0.3,-0.225,0,76,76,76,,,,,,,,,,,,,,,None,None,None,None,None,1614.5789696001448,None,1614.5789696001448,None,1614.5789696001448,None,1614.5789696001448,None,f,0.6456193001940846,1614.5789696001448,None,1614.5789696001448,None,1615.2679028001148,None,1615.2679028001148,None,1615.2679028001148,None,1615.2679028001148,None,1615.2679028001148,None,1615.2679028001148,None,1615.559816900175,1616.7773004001938,1615.559816900175,1616.7773004001938,1616.807716500014,None,1616.807716500014,None,1616.807716500014,None,1616.807716500014,None,1616.807716500014,None,1616.807716500014,None,1616.807716500014,None,1616.807716500014,None,1616.807716500014,None,36,29,38,38,29,61,1619.3319846000522,None,1.0,1.9033210999332368,1619.3319846000522,None,1619.3319846000522,None,1619.3319846000522,None,1619.3319846000522,None,,None,None,,None,None,None,None,None,None,None,None,None,None,None,None,None,None,None,None,None,None,0.2,2,None,None,None,None,None,None,None,None,None,None,None,None,,None,None,None,None,None,None,None,None,None,None,None,None,None,None,None,None,None,None,None,None,1621.3010415001772,None,,,,,,,,,,,,,,,,270,f,23,2023_Apr_04_0955,RL,2021.2.3,59.950205385035325,
0,0.3,0.225,0,77,77,77,,,,,,,,,,,,,,,None,None,None,None,None,1623.1358195000794,None,1623.1358195000794,None,1623.1358195000794,None,1623.1358195000794,None,r,0.2795501002110541,1623.1358195000794,None,1623.1358195000794,None,1623.4581215002108,None,1623.4581215002108,None,1623.4581215002108,None,1623.4581215002108,None,1623.4581215002108,None,1623.4581215002108,None,1623.7488036002032,1624.8498983001336,1623.7488036002032,1624.8498983001336,1624.886962500168,None,1624.886962500168,None,1624.886962500168,None,1624.886962500168,None,1624.886962500168,None,1624.886962500168,None,1624.886962500168,None,1624.886962500168,None,1624.886962500168,None,35,32,39,36,35,64,None,None,None,None,None,None,None,None,None,None,None,None,,None,None,,None,None,None,None,None,None,None,None,None,None,None,None,None,None,None,None,None,None,-0.2,1,1627.4455252999905,None,1627.4455252999905,None,1627.4455252999905,None,1627.4455252999905,None,1627.4455252999905,None,1627.4455252999905,None,29,1627.4455252999905,None,1627.4455252999905,None,0.014745919965207577,None,1627.4455252999905,None,1,2.5946504999883473,1631.232054400025,None,1631.232054400025,None,1631.232054400025,None,1631.232054400025,None,None,None,1633.8384030000307,None,,,,,,,,0.12369791666666667,-0.3177083333333333,1,0,0,3.7515421002171934,tijiao_random_2,,270,f,23,2023_Apr_04_0955,RL,2021.2.3,59.950205385035325,
