bandit0,black_x_pos_random,black_y_pos_random,trials.thisRepN,trials.thisTrialN,trials.thisN,trials.thisIndex,instru_img1.started,instru_resp.started,instru_resp.keys,instru_resp.rt,instru_img2.started,instru_resp2.started,instru_resp2.keys,instru_resp2.rt,fixbefore_2.started,rest_response.keys,red.started,green.started,yellow.started,blue.started,choose_bandit.started,Fixation.started,choose_bandit.keys,choose_bandit.rt,black.started,red_2.started,green_2.started,yellow_2.started,blue_2.started,fixation_2.started,docs.started,wait_playerB.started,docs.stopped,wait_playerB.stopped,black.stopped,red_2.stopped,green_2.stopped,yellow_2.stopped,blue_2.stopped,fixation_2.stopped,black_com.started,reward_sub.started,palyerb.started,reward__sub.started,compare.started,red_compare.started,green_com.started,yellow_com.started,blue_com.started,image_3.started,slider.started,text.started,image_4.started,image_5.started,rewardyellow,rewardred,rewardblue,rewardgreen,subchoose,playerb,slider.response,slider.rt,expectself.text,value_expect_self,tijiao_click.x,tijiao_click.y,tijiao_click.leftButton,tijiao_click.midButton,tijiao_click.rightButton,tijiao_click.time,tijiao_click.clicked_name,random_whicharm,whether_ask,expect_random_3.text,tijiao_random.x,tijiao_random.y,tijiao_random.leftButton,tijiao_random.midButton,tijiao_random.rightButton,tijiao_random.time,tijiao_random.clicked_name,slider_2.response,slider_2.rt,intertrialfix.started,intertrialfix.stopped,jiantou_random.started,expect_red.started,expect_green.started,expect_yellow.started,expect_blue.started,expect_random_2.started,expect_random_3.started,tijiao_random_2.started,tijiao_random.started,check_2.started,slider_2.started,image_7.started,confi.started,notconfi.started,expectself.started,expect_self_black.started,expect_self.started,expect_self_red.started,expect_self_green.started,expect_self_yellow.started,expect_self_blue.started,tijiao.started,tijiao_click.started,check.started,rest_image.started,rest_response.started,rest_response.rt,participant,Gender,Age,date,expName,psychopyVersion,frameRate,
,,,,,,,35.379817199893296,35.379817199893296,space,18.16024659993127,,,,,,,,,,,,,,,,,,,,,,,,,,,,,,,,,,,,,,,,,,,,,,,,,,,,,,,,,,,,,,,,,,,,,,,,,,,,,,,,,,,,,,,,,,,,,,,,,,,,,,,271,f,22,2023-04-04_11h08.39.374,RL,2022.2.4,60.234613826211564,
,,,,,,,,,,,53.56888939999044,53.56888939999044,s,61.825545999919996,,,,,,,,,,,,,,,,,,,,,,,,,,,,,,,,,,,,,,,,,,,,,,,,,,,,,,,,,,,,,,,,,,,,,,,,,,,,,,,,,,,,,,,,,,,,,,,,,,,271,f,22,2023-04-04_11h08.39.374,RL,2022.2.4,60.234613826211564,
1,-0.3,-0.225,0,0,0,0,,,,,,,,,115.42467499990016,None,116.4534827999305,116.4534827999305,116.4534827999305,116.4534827999305,116.4534827999305,116.4534827999305,r,0.4539722998160869,116.95897139981389,116.95897139981389,116.95897139981389,116.95897139981389,116.95897139981389,116.95897139981389,117.23797019990161,117.23797019990161,118.55015459982678,118.55015459982678,118.56976999994367,118.56976999994367,118.56976999994367,118.56976999994367,118.56976999994367,118.56976999994367,118.56976999994367,118.56976999994367,118.56976999994367,118.56976999994367,118.56976999994367,118.56976999994367,118.56976999994367,118.56976999994367,118.56976999994367,121.07626380003057,121.07626380003057,121.07626380003057,121.07626380003057,121.07626380003057,53,54,65,39,53,48,4.0,2.6248836000449955,,,[],[],[],[],[],[],[],0.6,3,,[],[],[],[],[],[],[],None,None,123.8834257000126,125.48169459984638,,,,,,,,,,,,,,,,,,,,,,,,,,,,271,f,22,2023-04-04_11h08.39.374,RL,2022.2.4,60.234613826211564,
0,0.3,0.225,0,1,1,1,,,,,,,,,,None,125.48169459984638,125.48169459984638,125.48169459984638,125.48169459984638,125.48169459984638,125.48169459984638,f,0.5033892998471856,126.02026119991206,126.02026119991206,126.02026119991206,126.02026119991206,126.02026119991206,126.02026119991206,126.31256249989383,126.31256249989383,127.29324259981513,127.29324259981513,127.29324259981513,127.29324259981513,127.29324259981513,127.29324259981513,127.29324259981513,127.29324259981513,127.29324259981513,127.29324259981513,127.29324259981513,127.29324259981513,127.29324259981513,127.29324259981513,127.29324259981513,127.29324259981513,127.29324259981513,,,,,,67,51,58,39,51,45,None,None,,,[],[],[],[],[],[],[],0.2,1,50,[0.12222222222222222],[-0.29074074074074074],[1],[0],[0],[5.850457899970934],['tijiao_random_2'],6.157407407407407,2.7857558999676257,138.49487609998323,140.2413164000027,129.8308591998648,129.8308591998648,129.8308591998648,129.8308591998648,129.8308591998648,129.8308591998648,129.8308591998648,129.8308591998648,0.007562499959021807,129.8308591998648,135.6966790999286,135.6966790999286,135.6966790999286,135.6966790999286,,,,,,,,,,,,,,271,f,22,2023-04-04_11h08.39.374,RL,2022.2.4,60.234613826211564,
1,-0.3,-0.225,0,2,2,2,,,,,,,,,,None,140.2413164000027,140.2413164000027,140.2413164000027,140.2413164000027,140.2413164000027,140.2413164000027,i,0.5514830998145044,140.8281121000182,140.8281121000182,140.8281121000182,140.8281121000182,140.8281121000182,140.8281121000182,141.1224813000299,141.1224813000299,142.96759539982304,142.96759539982304,142.96759539982304,142.96759539982304,142.96759539982304,142.96759539982304,142.96759539982304,142.96759539982304,142.96759539982304,142.96759539982304,142.96759539982304,142.96759539982304,142.96759539982304,142.96759539982304,142.96759539982304,142.96759539982304,142.96759539982304,,,,,,69,51,58,45,58,44,None,None,60,60,[0.06851851851851852],[-0.28888888888888886],[1],[0],[0],[6.023118800017983],['tijiao'],0.2,0,,[],[],[],[],[],[],[],7.092592592592593,2.545297299977392,154.08589149988256,155.73233299981803,,,,,,,,,,,151.52196439984255,151.52196439984255,151.52196439984255,151.52196439984255,145.48199669993483,145.48199669993483,145.48199669993483,145.48199669993483,145.48199669993483,145.48199669993483,145.48199669993483,145.48199669993483,0.006320900050923228,145.48199669993483,,,,271,f,22,2023-04-04_11h08.39.374,RL,2022.2.4,60.234613826211564,
0,0.3,0.225,0,3,3,3,,,,,,,,,,None,155.73233299981803,155.73233299981803,155.73233299981803,155.73233299981803,155.73233299981803,155.73233299981803,j,0.6339010000228882,156.40365999983624,156.40365999983624,156.40365999983624,156.40365999983624,156.40365999983624,156.40365999983624,156.69637989997864,156.69637989997864,157.62713329982944,157.62713329982944,157.62713329982944,157.62713329982944,157.62713329982944,157.62713329982944,157.62713329982944,157.62713329982944,157.62713329982944,157.62713329982944,157.62713329982944,157.62713329982944,157.62713329982944,157.62713329982944,157.62713329982944,157.62713329982944,157.62713329982944,,,,,,62,56,63,46,46,48,None,None,,,[],[],[],[],[],[],[],-0.2,1,80,[0.023148148148148147],[-0.25092592592592594],[1],[0],[0],[4.584270399995148],['tijiao_random_2'],2.9537037037037037,2.368961500003934,167.13339470000938,169.0793145999778,160.14754619984888,160.14754619984888,160.14754619984888,160.14754619984888,160.14754619984888,160.14754619984888,160.14754619984888,160.14754619984888,0.006670299917459488,160.14754619984888,164.74692429997958,164.74692429997958,164.74692429997958,164.74692429997958,,,,,,,,,,,,,,271,f,22,2023-04-04_11h08.39.374,RL,2022.2.4,60.234613826211564,
1,-0.3,-0.225,0,4,4,4,,,,,,,,,,None,169.0793145999778,169.0793145999778,169.0793145999778,169.0793145999778,169.0793145999778,169.0793145999778,f,0.5087021000217646,169.61250199982896,169.61250199982896,169.61250199982896,169.61250199982896,169.61250199982896,169.61250199982896,169.91029469994828,169.91029469994828,171.8219200000167,171.8219200000167,171.83844289998524,171.83844289998524,171.83844289998524,171.83844289998524,171.83844289998524,171.83844289998524,171.83844289998524,171.83844289998524,171.83844289998524,171.83844289998524,171.83844289998524,171.83844289998524,171.83844289998524,171.83844289998524,171.83844289998524,,,,,,55,48,66,48,48,60,None,None,80,80,[0.08425925925925926],[-0.3],[1],[0],[0],[5.0263680999632925],['tijiao'],-0.2,0,,[],[],[],[],[],[],[],1.888888888888889,2.3951339998748153,181.8100945998449,183.6559350998141,,,,,,,,,,,179.3965686999727,179.3965686999727,179.3965686999727,179.3965686999727,174.34932739986107,174.34932739986107,174.34932739986107,174.34932739986107,174.34932739986107,174.34932739986107,174.34932739986107,174.34932739986107,0.006118299905210733,174.34932739986107,,,,271,f,22,2023-04-04_11h08.39.374,RL,2022.2.4,60.234613826211564,
0,0.3,0.225,0,5,5,5,,,,,,,,,,None,183.6559350998141,183.6559350998141,183.6559350998141,183.6559350998141,183.6559350998141,183.6559350998141,f,0.7109421000350267,184.38873069989495,184.38873069989495,184.38873069989495,184.38873069989495,184.38873069989495,184.38873069989495,184.68658820004202,184.68658820004202,186.68129329988733,186.68129329988733,186.68129329988733,186.68129329988733,186.68129329988733,186.68129329988733,186.68129329988733,186.68129329988733,186.68129329988733,186.68129329988733,186.68129329988733,186.68129329988733,186.68129329988733,186.68129329988733,186.68129329988733,186.68129329988733,186.68129329988733,189.19016549992375,189.19016549992375,189.19016549992375,189.19016549992375,189.19016549992375,55,54,57,34,54,50,4.0,2.7254255001898855,,,[],[],[],[],[],[],[],0.2,2,,[],[],[],[],[],[],[],None,None,191.9419018998742,193.74510139995255,,,,,,,,,,,,,,,,,,,,,,,,,,,,271,f,22,2023-04-04_11h08.39.374,RL,2022.2.4,60.234613826211564,
1,-0.3,-0.225,0,6,6,6,,,,,,,,,,None,193.74510139995255,193.74510139995255,193.74510139995255,193.74510139995255,193.74510139995255,193.74510139995255,f,0.6571245999075472,194.42766659986228,194.42766659986228,194.42766659986228,194.42766659986228,194.42766659986228,194.42766659986228,194.7255003999453,194.7255003999453,196.38819389999844,196.38819389999844,196.4046096999664,196.4046096999664,196.4046096999664,196.4046096999664,196.4046096999664,196.4046096999664,196.4046096999664,196.4046096999664,196.4046096999664,196.4046096999664,196.4046096999664,196.4046096999664,196.4046096999664,196.4046096999664,196.4046096999664,,,,,,52,54,50,27,54,55,None,None,,,[],[],[],[],[],[],[],0.2,1,50,[-0.08796296296296297],[-0.2953703703703704],[1],[0],[0],[4.800049799960107],['tijiao_random_2'],3.935185185185185,1.4552531999070197,205.21303949994035,207.0589181999676,198.92497329995967,198.92497329995967,198.92497329995967,198.92497329995967,198.92497329995967,198.92497329995967,198.92497329995967,198.92497329995967,0.006259700050577521,198.92497329995967,203.74076709989458,203.74076709989458,203.74076709989458,203.74076709989458,,,,,,,,,,,,,,271,f,22,2023-04-04_11h08.39.374,RL,2022.2.4,60.234613826211564,
0,0.3,0.225,0,7,7,7,,,,,,,,,,None,207.0589181999676,207.0589181999676,207.0589181999676,207.0589181999676,207.0589181999676,207.0589181999676,r,0.5753589000087231,207.6591083998792,207.6591083998792,207.6591083998792,207.6591083998792,207.6591083998792,207.6591083998792,207.95642669987865,207.95642669987865,209.83472759998403,209.83472759998403,209.83472759998403,209.83472759998403,209.83472759998403,209.83472759998403,209.83472759998403,209.83472759998403,209.83472759998403,209.83472759998403,209.83472759998403,209.83472759998403,209.83472759998403,209.83472759998403,209.83472759998403,209.83472759998403,209.83472759998403,,,,,,52,50,63,27,52,57,None,None,,,[],[],[],[],[],[],[],-0.6,1,60,[0.01574074074074074],[-0.3314814814814815],[1],[0],[0],[3.586073199985549],['tijiao_random_2'],3.037037037037037,1.50556750013493,217.4796851000283,219.4416245999746,212.35659949993715,212.35659949993715,212.35659949993715,212.35659949993715,212.35659949993715,212.35659949993715,212.35659949993715,212.35659949993715,0.0067720001097768545,212.35659949993715,215.95575059996918,215.95575059996918,215.95575059996918,215.95575059996918,,,,,,,,,,,,,,271,f,22,2023-04-04_11h08.39.374,RL,2022.2.4,60.234613826211564,
1,-0.3,-0.225,0,8,8,8,,,,,,,,,,None,219.4416245999746,219.4416245999746,219.4416245999746,219.4416245999746,219.4416245999746,219.4416245999746,r,0.5997739001177251,220.07400699984282,220.07400699984282,220.07400699984282,220.07400699984282,220.07400699984282,220.07400699984282,220.37274140003137,220.37274140003137,221.40322549990378,221.40322549990378,221.40322549990378,221.40322549990378,221.40322549990378,221.40322549990378,221.40322549990378,221.40322549990378,221.40322549990378,221.40322549990378,221.40322549990378,221.40322549990378,221.40322549990378,221.40322549990378,221.40322549990378,221.40322549990378,221.40322549990378,223.9122244999744,223.9122244999744,223.9122244999744,223.9122244999744,223.9122244999744,56,44,72,29,56,46,4.0,2.1437963999342173,,,[],[],[],[],[],[],[],-0.2,2,,[],[],[],[],[],[],[],None,None,226.0824500999879,227.96830239985138,,,,,,,,,,,,,,,,,,,,,,,,,,,,271,f,22,2023-04-04_11h08.39.374,RL,2022.2.4,60.234613826211564,
0,0.3,0.225,0,9,9,9,,,,,,,,,,None,227.96830239985138,227.96830239985138,227.96830239985138,227.96830239985138,227.96830239985138,227.96830239985138,j,0.7793535001110286,228.76801909995265,228.76801909995265,228.76801909995265,228.76801909995265,228.76801909995265,228.76801909995265,229.0657034998294,229.0657034998294,230.6443099998869,230.6443099998869,230.66116070002317,230.66116070002317,230.66116070002317,230.66116070002317,230.66116070002317,230.66116070002317,230.66116070002317,230.66116070002317,230.66116070002317,230.66116070002317,230.66116070002317,230.66116070002317,230.66116070002317,230.66116070002317,230.66116070002317,,,,,,50,48,59,38,38,66,None,None,,,[],[],[],[],[],[],[],-0.2,1,30,[-0.06666666666666667],[-0.2777777777777778],[1],[0],[0],[4.783432499971241],['tijiao_random_2'],2.7407407407407405,1.6888628001324832,239.685406900011,241.43126099999063,233.18226629984565,233.18226629984565,233.18226629984565,233.18226629984565,233.18226629984565,233.18226629984565,233.18226629984565,233.18226629984565,0.006314799888059497,233.18226629984565,237.97814489994198,237.97814489994198,237.97814489994198,237.97814489994198,,,,,,,,,,,,,,271,f,22,2023-04-04_11h08.39.374,RL,2022.2.4,60.234613826211564,
1,-0.3,-0.225,0,10,10,10,,,,,,,,,,None,241.43126099999063,241.43126099999063,241.43126099999063,241.43126099999063,241.43126099999063,241.43126099999063,i,0.8290299000218511,242.28144149994478,242.28144149994478,242.28144149994478,242.28144149994478,242.28144149994478,242.28144149994478,242.57881550001912,242.57881550001912,244.17456929991022,244.17456929991022,244.17456929991022,244.17456929991022,244.17456929991022,244.17456929991022,244.17456929991022,244.17456929991022,244.17456929991022,244.17456929991022,244.17456929991022,244.17456929991022,244.17456929991022,244.17456929991022,244.17456929991022,244.17456929991022,244.17456929991022,246.68364029983059,246.68364029983059,246.68364029983059,246.68364029983059,246.68364029983059,48,61,63,35,63,60,4.0,2.0443790999706835,,,[],[],[],[],[],[],[],-0.6,3,,[],[],[],[],[],[],[],None,None,248.75505000003614,250.44037689990364,,,,,,,,,,,,,,,,,,,,,,,,,,,,271,f,22,2023-04-04_11h08.39.374,RL,2022.2.4,60.234613826211564,
0,0.3,0.225,0,11,11,11,,,,,,,,,,None,250.44037689990364,250.44037689990364,250.44037689990364,250.44037689990364,250.44037689990364,250.44037689990364,i,1.092216899851337,251.5558070000261,251.5558070000261,251.5558070000261,251.5558070000261,251.5558070000261,251.5558070000261,251.8537853998132,251.8537853998132,253.13332929997705,253.13332929997705,253.13332929997705,253.13332929997705,253.13332929997705,253.13332929997705,253.13332929997705,253.13332929997705,253.13332929997705,253.13332929997705,253.13332929997705,253.13332929997705,253.13332929997705,253.13332929997705,253.13332929997705,253.13332929997705,253.13332929997705,255.64252829994075,255.64252829994075,255.64252829994075,255.64252829994075,255.64252829994075,44,57,59,33,59,61,4.0,1.5945749001111835,,,[],[],[],[],[],[],[],0.2,3,,[],[],[],[],[],[],[],None,None,257.26263579982333,259.00059519987553,,,,,,,,,,,,,,,,,,,,,,,,,,,,271,f,22,2023-04-04_11h08.39.374,RL,2022.2.4,60.234613826211564,
1,-0.3,-0.225,0,12,12,12,,,,,,,,,,None,259.00059519987553,259.00059519987553,259.00059519987553,259.00059519987553,259.00059519987553,259.00059519987553,i,0.5275771000888199,259.54970399988815,259.54970399988815,259.54970399988815,259.54970399988815,259.54970399988815,259.54970399988815,259.84831579984166,259.84831579984166,261.61036159982905,261.61036159982905,261.61036159982905,261.61036159982905,261.61036159982905,261.61036159982905,261.61036159982905,261.61036159982905,261.61036159982905,261.61036159982905,261.61036159982905,261.61036159982905,261.61036159982905,261.61036159982905,261.61036159982905,261.61036159982905,261.61036159982905,264.11938339984044,264.11938339984044,264.11938339984044,264.11938339984044,264.11938339984044,52,50,59,33,59,62,4.0,1.943997499998659,,,[],[],[],[],[],[],[],0.2,2,,[],[],[],[],[],[],[],None,None,266.0913721998222,268.0259614000097,,,,,,,,,,,,,,,,,,,,,,,,,,,,271,f,22,2023-04-04_11h08.39.374,RL,2022.2.4,60.234613826211564,
0,0.3,0.225,0,13,13,13,,,,,,,,,,None,268.0259614000097,268.0259614000097,268.0259614000097,268.0259614000097,268.0259614000097,268.0259614000097,r,0.4236143999733031,268.47613619989716,268.47613619989716,268.47613619989716,268.47613619989716,268.47613619989716,268.47613619989716,268.7741550998762,268.7741550998762,269.9042432999704,269.9042432999704,269.9042432999704,269.9042432999704,269.9042432999704,269.9042432999704,269.9042432999704,269.9042432999704,269.9042432999704,269.9042432999704,269.9042432999704,269.9042432999704,269.9042432999704,269.9042432999704,269.9042432999704,269.9042432999704,269.9042432999704,,,,,,49,54,53,29,49,56,None,None,,,[],[],[],[],[],[],[],0.6,1,30,[0.09814814814814815],[-0.30648148148148147],[1],[0],[0],[4.734167000046],['tijiao_random_2'],3.7777777777777777,1.7056127998512238,278.8951373999007,280.82411529985256,272.4241428000387,272.4241428000387,272.4241428000387,272.4241428000387,272.4241428000387,272.4241428000387,272.4241428000387,272.4241428000387,0.006784799974411726,272.4241428000387,277.17095889989287,277.17095889989287,277.17095889989287,277.17095889989287,,,,,,,,,,,,,,271,f,22,2023-04-04_11h08.39.374,RL,2022.2.4,60.234613826211564,
1,-0.3,-0.225,0,14,14,14,,,,,,,,,,None,280.82411529985256,280.82411529985256,280.82411529985256,280.82411529985256,280.82411529985256,280.82411529985256,j,0.5022056999150664,281.3569012999069,281.3569012999069,281.3569012999069,281.3569012999069,281.3569012999069,281.3569012999069,281.655644999817,281.655644999817,282.63620109995827,282.63620109995827,282.63620109995827,282.63620109995827,282.63620109995827,282.63620109995827,282.63620109995827,282.63620109995827,282.63620109995827,282.63620109995827,282.63620109995827,282.63620109995827,282.63620109995827,282.63620109995827,282.63620109995827,282.63620109995827,282.63620109995827,285.145485999994,285.145485999994,285.145485999994,285.145485999994,285.145485999994,45,51,59,39,39,48,4.0,1.8613403998315334,,,[],[],[],[],[],[],[],0.2,2,,[],[],[],[],[],[],[],None,None,287.0332376998849,288.80241729994304,,,,,,,,,,,,,,,,,,,,,,,,,,,,271,f,22,2023-04-04_11h08.39.374,RL,2022.2.4,60.234613826211564,
0,0.3,0.225,0,15,15,15,,,,,,,,,,None,288.80241729994304,288.80241729994304,288.80241729994304,288.80241729994304,288.80241729994304,288.80241729994304,j,0.6217275001108646,289.450988400029,289.450988400029,289.450988400029,289.450988400029,289.450988400029,289.450988400029,289.7504147000145,289.7504147000145,291.31263359985314,291.31263359985314,291.31263359985314,291.31263359985314,291.31263359985314,291.31263359985314,291.31263359985314,291.31263359985314,291.31263359985314,291.31263359985314,291.31263359985314,291.31263359985314,291.31263359985314,291.31263359985314,291.31263359985314,291.31263359985314,291.31263359985314,293.82162219984457,293.82162219984457,293.82162219984457,293.82162219984457,293.82162219984457,41,56,59,37,37,69,3.0,2.0437621001619846,,,[],[],[],[],[],[],[],0.6,2,,[],[],[],[],[],[],[],None,None,295.8932238998823,297.877759099938,,,,,,,,,,,,,,,,,,,,,,,,,,,,271,f,22,2023-04-04_11h08.39.374,RL,2022.2.4,60.234613826211564,
1,-0.3,-0.225,0,16,16,16,,,,,,,,,,None,297.877759099938,297.877759099938,297.877759099938,297.877759099938,297.877759099938,297.877759099938,r,0.5225754000712186,298.42651379993185,298.42651379993185,298.42651379993185,298.42651379993185,298.42651379993185,298.42651379993185,298.7257764998358,298.7257764998358,299.6230969999451,299.6230969999451,299.6230969999451,299.6230969999451,299.6230969999451,299.6230969999451,299.6230969999451,299.6230969999451,299.6230969999451,299.6230969999451,299.6230969999451,299.6230969999451,299.6230969999451,299.6230969999451,299.6230969999451,299.6230969999451,299.6230969999451,302.1322732998524,302.1322732998524,302.1322732998524,302.1322732998524,302.1322732998524,50,57,63,33,50,59,2.0,2.1765670999884605,,,[],[],[],[],[],[],[],0.2,2,,[],[],[],[],[],[],[],None,None,304.33432779996656,306.0387033999432,,,,,,,,,,,,,,,,,,,,,,,,,,,,271,f,22,2023-04-04_11h08.39.374,RL,2022.2.4,60.234613826211564,
0,0.3,0.225,0,17,17,17,,,,,,,,,,None,306.0387033999432,306.0387033999432,306.0387033999432,306.0387033999432,306.0387033999432,306.0387033999432,r,0.45924229989759624,306.5211349998135,306.5211349998135,306.5211349998135,306.5211349998135,306.5211349998135,306.5211349998135,306.8202146999538,306.8202146999538,308.3327428998891,308.3327428998891,308.3327428998891,308.3327428998891,308.3327428998891,308.3327428998891,308.3327428998891,308.3327428998891,308.3327428998891,308.3327428998891,308.3327428998891,308.3327428998891,308.3327428998891,308.3327428998891,308.3327428998891,308.3327428998891,308.3327428998891,,,,,,41,64,49,25,41,69,None,None,45,45,[0.11944444444444445],[-0.26851851851851855],[1],[0],[0],[6.139804200036451],['tijiao'],0.6,0,,[],[],[],[],[],[],[],3.8888888888888884,2.11213959986344,319.13524769991636,320.7320888999384,,,,,,,,,,,317.0048054000363,317.0048054000363,317.0048054000363,317.0048054000363,310.8431991999969,310.8431991999969,310.8431991999969,310.8431991999969,310.8431991999969,310.8431991999969,310.8431991999969,310.8431991999969,0.006334699923172593,310.8431991999969,,,,271,f,22,2023-04-04_11h08.39.374,RL,2022.2.4,60.234613826211564,
1,-0.3,-0.225,0,18,18,18,,,,,,,,,,None,320.7320888999384,320.7320888999384,320.7320888999384,320.7320888999384,320.7320888999384,320.7320888999384,r,0.44932139990851283,321.21465809992515,321.21465809992515,321.21465809992515,321.21465809992515,321.21465809992515,321.21465809992515,321.51368109998293,321.51368109998293,323.25856320001185,323.25856320001185,323.25856320001185,323.25856320001185,323.25856320001185,323.25856320001185,323.25856320001185,323.25856320001185,323.25856320001185,323.25856320001185,323.25856320001185,323.25856320001185,323.25856320001185,323.25856320001185,323.25856320001185,323.25856320001185,323.25856320001185,325.7676148999017,325.7676148999017,325.7676148999017,325.7676148999017,325.7676148999017,35,55,50,27,35,64,2.0,2.0441845001187176,,,[],[],[],[],[],[],[],0.2,2,,[],[],[],[],[],[],[],None,None,327.83695159992203,329.52464459999464,,,,,,,,,,,,,,,,,,,,,,,,,,,,271,f,22,2023-04-04_11h08.39.374,RL,2022.2.4,60.234613826211564,
0,0.3,0.225,0,19,19,19,,,,,,,,,,None,329.52464459999464,329.52464459999464,329.52464459999464,329.52464459999464,329.52464459999464,329.52464459999464,f,0.43312090006656945,329.9907944998704,329.9907944998704,329.9907944998704,329.9907944998704,329.9907944998704,329.9907944998704,330.289415899897,330.289415899897,331.70247669983655,331.70247669983655,331.70247669983655,331.70247669983655,331.70247669983655,331.70247669983655,331.70247669983655,331.70247669983655,331.70247669983655,331.70247669983655,331.70247669983655,331.70247669983655,331.70247669983655,331.70247669983655,331.70247669983655,331.70247669983655,331.70247669983655,,,,,,29,61,49,33,61,52,None,None,80,80,[-0.012037037037037037],[-0.2851851851851852],[1],[0],[0],[5.358061400009319],['tijiao'],-0.2,0,,[],[],[],[],[],[],[],5.6759259259259265,1.4310661999043077,341.04262889991514,342.7217909998726,,,,,,,,,,,339.59367639990523,339.59367639990523,339.59367639990523,339.59367639990523,334.21399619989097,334.21399619989097,334.21399619989097,334.21399619989097,334.21399619989097,334.21399619989097,334.21399619989097,334.21399619989097,0.007308000000193715,334.21399619989097,,,,271,f,22,2023-04-04_11h08.39.374,RL,2022.2.4,60.234613826211564,
1,-0.3,-0.225,0,20,20,20,,,,,,,,,,None,342.7217909998726,342.7217909998726,342.7217909998726,342.7217909998726,342.7217909998726,342.7217909998726,f,0.36816349998116493,343.1214999000076,343.1214999000076,343.1214999000076,343.1214999000076,343.1214999000076,343.1214999000076,343.4202793999575,343.4202793999575,344.301249000011,344.301249000011,344.301249000011,344.301249000011,344.301249000011,344.301249000011,344.301249000011,344.301249000011,344.301249000011,344.301249000011,344.301249000011,344.301249000011,344.301249000011,344.301249000011,344.301249000011,344.301249000011,344.301249000011,346.81036949995905,346.81036949995905,346.81036949995905,346.81036949995905,346.81036949995905,28,62,45,34,62,61,4.0,2.5255435998551548,,,[],[],[],[],[],[],[],0.6,3,,[],[],[],[],[],[],[],None,None,349.36258179997094,351.3152608999517,,,,,,,,,,,,,,,,,,,,,,,,,,,,271,f,22,2023-04-04_11h08.39.374,RL,2022.2.4,60.234613826211564,
0,0.3,0.225,0,21,21,21,,,,,,,,,,None,351.3152608999517,351.3152608999517,351.3152608999517,351.3152608999517,351.3152608999517,351.3152608999517,f,1.195231500081718,352.5297614999581,352.5297614999581,352.5297614999581,352.5297614999581,352.5297614999581,352.5297614999581,352.8282408998348,352.8282408998348,354.1408549998887,354.1408549998887,354.1408549998887,354.1408549998887,354.1408549998887,354.1408549998887,354.1408549998887,354.1408549998887,354.1408549998887,354.1408549998887,354.1408549998887,354.1408549998887,354.1408549998887,354.1408549998887,354.1408549998887,354.1408549998887,354.1408549998887,356.65030739991926,356.65030739991926,356.65030739991926,356.65030739991926,356.65030739991926,41,56,51,31,56,63,3.0,2.3098542999941856,,,[],[],[],[],[],[],[],0.6,3,,[],[],[],[],[],[],[],None,None,358.9861776998732,360.7894267998636,,,,,,,,,,,,,,,,,,,,,,,,,,,,271,f,22,2023-04-04_11h08.39.374,RL,2022.2.4,60.234613826211564,
1,-0.3,-0.225,0,22,22,22,,,,,,,,,,None,360.7894267998636,360.7894267998636,360.7894267998636,360.7894267998636,360.7894267998636,360.7894267998636,i,0.8622024999931455,361.6712938998826,361.6712938998826,361.6712938998826,361.6712938998826,361.6712938998826,361.6712938998826,361.96945669990964,361.96945669990964,362.9666567000095,362.9666567000095,362.98353419988416,362.98353419988416,362.98353419988416,362.98353419988416,362.98353419988416,362.98353419988416,362.98353419988416,362.98353419988416,362.98353419988416,362.98353419988416,362.98353419988416,362.98353419988416,362.98353419988416,362.98353419988416,362.98353419988416,365.49229309987277,365.49229309987277,365.49229309987277,365.49229309987277,365.49229309987277,39,50,45,39,45,55,4.0,2.3596441000699997,,,[],[],[],[],[],[],[],0.6,3,,[],[],[],[],[],[],[],None,None,367.8773825999815,369.8479971999768,,,,,,,,,,,,,,,,,,,,,,,,,,,,271,f,22,2023-04-04_11h08.39.374,RL,2022.2.4,60.234613826211564,
0,0.3,0.225,0,23,23,23,,,,,,,,,,None,369.8479971999768,369.8479971999768,369.8479971999768,369.8479971999768,369.8479971999768,369.8479971999768,i,1.1897850998211652,371.0633382999804,371.0633382999804,371.0633382999804,371.0633382999804,371.0633382999804,371.0633382999804,371.3609120999463,371.3609120999463,372.6905345998239,372.6905345998239,372.6905345998239,372.6905345998239,372.6905345998239,372.6905345998239,372.6905345998239,372.6905345998239,372.6905345998239,372.6905345998239,372.6905345998239,372.6905345998239,372.6905345998239,372.6905345998239,372.6905345998239,372.6905345998239,372.6905345998239,,,,,,37,59,46,44,46,61,None,None,40,40,[-0.03796296296296296],[-0.2657407407407407],[1],[0],[0],[7.169297500047833],['tijiao'],-0.2,0,,[],[],[],[],[],[],[],4.074074074074074,3.007937600137666,385.4210301998537,387.16730630001985,,,,,,,,,,,382.3949241999071,382.3949241999071,382.3949241999071,382.3949241999071,375.20402830000967,375.20402830000967,375.20402830000967,375.20402830000967,375.20402830000967,375.20402830000967,375.20402830000967,375.20402830000967,0.008594900136813521,375.20402830000967,,,,271,f,22,2023-04-04_11h08.39.374,RL,2022.2.4,60.234613826211564,
1,-0.3,-0.225,0,24,24,24,,,,,,,,,,None,387.16730630001985,387.16730630001985,387.16730630001985,387.16730630001985,387.16730630001985,387.16730630001985,r,0.5602045999839902,387.74947049980983,387.74947049980983,387.74947049980983,387.74947049980983,387.74947049980983,387.74947049980983,388.04864009981975,388.04864009981975,389.228652899852,389.228652899852,389.228652899852,389.228652899852,389.228652899852,389.228652899852,389.228652899852,389.228652899852,389.228652899852,389.228652899852,389.228652899852,389.228652899852,389.228652899852,389.228652899852,389.228652899852,389.228652899852,389.228652899852,,,,,,32,58,52,33,32,58,None,None,50,50,[-0.005555555555555556],[-0.29074074074074074],[1],[0],[0],[4.06143550015986],['tijiao'],0.6,0,,[],[],[],[],[],[],[],1,2.875270899850875,398.71832269988954,400.59736549993977,,,,,,,,,,,395.8243785998784,395.8243785998784,395.8243785998784,395.8243785998784,391.74033609987237,391.74033609987237,391.74033609987237,391.74033609987237,391.74033609987237,391.74033609987237,391.74033609987237,391.74033609987237,0.007543700048699975,391.74033609987237,,,,271,f,22,2023-04-04_11h08.39.374,RL,2022.2.4,60.234613826211564,
0,0.3,0.225,0,25,25,25,,,,,,,,,,None,400.59736549993977,400.59736549993977,400.59736549993977,400.59736549993977,400.59736549993977,400.59736549993977,r,0.39086370007134974,401.01356179988943,401.01356179988943,401.01356179988943,401.01356179988943,401.01356179988943,401.01356179988943,401.3124750999268,401.3124750999268,403.1071964998264,403.1071964998264,403.1071964998264,403.1071964998264,403.1071964998264,403.1071964998264,403.1071964998264,403.1071964998264,403.1071964998264,403.1071964998264,403.1071964998264,403.1071964998264,403.1071964998264,403.1071964998264,403.1071964998264,403.1071964998264,403.1071964998264,405.61628069984727,405.61628069984727,405.61628069984727,405.61628069984727,405.61628069984727,36,57,57,39,36,53,2.0,1.8608876001089811,,,[],[],[],[],[],[],[],0.2,3,,[],[],[],[],[],[],[],None,None,407.50537879997864,409.4733831998892,,,,,,,,,,,,,,,,,,,,,,,,,,,,271,f,22,2023-04-04_11h08.39.374,RL,2022.2.4,60.234613826211564,
1,-0.3,-0.225,0,26,26,26,,,,,,,,,,None,409.4733831998892,409.4733831998892,409.4733831998892,409.4733831998892,409.4733831998892,409.4733831998892,r,0.526510399999097,410.02394660003483,410.02394660003483,410.02394660003483,410.02394660003483,410.02394660003483,410.02394660003483,410.32122849998996,410.32122849998996,412.01648099999875,412.01648099999875,412.0329461998772,412.0329461998772,412.0329461998772,412.0329461998772,412.0329461998772,412.0329461998772,412.0329461998772,412.0329461998772,412.0329461998772,412.0329461998772,412.0329461998772,412.0329461998772,412.0329461998772,412.0329461998772,412.0329461998772,414.5421209000051,414.5421209000051,414.5421209000051,414.5421209000051,414.5421209000051,40,55,55,42,40,58,3.0,2.143853599904105,,,[],[],[],[],[],[],[],-0.6,3,,[],[],[],[],[],[],[],None,None,416.71255699987523,418.6482050998602,,,,,,,,,,,,,,,,,,,,,,,,,,,,271,f,22,2023-04-04_11h08.39.374,RL,2022.2.4,60.234613826211564,
0,0.3,0.225,0,27,27,27,,,,,,,,,,None,418.6482050998602,418.6482050998602,418.6482050998602,418.6482050998602,418.6482050998602,418.6482050998602,f,0.5866064999718219,419.2662353999913,419.2662353999913,419.2662353999913,419.2662353999913,419.2662353999913,419.2662353999913,419.56232489994727,419.56232489994727,420.37689649988897,420.37689649988897,420.3931899999734,420.3931899999734,420.3931899999734,420.3931899999734,420.3931899999734,420.3931899999734,420.3931899999734,420.3931899999734,420.3931899999734,420.3931899999734,420.3931899999734,420.3931899999734,420.3931899999734,420.3931899999734,420.3931899999734,,,,,,37,53,52,43,53,49,None,None,50,50,[0.044444444444444446],[-0.30648148148148147],[1],[0],[0],[3.5136080998927355],['tijiao'],-0.2,0,,[],[],[],[],[],[],[],3.953703703703704,1.1674121001269668,427.62260459992103,429.33568000001833,,,,,,,,,,,426.4396603999194,426.4396603999194,426.4396603999194,426.4396603999194,422.9036897998303,422.9036897998303,422.9036897998303,422.9036897998303,422.9036897998303,422.9036897998303,422.9036897998303,422.9036897998303,0.006478199968114495,422.9036897998303,,,,271,f,22,2023-04-04_11h08.39.374,RL,2022.2.4,60.234613826211564,
1,-0.3,-0.225,0,28,28,28,,,,,,,,,,None,429.33568000001833,429.33568000001833,429.33568000001833,429.33568000001833,429.33568000001833,429.33568000001833,f,0.3094299000222236,429.6684216998983,429.6684216998983,429.6684216998983,429.6684216998983,429.6684216998983,429.6684216998983,429.96741499984637,429.96741499984637,430.9148424998857,430.9148424998857,430.9312060000375,430.9312060000375,430.9312060000375,430.9312060000375,430.9312060000375,430.9312060000375,430.9312060000375,430.9312060000375,430.9312060000375,430.9312060000375,430.9312060000375,430.9312060000375,430.9312060000375,430.9312060000375,430.9312060000375,433.44064159994014,433.44064159994014,433.44064159994014,433.44064159994014,433.44064159994014,33,49,56,39,49,60,3.0,1.7778080001007766,,,[],[],[],[],[],[],[],-0.6,3,,[],[],[],[],[],[],[],None,None,435.2458267000038,436.94822529982775,,,,,,,,,,,,,,,,,,,,,,,,,,,,271,f,22,2023-04-04_11h08.39.374,RL,2022.2.4,60.234613826211564,
0,0.3,0.225,0,29,29,29,,,,,,,,,,None,436.94822529982775,436.94822529982775,436.94822529982775,436.94822529982775,436.94822529982775,436.94822529982775,f,0.40410919999703765,437.38106569997035,437.38106569997035,437.38106569997035,437.38106569997035,437.38106569997035,437.38106569997035,437.6795756998472,437.6795756998472,438.8266566998791,438.8266566998791,438.8266566998791,438.8266566998791,438.8266566998791,438.8266566998791,438.8266566998791,438.8266566998791,438.8266566998791,438.8266566998791,438.8266566998791,438.8266566998791,438.8266566998791,438.8266566998791,438.8266566998791,438.8266566998791,438.8266566998791,,,,,,29,55,49,38,55,55,None,None,,,[],[],[],[],[],[],[],-0.2,1,60,[-0.046296296296296294],[-0.3148148148148148],[1],[0],[0],[3.5045570998918265],['tijiao_random_2'],6.027777777777778,1.2897264000494033,446.1723982000258,447.7853915998712,441.3462411998771,441.3462411998771,441.3462411998771,441.3462411998771,441.3462411998771,441.3462411998771,441.3462411998771,441.3462411998771,0.007122199982404709,441.3462411998771,444.86439360002987,444.86439360002987,444.86439360002987,444.86439360002987,,,,,,,,,,,,,,271,f,22,2023-04-04_11h08.39.374,RL,2022.2.4,60.234613826211564,
1,-0.3,-0.225,0,30,30,30,,,,,,,,,,None,447.7853915998712,447.7853915998712,447.7853915998712,447.7853915998712,447.7853915998712,447.7853915998712,f,0.37162630003876984,448.18775519984774,448.18775519984774,448.18775519984774,448.18775519984774,448.18775519984774,448.18775519984774,448.483586399816,448.483586399816,450.4615260998253,450.4615260998253,450.4615260998253,450.4615260998253,450.4615260998253,450.4615260998253,450.4615260998253,450.4615260998253,450.4615260998253,450.4615260998253,450.4615260998253,450.4615260998253,450.4615260998253,450.4615260998253,450.4615260998253,450.4615260998253,450.4615260998253,452.9707367999945,452.9707367999945,452.9707367999945,452.9707367999945,452.9707367999945,28,52,61,35,52,44,4.0,1.0300098999869078,,,[],[],[],[],[],[],[],-0.2,3,,[],[],[],[],[],[],[],None,None,454.02858139993623,455.58072039997205,,,,,,,,,,,,,,,,,,,,,,,,,,,,271,f,22,2023-04-04_11h08.39.374,RL,2022.2.4,60.234613826211564,
0,0.3,0.225,0,31,31,31,,,,,,,,,,None,455.58072039997205,455.58072039997205,455.58072039997205,455.58072039997205,455.58072039997205,455.58072039997205,f,0.602881999919191,456.2145509000402,456.2145509000402,456.2145509000402,456.2145509000402,456.2145509000402,456.2145509000402,456.51189480000176,456.51189480000176,458.45669319992885,458.45669319992885,458.45669319992885,458.45669319992885,458.45669319992885,458.45669319992885,458.45669319992885,458.45669319992885,458.45669319992885,458.45669319992885,458.45669319992885,458.45669319992885,458.45669319992885,458.45669319992885,458.45669319992885,458.45669319992885,458.45669319992885,460.9652897999622,460.9652897999622,460.9652897999622,460.9652897999622,460.9652897999622,30,47,55,37,47,33,4.0,1.245838499860838,,,[],[],[],[],[],[],[],0.6,2,,[],[],[],[],[],[],[],None,None,462.23825569986366,464.0575794999022,,,,,,,,,,,,,,,,,,,,,,,,,,,,271,f,22,2023-04-04_11h08.39.374,RL,2022.2.4,60.234613826211564,
1,-0.3,-0.225,0,32,32,32,,,,,,,,,,None,464.0575794999022,464.0575794999022,464.0575794999022,464.0575794999022,464.0575794999022,464.0575794999022,f,0.5123800998553634,464.59011909994297,464.59011909994297,464.59011909994297,464.59011909994297,464.59011909994297,464.59011909994297,464.88879360002466,464.88879360002466,466.16846670000814,466.16846670000814,466.16846670000814,466.16846670000814,466.16846670000814,466.16846670000814,466.16846670000814,466.16846670000814,466.16846670000814,466.16846670000814,466.16846670000814,466.16846670000814,466.16846670000814,466.16846670000814,466.16846670000814,466.16846670000814,466.16846670000814,468.6777518999297,468.6777518999297,468.6777518999297,468.6777518999297,468.6777518999297,28,54,54,34,54,48,4.0,1.5454533000010997,,,[],[],[],[],[],[],[],0.6,2,,[],[],[],[],[],[],[],None,None,470.25164629984647,472.2519848998636,,,,,,,,,,,,,,,,,,,,,,,,,,,,271,f,22,2023-04-04_11h08.39.374,RL,2022.2.4,60.234613826211564,
0,0.3,0.225,0,33,33,33,,,,,,,,,,None,472.2519848998636,472.2519848998636,472.2519848998636,472.2519848998636,472.2519848998636,472.2519848998636,f,0.46431299997493625,472.73536519985646,472.73536519985646,472.73536519985646,472.73536519985646,472.73536519985646,472.73536519985646,473.03304749983363,473.03304749983363,474.1471020998433,474.1471020998433,474.1471020998433,474.1471020998433,474.1471020998433,474.1471020998433,474.1471020998433,474.1471020998433,474.1471020998433,474.1471020998433,474.1471020998433,474.1471020998433,474.1471020998433,474.1471020998433,474.1471020998433,474.1471020998433,474.1471020998433,476.65579969994724,476.65579969994724,476.65579969994724,476.65579969994724,476.65579969994724,26,52,45,46,52,49,4.0,1.2131024000700563,,,[],[],[],[],[],[],[],-0.6,2,,[],[],[],[],[],[],[],None,None,477.8979311999865,479.531685099937,,,,,,,,,,,,,,,,,,,,,,,,,,,,271,f,22,2023-04-04_11h08.39.374,RL,2022.2.4,60.234613826211564,
1,-0.3,-0.225,0,34,34,34,,,,,,,,,,None,479.531685099937,479.531685099937,479.531685099937,479.531685099937,479.531685099937,479.531685099937,i,0.6467181001789868,480.19750749995,480.19750749995,480.19750749995,480.19750749995,480.19750749995,480.19750749995,480.4963829999324,480.4963829999324,481.67653789999895,481.67653789999895,481.67653789999895,481.67653789999895,481.67653789999895,481.67653789999895,481.67653789999895,481.67653789999895,481.67653789999895,481.67653789999895,481.67653789999895,481.67653789999895,481.67653789999895,481.67653789999895,481.67653789999895,481.67653789999895,481.67653789999895,,,,,,25,54,53,46,53,61,None,None,60,60,[0.10925925925925926],[-0.27685185185185185],[1],[0],[0],[5.391528399894014],['tijiao'],-0.6,0,,[],[],[],[],[],[],[],3.6481481481481484,1.6781796999275684,491.29876070003957,492.9954054998234,,,,,,,,,,,489.6026449999772,489.6026449999772,489.6026449999772,489.6026449999772,484.1878831998911,484.1878831998911,484.1878831998911,484.1878831998911,484.1878831998911,484.1878831998911,484.1878831998911,484.1878831998911,0.007041299948468804,484.1878831998911,,,,271,f,22,2023-04-04_11h08.39.374,RL,2022.2.4,60.234613826211564,
0,0.3,0.225,0,35,35,35,,,,,,,,,,None,492.9954054998234,492.9954054998234,492.9954054998234,492.9954054998234,492.9954054998234,492.9954054998234,i,0.6406341001857072,493.66241170000285,493.66241170000285,493.66241170000285,493.66241170000285,493.66241170000285,493.66241170000285,493.95961009990424,493.95961009990424,494.92365639982745,494.92365639982745,494.92365639982745,494.92365639982745,494.92365639982745,494.92365639982745,494.92365639982745,494.92365639982745,494.92365639982745,494.92365639982745,494.92365639982745,494.92365639982745,494.92365639982745,494.92365639982745,494.92365639982745,494.92365639982745,494.92365639982745,,,,,,21,52,52,47,52,44,None,None,,,[],[],[],[],[],[],[],0.2,1,60,[0.000925925925925926],[-0.2657407407407407],[1],[0],[0],[4.236378700006753],['tijiao_random_2'],3.2314814814814814,1.5044869999401271,503.21645729988813,504.9959780999925,497.442944600014,497.442944600014,497.442944600014,497.442944600014,497.442944600014,497.442944600014,497.442944600014,497.442944600014,0.006638400023803115,497.442944600014,501.6939524000045,501.6939524000045,501.6939524000045,501.6939524000045,,,,,,,,,,,,,,271,f,22,2023-04-04_11h08.39.374,RL,2022.2.4,60.234613826211564,
1,-0.3,-0.225,0,36,36,36,,,,,,,,,,None,504.9959780999925,504.9959780999925,504.9959780999925,504.9959780999925,504.9959780999925,504.9959780999925,i,0.42170289997011423,505.44687789981253,505.44687789981253,505.44687789981253,505.44687789981253,505.44687789981253,505.44687789981253,505.7442288999446,505.7442288999446,507.0738538999576,507.0738538999576,507.0738538999576,507.0738538999576,507.0738538999576,507.0738538999576,507.0738538999576,507.0738538999576,507.0738538999576,507.0738538999576,507.0738538999576,507.0738538999576,507.0738538999576,507.0738538999576,507.0738538999576,507.0738538999576,507.0738538999576,509.58250559982844,509.58250559982844,509.58250559982844,509.58250559982844,509.58250559982844,24,47,57,39,57,45,4.0,2.808315900154412,,,[],[],[],[],[],[],[],0.6,2,,[],[],[],[],[],[],[],None,None,512.4177580999676,514.0711542998906,,,,,,,,,,,,,,,,,,,,,,,,,,,,271,f,22,2023-04-04_11h08.39.374,RL,2022.2.4,60.234613826211564,
0,0.3,0.225,0,37,37,37,,,,,,,,,,None,514.0711542998906,514.0711542998906,514.0711542998906,514.0711542998906,514.0711542998906,514.0711542998906,i,0.5827405999880284,514.687422899995,514.687422899995,514.687422899995,514.687422899995,514.687422899995,514.687422899995,514.9857705000322,514.9857705000322,516.0326468998101,516.0326468998101,516.0326468998101,516.0326468998101,516.0326468998101,516.0326468998101,516.0326468998101,516.0326468998101,516.0326468998101,516.0326468998101,516.0326468998101,516.0326468998101,516.0326468998101,516.0326468998101,516.0326468998101,516.0326468998101,516.0326468998101,,,,,,23,54,59,38,59,60,None,None,61,61,[0.13703703703703704],[-0.28425925925925927],[1],[0],[0],[4.079183600144461],['tijiao'],0.6,0,,[],[],[],[],[],[],[],6.064814814814815,1.6460452999453992,524.3088703998365,526.187703799922,,,,,,,,,,,522.6443743000273,522.6443743000273,522.6443743000273,522.6443743000273,518.5430183999706,518.5430183999706,518.5430183999706,518.5430183999706,518.5430183999706,518.5430183999706,518.5430183999706,518.5430183999706,0.006400699960067868,518.5430183999706,,,,271,f,22,2023-04-04_11h08.39.374,RL,2022.2.4,60.234613826211564,
1,-0.3,-0.225,0,38,38,38,,,,,,,,,,None,526.187703799922,526.187703799922,526.187703799922,526.187703799922,526.187703799922,526.187703799922,i,0.41913000005297363,526.6380135000218,526.6380135000218,526.6380135000218,526.6380135000218,526.6380135000218,526.6380135000218,526.9359589999076,526.9359589999076,527.7671046999749,527.7671046999749,527.7671046999749,527.7671046999749,527.7671046999749,527.7671046999749,527.7671046999749,527.7671046999749,527.7671046999749,527.7671046999749,527.7671046999749,527.7671046999749,527.7671046999749,527.7671046999749,527.7671046999749,527.7671046999749,527.7671046999749,530.2762913999613,530.2762913999613,530.2762913999613,530.2762913999613,530.2762913999613,22,62,54,32,54,51,2.0,1.8774266000837088,,,[],[],[],[],[],[],[],0.6,3,,[],[],[],[],[],[],[],None,None,532.1799992998131,534.0995632999111,,,,,,,,,,,,,,,,,,,,,,,,,,,,271,f,22,2023-04-04_11h08.39.374,RL,2022.2.4,60.234613826211564,
0,0.3,0.225,0,39,39,39,,,,,,,,,,None,534.0995632999111,534.0995632999111,534.0995632999111,534.0995632999111,534.0995632999111,534.0995632999111,j,0.45478589995764196,534.5839658998884,534.5839658998884,534.5839658998884,534.5839658998884,534.5839658998884,534.5839658998884,534.8813451998867,534.8813451998867,536.2271363998298,536.2271363998298,536.2440029999707,536.2440029999707,536.2440029999707,536.2440029999707,536.2440029999707,536.2440029999707,536.2440029999707,536.2440029999707,536.2440029999707,536.2440029999707,536.2440029999707,536.2440029999707,536.2440029999707,536.2440029999707,536.2440029999707,538.7532481998205,538.7532481998205,538.7532481998205,538.7532481998205,538.7532481998205,25,56,59,42,42,54,2.0,1.7772687999531627,,,[],[],[],[],[],[],[],0.2,3,,[],[],[],[],[],[],[],None,None,540.5582909998484,542.1280035998207,,,,,,,,,,,,,,,,,,,,,,,,,,,,271,f,22,2023-04-04_11h08.39.374,RL,2022.2.4,60.234613826211564,
1,-0.3,-0.225,0,40,40,40,,,,,,,,,,None,542.1280035998207,542.1280035998207,542.1280035998207,542.1280035998207,542.1280035998207,542.1280035998207,r,0.4437824999913573,542.5963450998534,542.5963450998534,542.5963450998534,542.5963450998534,542.5963450998534,542.5963450998534,542.8927262998186,542.8927262998186,544.4051007998642,544.4051007998642,544.4051007998642,544.4051007998642,544.4051007998642,544.4051007998642,544.4051007998642,544.4051007998642,544.4051007998642,544.4051007998642,544.4051007998642,544.4051007998642,544.4051007998642,544.4051007998642,544.4051007998642,544.4051007998642,544.4051007998642,,,,,,25,59,49,44,25,57,None,None,10,10,[-0.012037037037037037],[-0.2898148148148148],[1],[0],[0],[3.5130437000188977],['tijiao'],0.2,0,,[],[],[],[],[],[],[],4.87037037037037,1.9462878999765962,552.4153981998097,554.278144299984,,,,,,,,,,,550.4507748999167,550.4507748999167,550.4507748999167,550.4507748999167,546.9169156998396,546.9169156998396,546.9169156998396,546.9169156998396,546.9169156998396,546.9169156998396,546.9169156998396,546.9169156998396,0.007711699930950999,546.9169156998396,,,,271,f,22,2023-04-04_11h08.39.374,RL,2022.2.4,60.234613826211564,
0,0.3,0.225,0,41,41,41,,,,,,,,,,None,554.278144299984,554.278144299984,554.278144299984,554.278144299984,554.278144299984,554.278144299984,r,0.42419429984875023,554.7277769998182,554.7277769998182,554.7277769998182,554.7277769998182,554.7277769998182,554.7277769998182,555.0263878998812,555.0263878998812,556.1232757999096,556.1232757999096,556.1232757999096,556.1232757999096,556.1232757999096,556.1232757999096,556.1232757999096,556.1232757999096,556.1232757999096,556.1232757999096,556.1232757999096,556.1232757999096,556.1232757999096,556.1232757999096,556.1232757999096,556.1232757999096,556.1232757999096,,,,,,24,57,59,37,24,47,None,None,20,20,[0.10833333333333334],[-0.3194444444444444],[1],[0],[0],[4.561328900046647],['tijiao'],0.6,0,,[],[],[],[],[],[],[],9.12037037037037,1.0657575000077486,564.2996852998622,566.1957588000223,,,,,,,,,,,563.2168429000303,563.2168429000303,563.2168429000303,563.2168429000303,558.6340726998169,558.6340726998169,558.6340726998169,558.6340726998169,558.6340726998169,558.6340726998169,558.6340726998169,558.6340726998169,0.006715199910104275,558.6340726998169,,,,271,f,22,2023-04-04_11h08.39.374,RL,2022.2.4,60.234613826211564,
1,-0.3,-0.225,0,42,42,42,,,,,,,,,,None,566.1957588000223,566.1957588000223,566.1957588000223,566.1957588000223,566.1957588000223,566.1957588000223,f,0.8037016000598669,567.0287795998156,567.0287795998156,567.0287795998156,567.0287795998156,567.0287795998156,567.0287795998156,567.3260821998119,567.3260821998119,569.0379142998718,569.0379142998718,569.0379142998718,569.0379142998718,569.0379142998718,569.0379142998718,569.0379142998718,569.0379142998718,569.0379142998718,569.0379142998718,569.0379142998718,569.0379142998718,569.0379142998718,569.0379142998718,569.0379142998718,569.0379142998718,569.0379142998718,,,,,,26,58,61,37,58,59,None,None,60,60,[0.15648148148148147],[-0.25833333333333336],[1],[0],[0],[3.9794289998244494],['tijiao'],0.6,0,,[],[],[],[],[],[],[],3.9259259259259265,2.0963568000588566,577.6631952000316,579.2597751999274,,,,,,,,,,,575.549078400014,575.549078400014,575.549078400014,575.549078400014,571.549524199916,571.549524199916,571.549524199916,571.549524199916,571.549524199916,571.549524199916,571.549524199916,571.549524199916,0.006914899917319417,571.549524199916,,,,271,f,22,2023-04-04_11h08.39.374,RL,2022.2.4,60.234613826211564,
0,0.3,0.225,0,43,43,43,,,,,,,,,,None,579.2597751999274,579.2597751999274,579.2597751999274,579.2597751999274,579.2597751999274,579.2597751999274,i,0.5571820000186563,579.8447910998948,579.8447910998948,579.8447910998948,579.8447910998948,579.8447910998948,579.8447910998948,580.1412272998132,580.1412272998132,581.3712150999345,581.3712150999345,581.3712150999345,581.3712150999345,581.3712150999345,581.3712150999345,581.3712150999345,581.3712150999345,581.3712150999345,581.3712150999345,581.3712150999345,581.3712150999345,581.3712150999345,581.3712150999345,581.3712150999345,581.3712150999345,581.3712150999345,583.8798745998647,583.8798745998647,583.8798745998647,583.8798745998647,583.8798745998647,19,60,59,43,59,47,4.0,2.1267484999261796,,,[],[],[],[],[],[],[],-0.6,3,,[],[],[],[],[],[],[],None,None,586.03251369996,587.8032245000359,,,,,,,,,,,,,,,,,,,,,,,,,,,,271,f,22,2023-04-04_11h08.39.374,RL,2022.2.4,60.234613826211564,
1,-0.3,-0.225,0,44,44,44,,,,,,,,,,None,587.8032245000359,587.8032245000359,587.8032245000359,587.8032245000359,587.8032245000359,587.8032245000359,f,0.5038421999197453,588.3385312999599,588.3385312999599,588.3385312999599,588.3385312999599,588.3385312999599,588.3385312999599,588.6345301000401,588.6345301000401,590.1633106998634,590.1633106998634,590.1805548998527,590.1805548998527,590.1805548998527,590.1805548998527,590.1805548998527,590.1805548998527,590.1805548998527,590.1805548998527,590.1805548998527,590.1805548998527,590.1805548998527,590.1805548998527,590.1805548998527,590.1805548998527,590.1805548998527,,,,,,23,54,50,40,54,47,None,None,60,60,"[0.000925925925925926, 0.006481481481481481]","[-0.35462962962962963, -0.30925925925925923]","[1, 1]","[0, 0]","[0, 0]","[3.678875799989328, 4.243050799937919]",['tijiao'],-0.2,0,,[],[],[],[],[],[],[],7.138888888888889,1.2145386000629514,598.1905559999868,599.9368161000311,,,,,,,,,,,596.9577430000063,596.9577430000063,596.9577430000063,596.9577430000063,592.6930772999767,592.6930772999767,592.6930772999767,592.6930772999767,592.6930772999767,592.6930772999767,592.6930772999767,592.6930772999767,0.008451499976217747,592.6930772999767,,,,271,f,22,2023-04-04_11h08.39.374,RL,2022.2.4,60.234613826211564,
0,0.3,0.225,0,45,45,45,,,,,,,,,,None,599.9368161000311,599.9368161000311,599.9368161000311,599.9368161000311,599.9368161000311,599.9368161000311,i,0.5085908998735249,600.4692173998337,600.4692173998337,600.4692173998337,600.4692173998337,600.4692173998337,600.4692173998337,600.7676037999336,600.7676037999336,602.047938299831,602.047938299831,602.047938299831,602.047938299831,602.047938299831,602.047938299831,602.047938299831,602.047938299831,602.047938299831,602.047938299831,602.047938299831,602.047938299831,602.047938299831,602.047938299831,602.047938299831,602.047938299831,602.047938299831,,,,,,28,53,55,36,55,40,None,None,90,90,[-0.007407407407407408],[-0.287962962962963],[1],[0],[0],[6.039515499956906],['tijiao'],0.2,0,,[],[],[],[],[],[],[],3.759259259259259,2.211652599973604,612.850657899864,614.7464393000118,,,,,,,,,,,610.6202696999535,610.6202696999535,610.6202696999535,610.6202696999535,604.5597094998229,604.5597094998229,604.5597094998229,604.5597094998229,604.5597094998229,604.5597094998229,604.5597094998229,604.5597094998229,0.006931900046765804,604.5597094998229,,,,271,f,22,2023-04-04_11h08.39.374,RL,2022.2.4,60.234613826211564,
1,-0.3,-0.225,0,46,46,46,,,,,,,,,,None,614.7464393000118,614.7464393000118,614.7464393000118,614.7464393000118,614.7464393000118,614.7464393000118,i,0.40310729993507266,615.181549699977,615.181549699977,615.181549699977,615.181549699977,615.181549699977,615.181549699977,615.4781172999647,615.4781172999647,617.0902833999135,617.0902833999135,617.0902833999135,617.0902833999135,617.0902833999135,617.0902833999135,617.0902833999135,617.0902833999135,617.0902833999135,617.0902833999135,617.0902833999135,617.0902833999135,617.0902833999135,617.0902833999135,617.0902833999135,617.0902833999135,617.0902833999135,,,,,,18,57,53,40,53,44,None,None,60,60,[0.01574074074074074],[-0.30092592592592593],[1],[0],[0],[4.311029799981043],['tijiao'],0.6,0,,[],[],[],[],[],[],[],6.166666666666667,1.6630277000367641,625.6155872000381,627.5116012999788,,,,,,,,,,,623.9342547999695,623.9342547999695,623.9342547999695,623.9342547999695,619.602272799937,619.602272799937,619.602272799937,619.602272799937,619.602272799937,619.602272799937,619.602272799937,619.602272799937,0.007224299944937229,619.602272799937,,,,271,f,22,2023-04-04_11h08.39.374,RL,2022.2.4,60.234613826211564,
0,0.3,0.225,0,47,47,47,,,,,,,,,,None,627.5116012999788,627.5116012999788,627.5116012999788,627.5116012999788,627.5116012999788,627.5116012999788,i,0.36473209992982447,627.8968544998206,627.8968544998206,627.8968544998206,627.8968544998206,627.8968544998206,627.8968544998206,628.1933245998807,628.1933245998807,629.8217722999398,629.8217722999398,629.8217722999398,629.8217722999398,629.8217722999398,629.8217722999398,629.8217722999398,629.8217722999398,629.8217722999398,629.8217722999398,629.8217722999398,629.8217722999398,629.8217722999398,629.8217722999398,629.8217722999398,629.8217722999398,629.8217722999398,,,,,,33,48,55,38,55,52,None,None,,,[],[],[],[],[],[],[],0.2,1,45,[0.1037037037037037],[-0.2962962962962963],[1],[0],[0],[4.732767099980265],['tijiao_random_2'],7.398148148148149,1.5238205001223832,638.6302149000112,640.4430590998381,632.3432099998463,632.3432099998463,632.3432099998463,632.3432099998463,632.3432099998463,632.3432099998463,632.3432099998463,632.3432099998463,0.0068351998925209045,632.3432099998463,637.0879746999126,637.0879746999126,637.0879746999126,637.0879746999126,,,,,,,,,,,,,,271,f,22,2023-04-04_11h08.39.374,RL,2022.2.4,60.234613826211564,
1,-0.3,-0.225,0,48,48,48,,,,,,,,,,None,640.4430590998381,640.4430590998381,640.4430590998381,640.4430590998381,640.4430590998381,640.4430590998381,i,0.5206760000437498,640.9928574999794,640.9928574999794,640.9928574999794,640.9928574999794,640.9928574999794,640.9928574999794,641.2908558000345,641.2908558000345,643.1522680998314,643.1522680998314,643.1686390999239,643.1686390999239,643.1686390999239,643.1686390999239,643.1686390999239,643.1686390999239,643.1686390999239,643.1686390999239,643.1686390999239,643.1686390999239,643.1686390999239,643.1686390999239,643.1686390999239,643.1686390999239,643.1686390999239,,,,,,32,60,49,34,49,46,None,None,,,[],[],[],[],[],[],[],0.2,1,45,[0.005555555555555556],[-0.30277777777777776],[1],[0],[0],[3.3042035000398755],['tijiao_random_2'],8.277777777777779,1.471875699935481,650.4977200999856,652.193827399984,645.6897469998803,645.6897469998803,645.6897469998803,645.6897469998803,645.6897469998803,645.6897469998803,645.6897469998803,645.6897469998803,0.007044600090011954,645.6897469998803,649.0077398999128,649.0077398999128,649.0077398999128,649.0077398999128,,,,,,,,,,,,,,271,f,22,2023-04-04_11h08.39.374,RL,2022.2.4,60.234613826211564,
0,0.3,0.225,0,49,49,49,,,,,,,,,,None,652.193827399984,652.193827399984,652.193827399984,652.193827399984,652.193827399984,652.193827399984,i,0.4569787001237273,652.6782424999401,652.6782424999401,652.6782424999401,652.6782424999401,652.6782424999401,652.6782424999401,652.9755968998652,652.9755968998652,654.9035745000001,654.9035745000001,654.9035745000001,654.9035745000001,654.9035745000001,654.9035745000001,654.9035745000001,654.9035745000001,654.9035745000001,654.9035745000001,654.9035745000001,654.9035745000001,654.9035745000001,654.9035745000001,654.9035745000001,654.9035745000001,654.9035745000001,,,,,,38,57,61,39,61,52,None,None,57,57,[-0.010185185185185186],[-0.3055555555555556],[1],[0],[0],[5.7401987998746336],['tijiao'],-0.2,0,,[],[],[],[],[],[],[],7.685185185185185,1.5969934999011457,664.7926459999289,666.721202599816,,,,,,,,,,,663.1766569998581,663.1766569998581,663.1766569998581,663.1766569998581,657.4155109999701,657.4155109999701,657.4155109999701,657.4155109999701,657.4155109999701,657.4155109999701,657.4155109999701,657.4155109999701,0.0073899999260902405,657.4155109999701,,,,271,f,22,2023-04-04_11h08.39.374,RL,2022.2.4,60.234613826211564,
1,-0.3,-0.225,0,50,50,50,,,,,,,,,,None,666.721202599816,666.721202599816,666.721202599816,666.721202599816,666.721202599816,666.721202599816,i,0.3547588000074029,667.1037619998679,667.1037619998679,667.1037619998679,667.1037619998679,667.1037619998679,667.1037619998679,667.4030220999848,667.4030220999848,668.9984318998177,668.9984318998177,669.0152610000223,669.0152610000223,669.0152610000223,669.0152610000223,669.0152610000223,669.0152610000223,669.0152610000223,669.0152610000223,669.0152610000223,669.0152610000223,669.0152610000223,669.0152610000223,669.0152610000223,669.0152610000223,669.0152610000223,,,,,,35,64,63,34,63,53,None,None,65,65,[0.05648148148148148],[-0.2953703703703704],[1],[0],[0],[3.063837100053206],['tijiao'],0.6,0,,[],[],[],[],[],[],[],7.0092592592592595,2.7444028998725116,677.3745164999273,679.3199515999295,,,,,,,,,,,674.6123804999515,674.6123804999515,674.6123804999515,674.6123804999515,671.5265520999674,671.5265520999674,671.5265520999674,671.5265520999674,671.5265520999674,671.5265520999674,671.5265520999674,671.5265520999674,0.007076200097799301,671.5265520999674,,,,271,f,22,2023-04-04_11h08.39.374,RL,2022.2.4,60.234613826211564,
0,0.3,0.225,0,51,51,51,,,,,,,,,,None,679.3199515999295,679.3199515999295,679.3199515999295,679.3199515999295,679.3199515999295,679.3199515999295,i,0.32798609999008477,679.6717197999824,679.6717197999824,679.6717197999824,679.6717197999824,679.6717197999824,679.6717197999824,679.9683446998242,679.9683446998242,681.6474635999184,681.6474635999184,681.6474635999184,681.6474635999184,681.6474635999184,681.6474635999184,681.6474635999184,681.6474635999184,681.6474635999184,681.6474635999184,681.6474635999184,681.6474635999184,681.6474635999184,681.6474635999184,681.6474635999184,681.6474635999184,681.6474635999184,,,,,,37,48,71,26,71,54,None,None,76,76,[0.058333333333333334],[-0.3055555555555556],[1],[0],[0],[3.960586200002581],['tijiao'],0.2,0,,[],[],[],[],[],[],[],9.305555555555555,1.7972540000919253,689.9567783998791,691.8193299998529,,,,,,,,,,,688.1415490999352,688.1415490999352,688.1415490999352,688.1415490999352,684.1599452998489,684.1599452998489,684.1599452998489,684.1599452998489,684.1599452998489,684.1599452998489,684.1599452998489,684.1599452998489,0.008277199929580092,684.1599452998489,,,,271,f,22,2023-04-04_11h08.39.374,RL,2022.2.4,60.234613826211564,
1,-0.3,-0.225,0,52,52,52,,,,,,,,,,None,691.8193299998529,691.8193299998529,691.8193299998529,691.8193299998529,691.8193299998529,691.8193299998529,i,0.3706783999223262,692.2216523999814,692.2216523999814,692.2216523999814,692.2216523999814,692.2216523999814,692.2216523999814,692.5178365998436,692.5178365998436,693.7310220999643,693.7310220999643,693.7476870999672,693.7476870999672,693.7476870999672,693.7476870999672,693.7476870999672,693.7476870999672,693.7476870999672,693.7476870999672,693.7476870999672,693.7476870999672,693.7476870999672,693.7476870999672,693.7476870999672,693.7476870999672,693.7476870999672,696.2568572999444,696.2568572999444,696.2568572999444,696.2568572999444,696.2568572999444,34,63,66,37,66,40,5.0,3.1898914999328554,,,[],[],[],[],[],[],[],-0.6,3,,[],[],[],[],[],[],[],None,None,699.473178199958,701.2937457000371,,,,,,,,,,,,,,,,,,,,,,,,,,,,271,f,22,2023-04-04_11h08.39.374,RL,2022.2.4,60.234613826211564,
0,0.3,0.225,0,53,53,53,,,,,,,,,,None,701.2937457000371,701.2937457000371,701.2937457000371,701.2937457000371,701.2937457000371,701.2937457000371,i,1.3002861998975277,702.6243757999036,702.6243757999036,702.6243757999036,702.6243757999036,702.6243757999036,702.6243757999036,702.9227181000169,702.9227181000169,704.5514354000334,704.5514354000334,704.5514354000334,704.5514354000334,704.5514354000334,704.5514354000334,704.5514354000334,704.5514354000334,704.5514354000334,704.5514354000334,704.5514354000334,704.5514354000334,704.5514354000334,704.5514354000334,704.5514354000334,704.5514354000334,704.5514354000334,707.0606717998162,707.0606717998162,707.0606717998162,707.0606717998162,707.0606717998162,31,69,62,27,62,53,5.0,2.2264968999661505,,,[],[],[],[],[],[],[],0.2,2,,[],[],[],[],[],[],[],None,None,709.3151954999194,710.900508799823,,,,,,,,,,,,,,,,,,,,,,,,,,,,271,f,22,2023-04-04_11h08.39.374,RL,2022.2.4,60.234613826211564,
1,-0.3,-0.225,0,54,54,54,,,,,,,,,,None,710.900508799823,710.900508799823,710.900508799823,710.900508799823,710.900508799823,710.900508799823,f,0.6142665999941528,711.5344686999451,711.5344686999451,711.5344686999451,711.5344686999451,711.5344686999451,711.5344686999451,711.8316585000139,711.8316585000139,713.4771041998174,713.4771041998174,713.4771041998174,713.4771041998174,713.4771041998174,713.4771041998174,713.4771041998174,713.4771041998174,713.4771041998174,713.4771041998174,713.4771041998174,713.4771041998174,713.4771041998174,713.4771041998174,713.4771041998174,713.4771041998174,713.4771041998174,715.9856114999857,715.9856114999857,715.9856114999857,715.9856114999857,715.9856114999857,43,67,64,34,67,42,5.0,1.895859899930656,,,[],[],[],[],[],[],[],-0.2,3,,[],[],[],[],[],[],[],None,None,717.9071952998638,719.6269535999745,,,,,,,,,,,,,,,,,,,,,,,,,,,,271,f,22,2023-04-04_11h08.39.374,RL,2022.2.4,60.234613826211564,
0,0.3,0.225,0,55,55,55,,,,,,,,,,None,719.6269535999745,719.6269535999745,719.6269535999745,719.6269535999745,719.6269535999745,719.6269535999745,f,0.3792653998825699,720.0276124000084,720.0276124000084,720.0276124000084,720.0276124000084,720.0276124000084,720.0276124000084,720.3251620999072,720.3251620999072,721.7545946999453,721.7545946999453,721.7712469999678,721.7712469999678,721.7712469999678,721.7712469999678,721.7712469999678,721.7712469999678,721.7712469999678,721.7712469999678,721.7712469999678,721.7712469999678,721.7712469999678,721.7712469999678,721.7712469999678,721.7712469999678,721.7712469999678,724.2802851998713,724.2802851998713,724.2802851998713,724.2802851998713,724.2802851998713,31,57,62,37,57,63,4.0,1.777589499950409,,,[],[],[],[],[],[],[],-0.6,2,,[],[],[],[],[],[],[],None,None,726.087177899899,727.8876807999332,,,,,,,,,,,,,,,,,,,,,,,,,,,,271,f,22,2023-04-04_11h08.39.374,RL,2022.2.4,60.234613826211564,
1,-0.3,-0.225,0,56,56,56,,,,,,,,,,None,727.8876807999332,727.8876807999332,727.8876807999332,727.8876807999332,727.8876807999332,727.8876807999332,i,0.506073199911043,728.4200835998636,728.4200835998636,728.4200835998636,728.4200835998636,728.4200835998636,728.4200835998636,728.7190474998206,728.7190474998206,729.9655662998557,729.9655662998557,729.9655662998557,729.9655662998557,729.9655662998557,729.9655662998557,729.9655662998557,729.9655662998557,729.9655662998557,729.9655662998557,729.9655662998557,729.9655662998557,729.9655662998557,729.9655662998557,729.9655662998557,729.9655662998557,729.9655662998557,732.4747206999455,732.4747206999455,732.4747206999455,732.4747206999455,732.4747206999455,52,71,63,40,63,38,5.0,2.0101254999171942,,,[],[],[],[],[],[],[],-0.6,2,,[],[],[],[],[],[],[],None,None,734.512366999872,736.3146830999758,,,,,,,,,,,,,,,,,,,,,,,,,,,,271,f,22,2023-04-04_11h08.39.374,RL,2022.2.4,60.234613826211564,
0,0.3,0.225,0,57,57,57,,,,,,,,,,None,736.3146830999758,736.3146830999758,736.3146830999758,736.3146830999758,736.3146830999758,736.3146830999758,i,0.39961780002340674,736.7475155999418,736.7475155999418,736.7475155999418,736.7475155999418,736.7475155999418,736.7475155999418,737.046120399842,737.046120399842,738.4590727998875,738.4590727998875,738.4590727998875,738.4590727998875,738.4590727998875,738.4590727998875,738.4590727998875,738.4590727998875,738.4590727998875,738.4590727998875,738.4590727998875,738.4590727998875,738.4590727998875,738.4590727998875,738.4590727998875,738.4590727998875,738.4590727998875,,,,,,47,78,62,34,62,55,None,None,70,70,[0.12962962962962962],[-0.28703703703703703],[1],[0],[0],[3.1305068000219762],['tijiao'],-0.2,0,,[],[],[],[],[],[],[],11,2.160201200051233,746.3030478998553,747.966035499936,,,,,,,,,,,744.125146899838,744.125146899838,744.125146899838,744.125146899838,740.9714581998996,740.9714581998996,740.9714581998996,740.9714581998996,740.9714581998996,740.9714581998996,740.9714581998996,740.9714581998996,0.008179299999028444,740.9714581998996,,,,271,f,22,2023-04-04_11h08.39.374,RL,2022.2.4,60.234613826211564,
1,-0.3,-0.225,0,58,58,58,,,,,,,,,,None,747.966035499936,747.966035499936,747.966035499936,747.966035499936,747.966035499936,747.966035499936,i,0.3635557000525296,748.3502556998283,748.3502556998283,748.3502556998283,748.3502556998283,748.3502556998283,748.3502556998283,748.6478045999538,748.6478045999538,749.4956676999573,749.4956676999573,749.4956676999573,749.4956676999573,749.4956676999573,749.4956676999573,749.4956676999573,749.4956676999573,749.4956676999573,749.4956676999573,749.4956676999573,749.4956676999573,749.4956676999573,749.4956676999573,749.4956676999573,749.4956676999573,749.4956676999573,752.0043866999913,752.0043866999913,752.0043866999913,752.0043866999913,752.0043866999913,49,65,63,27,63,60,5.0,2.0094131999649107,,,[],[],[],[],[],[],[],-0.2,2,,[],[],[],[],[],[],[],None,None,754.0400958999526,755.6782787998673,,,,,,,,,,,,,,,,,,,,,,,,,,,,271,f,22,2023-04-04_11h08.39.374,RL,2022.2.4,60.234613826211564,
0,0.3,0.225,0,59,59,59,,,,,,,,,,None,755.6782787998673,755.6782787998673,755.6782787998673,755.6782787998673,755.6782787998673,755.6782787998673,i,0.7116647998336703,756.410750299925,756.410750299925,756.410750299925,756.410750299925,756.410750299925,756.410750299925,756.7092903000303,756.7092903000303,757.5401043000165,757.5401043000165,757.5401043000165,757.5401043000165,757.5401043000165,757.5401043000165,757.5401043000165,757.5401043000165,757.5401043000165,757.5401043000165,757.5401043000165,757.5401043000165,757.5401043000165,757.5401043000165,757.5401043000165,757.5401043000165,757.5401043000165,,,,,,51,61,61,27,61,57,None,None,70,70,[-0.03425925925925926],[-0.3111111111111111],[1],[0],[0],[5.009453900158405],['tijiao'],0.2,0,,[],[],[],[],[],[],[],4.962962962962964,1.9130863000173122,767.0131264999509,768.825881900033,,,,,,,,,,,765.0823003998958,765.0823003998958,765.0823003998958,765.0823003998958,760.0509095999878,760.0509095999878,760.0509095999878,760.0509095999878,760.0509095999878,760.0509095999878,760.0509095999878,760.0509095999878,0.00632370007224381,760.0509095999878,,,,271,f,22,2023-04-04_11h08.39.374,RL,2022.2.4,60.234613826211564,
1,-0.3,-0.225,0,60,60,60,,,,,,,,,,None,768.825881900033,768.825881900033,768.825881900033,768.825881900033,768.825881900033,768.825881900033,i,0.43462600000202656,769.2942840999458,769.2942840999458,769.2942840999458,769.2942840999458,769.2942840999458,769.2942840999458,769.590461499989,769.590461499989,770.9034959999844,770.9034959999844,770.9034959999844,770.9034959999844,770.9034959999844,770.9034959999844,770.9034959999844,770.9034959999844,770.9034959999844,770.9034959999844,770.9034959999844,770.9034959999844,770.9034959999844,770.9034959999844,770.9034959999844,770.9034959999844,770.9034959999844,773.4129617998842,773.4129617998842,773.4129617998842,773.4129617998842,773.4129617998842,55,67,54,34,54,58,4.0,2.85804900014773,,,[],[],[],[],[],[],[],0.2,2,,[],[],[],[],[],[],[],None,None,776.2998015999328,777.8511194998864,,,,,,,,,,,,,,,,,,,,,,,,,,,,271,f,22,2023-04-04_11h08.39.374,RL,2022.2.4,60.234613826211564,
0,0.3,0.225,0,61,61,61,,,,,,,,,,None,777.8511194998864,777.8511194998864,777.8511194998864,777.8511194998864,777.8511194998864,777.8511194998864,f,0.3802660999353975,778.2509188000113,778.2509188000113,778.2509188000113,778.2509188000113,778.2509188000113,778.2509188000113,778.5493137999438,778.5493137999438,780.0953049999662,780.0953049999662,780.0953049999662,780.0953049999662,780.0953049999662,780.0953049999662,780.0953049999662,780.0953049999662,780.0953049999662,780.0953049999662,780.0953049999662,780.0953049999662,780.0953049999662,780.0953049999662,780.0953049999662,780.0953049999662,780.0953049999662,782.6046199998818,782.6046199998818,782.6046199998818,782.6046199998818,782.6046199998818,57,75,65,30,75,51,5.0,2.2766913999803364,,,[],[],[],[],[],[],[],-0.6,2,,[],[],[],[],[],[],[],None,None,784.9095894999336,786.876726699993,,,,,,,,,,,,,,,,,,,,,,,,,,,,271,f,22,2023-04-04_11h08.39.374,RL,2022.2.4,60.234613826211564,
1,-0.3,-0.225,0,62,62,62,,,,,,,,,,None,786.876726699993,786.876726699993,786.876726699993,786.876726699993,786.876726699993,786.876726699993,f,0.8408643999136984,787.7417548999656,787.7417548999656,787.7417548999656,787.7417548999656,787.7417548999656,787.7417548999656,788.0401103999466,788.0401103999466,789.5198812999297,789.5198812999297,789.5198812999297,789.5198812999297,789.5198812999297,789.5198812999297,789.5198812999297,789.5198812999297,789.5198812999297,789.5198812999297,789.5198812999297,789.5198812999297,789.5198812999297,789.5198812999297,789.5198812999297,789.5198812999297,789.5198812999297,792.0286462998483,792.0286462998483,792.0286462998483,792.0286462998483,792.0286462998483,49,66,57,33,66,49,4.0,1.4789378000423312,,,[],[],[],[],[],[],[],0.6,3,,[],[],[],[],[],[],[],None,None,793.5323960999958,795.4532441999763,,,,,,,,,,,,,,,,,,,,,,,,,,,,271,f,22,2023-04-04_11h08.39.374,RL,2022.2.4,60.234613826211564,
0,0.3,0.225,0,63,63,63,,,,,,,,,,None,795.4532441999763,795.4532441999763,795.4532441999763,795.4532441999763,795.4532441999763,795.4532441999763,f,0.43508769990876317,795.9214349000249,795.9214349000249,795.9214349000249,795.9214349000249,795.9214349000249,795.9214349000249,796.2180097999517,796.2180097999517,797.1488512998912,797.1488512998912,797.1488512998912,797.1488512998912,797.1488512998912,797.1488512998912,797.1488512998912,797.1488512998912,797.1488512998912,797.1488512998912,797.1488512998912,797.1488512998912,797.1488512998912,797.1488512998912,797.1488512998912,797.1488512998912,797.1488512998912,799.657901099883,799.657901099883,799.657901099883,799.657901099883,799.657901099883,39,79,56,26,79,34,5.0,2.3927995001431555,,,[],[],[],[],[],[],[],-0.2,2,,[],[],[],[],[],[],[],None,None,802.0755560998805,803.7639277998824,,,,,,,,,,,,,,,,,,,,,,,,,,,,271,f,22,2023-04-04_11h08.39.374,RL,2022.2.4,60.234613826211564,
1,-0.3,-0.225,0,64,64,64,,,,,,,,,,None,803.7639277998824,803.7639277998824,803.7639277998824,803.7639277998824,803.7639277998824,803.7639277998824,r,0.4961739000864327,804.2802224999759,804.2802224999759,804.2802224999759,804.2802224999759,804.2802224999759,804.2802224999759,804.5785353998654,804.5785353998654,806.240677200025,806.240677200025,806.240677200025,806.240677200025,806.240677200025,806.240677200025,806.240677200025,806.240677200025,806.240677200025,806.240677200025,806.240677200025,806.240677200025,806.240677200025,806.240677200025,806.240677200025,806.240677200025,806.240677200025,808.749717899831,808.749717899831,808.749717899831,808.749717899831,808.749717899831,55,82,53,30,55,44,4.0,1.6615601999219507,,,[],[],[],[],[],[],[],0.6,3,,[],[],[],[],[],[],[],None,None,810.4363273999188,812.1408643999603,,,,,,,,,,,,,,,,,,,,,,,,,,,,271,f,22,2023-04-04_11h08.39.374,RL,2022.2.4,60.234613826211564,
0,0.3,0.225,0,65,65,65,,,,,,,,,,None,812.1408643999603,812.1408643999603,812.1408643999603,812.1408643999603,812.1408643999603,812.1408643999603,f,0.3755742001812905,812.5402100000065,812.5402100000065,812.5402100000065,812.5402100000065,812.5402100000065,812.5402100000065,812.8391064999159,812.8391064999159,814.5015737998765,814.5015737998765,814.5015737998765,814.5015737998765,814.5015737998765,814.5015737998765,814.5015737998765,814.5015737998765,814.5015737998765,814.5015737998765,814.5015737998765,814.5015737998765,814.5015737998765,814.5015737998765,814.5015737998765,814.5015737998765,814.5015737998765,817.0106624998152,817.0106624998152,817.0106624998152,817.0106624998152,817.0106624998152,56,80,54,25,80,30,4.0,1.0300762001425028,,,[],[],[],[],[],[],[],-0.2,2,,[],[],[],[],[],[],[],None,None,818.0680924998596,820.0191804999486,,,,,,,,,,,,,,,,,,,,,,,,,,,,271,f,22,2023-04-04_11h08.39.374,RL,2022.2.4,60.234613826211564,
1,-0.3,-0.225,0,66,66,66,,,,,,,,,,None,820.0191804999486,820.0191804999486,820.0191804999486,820.0191804999486,820.0191804999486,820.0191804999486,f,0.34855980006977916,820.3883899999782,820.3883899999782,820.3883899999782,820.3883899999782,820.3883899999782,820.3883899999782,820.6845523000229,820.6845523000229,822.5631983999629,822.5631983999629,822.5631983999629,822.5631983999629,822.5631983999629,822.5631983999629,822.5631983999629,822.5631983999629,822.5631983999629,822.5631983999629,822.5631983999629,822.5631983999629,822.5631983999629,822.5631983999629,822.5631983999629,822.5631983999629,822.5631983999629,,,,,,54,78,52,28,78,47,None,None,,,[],[],[],[],[],[],[],0.6,1,30,[0.10740740740740741],[-0.2833333333333333],[1],[0],[0],[5.7493179000448436],['tijiao_random_2'],7.222222222222222,1.5560566999483854,832.4180358999874,834.2808222998865,825.0815436998382,825.0815436998382,825.0815436998382,825.0815436998382,825.0815436998382,825.0815436998382,825.0815436998382,825.0815436998382,0.0058506999630481005,825.0815436998382,830.8433564000297,830.8433564000297,830.8433564000297,830.8433564000297,,,,,,,,,,,,,,271,f,22,2023-04-04_11h08.39.374,RL,2022.2.4,60.234613826211564,
0,0.3,0.225,0,67,67,67,,,,,,,,,,None,834.2808222998865,834.2808222998865,834.2808222998865,834.2808222998865,834.2808222998865,834.2808222998865,f,0.606982700061053,834.9154323998373,834.9154323998373,834.9154323998373,834.9154323998373,834.9154323998373,834.9154323998373,835.21139699989,835.21139699989,836.7739607000258,836.7739607000258,836.7905558999628,836.7905558999628,836.7905558999628,836.7905558999628,836.7905558999628,836.7905558999628,836.7905558999628,836.7905558999628,836.7905558999628,836.7905558999628,836.7905558999628,836.7905558999628,836.7905558999628,836.7905558999628,836.7905558999628,,,,,,54,67,44,24,67,40,None,None,,,[],[],[],[],[],[],[],0.6,1,40,[0.03796296296296296],[-0.30925925925925923],[1],[0],[0],[7.976216099923477],['tijiao_random_2'],5.935185185185185,2.0554382000118494,849.3716678000055,851.0181376999244,839.3098948998377,839.3098948998377,839.3098948998377,839.3098948998377,839.3098948998377,839.3098948998377,839.3098948998377,839.3098948998377,0.006604500114917755,839.3098948998377,847.2992662999313,847.2992662999313,847.2992662999313,847.2992662999313,,,,,,,,,,,,,,271,f,22,2023-04-04_11h08.39.374,RL,2022.2.4,60.234613826211564,
1,-0.3,-0.225,0,68,68,68,,,,,,,,,,None,851.0181376999244,851.0181376999244,851.0181376999244,851.0181376999244,851.0181376999244,851.0181376999244,f,1.0467014000751078,852.0857490999624,852.0857490999624,852.0857490999624,852.0857490999624,852.0857490999624,852.0857490999624,852.3814959998708,852.3814959998708,854.3261042998638,854.3261042998638,854.3261042998638,854.3261042998638,854.3261042998638,854.3261042998638,854.3261042998638,854.3261042998638,854.3261042998638,854.3261042998638,854.3261042998638,854.3261042998638,854.3261042998638,854.3261042998638,854.3261042998638,854.3261042998638,854.3261042998638,,,,,,47,68,56,25,68,41,None,None,90,90,[0.10925925925925926],[-0.3175925925925926],[1],[0],[0],[4.277567999903113],['tijiao'],-0.2,0,,[],[],[],[],[],[],[],4.907407407407407,1.9287613001652062,863.0842172999401,864.7471559999976,,,,,,,,,,,861.1368781998754,861.1368781998754,861.1368781998754,861.1368781998754,856.8380964999087,856.8380964999087,856.8380964999087,856.8380964999087,856.8380964999087,856.8380964999087,856.8380964999087,856.8380964999087,0.007538900012150407,856.8380964999087,,,,271,f,22,2023-04-04_11h08.39.374,RL,2022.2.4,60.234613826211564,
0,0.3,0.225,0,69,69,69,,,,,,,,,,None,864.7471559999976,864.7471559999976,864.7471559999976,864.7471559999976,864.7471559999976,864.7471559999976,f,0.3944478000048548,865.1648285000119,865.1648285000119,865.1648285000119,865.1648285000119,865.1648285000119,865.1648285000119,865.4622400999069,865.4622400999069,867.4736329999287,867.4736329999287,867.4736329999287,867.4736329999287,867.4736329999287,867.4736329999287,867.4736329999287,867.4736329999287,867.4736329999287,867.4736329999287,867.4736329999287,867.4736329999287,867.4736329999287,867.4736329999287,867.4736329999287,867.4736329999287,867.4736329999287,869.9827370999847,869.9827370999847,869.9827370999847,869.9827370999847,869.9827370999847,44,82,50,21,82,46,5.0,2.0442470000125468,,,[],[],[],[],[],[],[],0.2,3,,[],[],[],[],[],[],[],None,None,872.0527520999312,873.6565021998249,,,,,,,,,,,,,,,,,,,,,,,,,,,,271,f,22,2023-04-04_11h08.39.374,RL,2022.2.4,60.234613826211564,
1,-0.3,-0.225,0,70,70,70,,,,,,,,,,None,873.6565021998249,873.6565021998249,873.6565021998249,873.6565021998249,873.6565021998249,873.6565021998249,f,0.949753699824214,874.6376004000194,874.6376004000194,874.6376004000194,874.6376004000194,874.6376004000194,874.6376004000194,874.9366531998385,874.9366531998385,876.8476181998849,876.8476181998849,876.8476181998849,876.8476181998849,876.8476181998849,876.8476181998849,876.8476181998849,876.8476181998849,876.8476181998849,876.8476181998849,876.8476181998849,876.8476181998849,876.8476181998849,876.8476181998849,876.8476181998849,876.8476181998849,876.8476181998849,879.3569387998432,879.3569387998432,879.3569387998432,879.3569387998432,879.3569387998432,47,70,46,25,70,41,4.0,2.508646900067106,,,[],[],[],[],[],[],[],0.6,2,,[],[],[],[],[],[],[],None,None,881.8914963998832,883.7120932999533,,,,,,,,,,,,,,,,,,,,,,,,,,,,271,f,22,2023-04-04_11h08.39.374,RL,2022.2.4,60.234613826211564,
0,0.3,0.225,0,71,71,71,,,,,,,,,,None,883.7120932999533,883.7120932999533,883.7120932999533,883.7120932999533,883.7120932999533,883.7120932999533,r,0.5939446999691427,884.3281256000046,884.3281256000046,884.3281256000046,884.3281256000046,884.3281256000046,884.3281256000046,884.6268282998353,884.6268282998353,886.2719163999427,886.2719163999427,886.2719163999427,886.2719163999427,886.2719163999427,886.2719163999427,886.2719163999427,886.2719163999427,886.2719163999427,886.2719163999427,886.2719163999427,886.2719163999427,886.2719163999427,886.2719163999427,886.2719163999427,886.2719163999427,886.2719163999427,,,,,,42,71,56,26,42,28,None,None,,,[],[],[],[],[],[],[],0.6,1,50,[0.07037037037037037],[-0.29907407407407405],[1],[0],[0],[4.5369279000442475],['tijiao_random_2'],7.111111111111112,1.887167900102213,895.246663399972,897.1917797999922,888.7902253998909,888.7902253998909,888.7902253998909,888.7902253998909,888.7902253998909,888.7902253998909,888.7902253998909,888.7902253998909,0.006305699935182929,888.7902253998909,893.3419882999733,893.3419882999733,893.3419882999733,893.3419882999733,,,,,,,,,,,,,,271,f,22,2023-04-04_11h08.39.374,RL,2022.2.4,60.234613826211564,
1,-0.3,-0.225,0,72,72,72,,,,,,,,,,None,897.1917797999922,897.1917797999922,897.1917797999922,897.1917797999922,897.1917797999922,897.1917797999922,j,0.4198656000662595,897.6433992998209,897.6433992998209,897.6433992998209,897.6433992998209,897.6433992998209,897.6433992998209,897.9405523999594,897.9405523999594,899.5527812000364,899.5527812000364,899.5527812000364,899.5527812000364,899.5527812000364,899.5527812000364,899.5527812000364,899.5527812000364,899.5527812000364,899.5527812000364,899.5527812000364,899.5527812000364,899.5527812000364,899.5527812000364,899.5527812000364,899.5527812000364,899.5527812000364,902.0615101999138,902.0615101999138,902.0615101999138,902.0615101999138,902.0615101999138,40,84,56,27,27,42,1.0,2.1938221000600606,,,[],[],[],[],[],[],[],0.2,2,,[],[],[],[],[],[],[],None,None,904.2821867999155,905.8354378000367,,,,,,,,,,,,,,,,,,,,,,,,,,,,271,f,22,2023-04-04_11h08.39.374,RL,2022.2.4,60.234613826211564,
0,0.3,0.225,0,73,73,73,,,,,,,,,,None,905.8354378000367,905.8354378000367,905.8354378000367,905.8354378000367,905.8354378000367,905.8354378000367,f,0.41799410013481975,906.2850196999498,906.2850196999498,906.2850196999498,906.2850196999498,906.2850196999498,906.2850196999498,906.5836614998989,906.5836614998989,907.9301024999004,907.9301024999004,907.9301024999004,907.9301024999004,907.9301024999004,907.9301024999004,907.9301024999004,907.9301024999004,907.9301024999004,907.9301024999004,907.9301024999004,907.9301024999004,907.9301024999004,907.9301024999004,907.9301024999004,907.9301024999004,907.9301024999004,,,,,,43,71,61,26,71,45,None,None,,,[],[],[],[],[],[],[],-0.6,1,50,[0.032407407407407406],[-0.2851851851851852],[1],[0],[0],[4.785735199926421],['tijiao_random_2'],6.805555555555556,1.6892698998562992,916.9539320999756,918.750025899848,910.448381899856,910.448381899856,910.448381899856,910.448381899856,910.448381899856,910.448381899856,910.448381899856,910.448381899856,0.006209100130945444,910.448381899856,915.2467418999877,915.2467418999877,915.2467418999877,915.2467418999877,,,,,,,,,,,,,,271,f,22,2023-04-04_11h08.39.374,RL,2022.2.4,60.234613826211564,
1,-0.3,-0.225,0,74,74,74,,,,,,,,,,None,918.750025899848,918.750025899848,918.750025899848,918.750025899848,918.750025899848,918.750025899848,f,0.3949239000212401,919.1677579998504,919.1677579998504,919.1677579998504,919.1677579998504,919.1677579998504,919.1677579998504,919.4652582998388,919.4652582998388,920.72806819994,920.72806819994,920.72806819994,920.72806819994,920.72806819994,920.72806819994,920.72806819994,920.72806819994,920.72806819994,920.72806819994,920.72806819994,920.72806819994,920.72806819994,920.72806819994,920.72806819994,920.72806819994,920.72806819994,923.2371407998726,923.2371407998726,923.2371407998726,923.2371407998726,923.2371407998726,39,78,56,31,78,42,5.0,1.3620549999177456,,,[],[],[],[],[],[],[],-0.2,3,,[],[],[],[],[],[],[],None,None,924.6283181000035,926.2957196999341,,,,,,,,,,,,,,,,,,,,,,,,,,,,271,f,22,2023-04-04_11h08.39.374,RL,2022.2.4,60.234613826211564,
0,0.3,0.225,0,75,75,75,,,,,,,,,,q,1015.0052310000174,1015.0052310000174,1015.0052310000174,1015.0052310000174,1015.0052310000174,1015.0052310000174,f,1.2949447999708354,1016.3195019999985,1016.3195019999985,1016.3195019999985,1016.3195019999985,1016.3195019999985,1016.3195019999985,1016.6167433999944,1016.6167433999944,1017.8962681000121,1017.8962681000121,1017.8962681000121,1017.8962681000121,1017.8962681000121,1017.8962681000121,1017.8962681000121,1017.8962681000121,1017.8962681000121,1017.8962681000121,1017.8962681000121,1017.8962681000121,1017.8962681000121,1017.8962681000121,1017.8962681000121,1017.8962681000121,1017.8962681000121,,,,,,39,76,47,18,76,46,None,None,90,90,[0.10462962962962963],[-0.30092592592592593],[1],[0],[0],[3.6638225000351667],['tijiao'],-0.6,0,,[],[],[],[],[],[],[],8.953703703703704,1.5811362999957055,1025.690552599961,1027.5697886999696,,,,,,,,,,,1024.0915540999267,1024.0915540999267,1024.0915540999267,1024.0915540999267,1020.4065158998128,1020.4065158998128,1020.4065158998128,1020.4065158998128,1020.4065158998128,1020.4065158998128,1020.4065158998128,1020.4065158998128,0.006085200002416968,1020.4065158998128,926.2957196999341,926.2957196999341,88.68585309991613,271,f,22,2023-04-04_11h08.39.374,RL,2022.2.4,60.234613826211564,
1,-0.3,-0.225,0,76,76,76,,,,,,,,,,None,1027.5697886999696,1027.5697886999696,1027.5697886999696,1027.5697886999696,1027.5697886999696,1027.5697886999696,f,0.4483628999441862,1028.0370887999889,1028.0370887999889,1028.0370887999889,1028.0370887999889,1028.0370887999889,1028.0370887999889,1028.3345991999377,1028.3345991999377,1029.8805440999568,1029.8805440999568,1029.8805440999568,1029.8805440999568,1029.8805440999568,1029.8805440999568,1029.8805440999568,1029.8805440999568,1029.8805440999568,1029.8805440999568,1029.8805440999568,1029.8805440999568,1029.8805440999568,1029.8805440999568,1029.8805440999568,1029.8805440999568,1029.8805440999568,1032.3895346999634,1032.3895346999634,1032.3895346999634,1032.3895346999634,1032.3895346999634,39,78,50,19,78,44,5.0,1.9934018000494689,,,[],[],[],[],[],[],[],0.2,3,,[],[],[],[],[],[],[],None,None,1034.409825499868,1036.262389200041,,,,,,,,,,,,,,,,,,,,,,,,,,,,271,f,22,2023-04-04_11h08.39.374,RL,2022.2.4,60.234613826211564,
0,0.3,0.225,0,77,77,77,,,,,,,,,,None,1036.262389200041,1036.262389200041,1036.262389200041,1036.262389200041,1036.262389200041,1036.262389200041,f,0.32673859992064536,1036.6140953998547,1036.6140953998547,1036.6140953998547,1036.6140953998547,1036.6140953998547,1036.6140953998547,1036.9110051000025,1036.9110051000025,1038.7397681998555,1038.7397681998555,1038.7397681998555,1038.7397681998555,1038.7397681998555,1038.7397681998555,1038.7397681998555,1038.7397681998555,1038.7397681998555,1038.7397681998555,1038.7397681998555,1038.7397681998555,1038.7397681998555,1038.7397681998555,1038.7397681998555,1038.7397681998555,1038.7397681998555,,,,,,43,77,54,20,77,29,None,None,,,[],[],[],[],[],[],[],-0.6,1,40,[0.0],[-0.2898148148148148],[1],[0],[0],[3.9858062001876533],['tijiao_random_2'],8.037037037037038,2.302587099839002,1047.580955100013,1049.5598966998514,1041.260607099859,1041.260607099859,1041.260607099859,1041.260607099859,1041.260607099859,1041.260607099859,1041.260607099859,1041.260607099859,0.006512300111353397,1041.260607099859,1045.2604340999387,1045.2604340999387,1045.2604340999387,1045.2604340999387,,,,,,,,,,,,,,271,f,22,2023-04-04_11h08.39.374,RL,2022.2.4,60.234613826211564,
1,-0.3,-0.225,0,78,78,78,,,,,,,,,,None,1049.5598966998514,1049.5598966998514,1049.5598966998514,1049.5598966998514,1049.5598966998514,1049.5598966998514,f,0.32065100013278425,1049.9105662000366,1049.9105662000366,1049.9105662000366,1049.9105662000366,1049.9105662000366,1049.9105662000366,1050.208218100015,1050.208218100015,1051.1053736000322,1051.1053736000322,1051.1222826000303,1051.1222826000303,1051.1222826000303,1051.1222826000303,1051.1222826000303,1051.1222826000303,1051.1222826000303,1051.1222826000303,1051.1222826000303,1051.1222826000303,1051.1222826000303,1051.1222826000303,1051.1222826000303,1051.1222826000303,1051.1222826000303,,,,,,53,77,46,14,77,44,None,None,90,90,[0.08611111111111111],[-0.2740740740740741],[1],[0],[0],[3.3653703001327813],['tijiao'],-0.6,0,,[],[],[],[],[],[],[],3.916666666666666,1.7449566998984665,1058.7836329999845,1060.5129297999665,,,,,,,,,,,1057.0201033998746,1057.0201033998746,1057.0201033998746,1057.0201033998746,1053.6326417999808,1053.6326417999808,1053.6326417999808,1053.6326417999808,1053.6326417999808,1053.6326417999808,1053.6326417999808,1053.6326417999808,0.00554310018196702,1053.6326417999808,,,,271,f,22,2023-04-04_11h08.39.374,RL,2022.2.4,60.234613826211564,
0,0.3,0.225,0,79,79,79,,,,,,,,,,None,1060.5129297999665,1060.5129297999665,1060.5129297999665,1060.5129297999665,1060.5129297999665,1060.5129297999665,f,0.40032190014608204,1060.9462784000207,1060.9462784000207,1060.9462784000207,1060.9462784000207,1060.9462784000207,1060.9462784000207,1061.244541999884,1061.244541999884,1062.1923054000363,1062.1923054000363,1062.1923054000363,1062.1923054000363,1062.1923054000363,1062.1923054000363,1062.1923054000363,1062.1923054000363,1062.1923054000363,1062.1923054000363,1062.1923054000363,1062.1923054000363,1062.1923054000363,1062.1923054000363,1062.1923054000363,1062.1923054000363,1062.1923054000363,1064.701406299835,1064.701406299835,1064.701406299835,1064.701406299835,1064.701406299835,50,80,45,18,80,49,5.0,1.8601995999924839,,,[],[],[],[],[],[],[],0.2,2,,[],[],[],[],[],[],[],None,None,1066.5872296998277,1068.4081102998462,,,,,,,,,,,,,,,,,,,,,,,,,,,,271,f,22,2023-04-04_11h08.39.374,RL,2022.2.4,60.234613826211564,
1,-0.3,-0.225,0,80,80,80,,,,,,,,,,None,1068.4081102998462,1068.4081102998462,1068.4081102998462,1068.4081102998462,1068.4081102998462,1068.4081102998462,f,0.5225305000785738,1068.9597063998226,1068.9597063998226,1068.9597063998226,1068.9597063998226,1068.9597063998226,1068.9597063998226,1069.2561148998793,1069.2561148998793,1070.187174399849,1070.187174399849,1070.187174399849,1070.187174399849,1070.187174399849,1070.187174399849,1070.187174399849,1070.187174399849,1070.187174399849,1070.187174399849,1070.187174399849,1070.187174399849,1070.187174399849,1070.187174399849,1070.187174399849,1070.187174399849,1070.187174399849,,,,,,46,76,36,26,76,27,None,None,,,[],[],[],[],[],[],[],0.6,1,50,[0.05740740740740741],[-0.33611111111111114],[1],[0],[0],[6.115520100109279],['tijiao_random_2'],4.824074074074074,1.8383424000348896,1080.690443499945,1082.337205799995,1072.7055319999345,1072.7055319999345,1072.7055319999345,1072.7055319999345,1072.7055319999345,1072.7055319999345,1072.7055319999345,1072.7055319999345,0.0061916999984532595,1072.7055319999345,1078.8344777999446,1078.8344777999446,1078.8344777999446,1078.8344777999446,,,,,,,,,,,,,,271,f,22,2023-04-04_11h08.39.374,RL,2022.2.4,60.234613826211564,
0,0.3,0.225,0,81,81,81,,,,,,,,,,None,1082.337205799995,1082.337205799995,1082.337205799995,1082.337205799995,1082.337205799995,1082.337205799995,f,0.28898969991132617,1082.6546467998996,1082.6546467998996,1082.6546467998996,1082.6546467998996,1082.6546467998996,1082.6546467998996,1082.952199399937,1082.952199399937,1084.364855099935,1084.364855099935,1084.364855099935,1084.364855099935,1084.364855099935,1084.364855099935,1084.364855099935,1084.364855099935,1084.364855099935,1084.364855099935,1084.364855099935,1084.364855099935,1084.364855099935,1084.364855099935,1084.364855099935,1084.364855099935,1084.364855099935,,,,,,46,76,44,35,76,36,None,None,80,80,[0.07777777777777778],[-0.287962962962963],[1],[0],[0],[4.262745999963954],['tijiao'],-0.6,0,,[],[],[],[],[],[],[],8.175925925925926,1.9778749998658895,1093.1565525999758,1094.8028736000415,,,,,,,,,,,1091.1602474998217,1091.1602474998217,1091.1602474998217,1091.1602474998217,1086.8750916998833,1086.8750916998833,1086.8750916998833,1086.8750916998833,1086.8750916998833,1086.8750916998833,1086.8750916998833,1086.8750916998833,0.005944900214672089,1086.8750916998833,,,,271,f,22,2023-04-04_11h08.39.374,RL,2022.2.4,60.234613826211564,
1,-0.3,-0.225,0,82,82,82,,,,,,,,,,None,1094.8028736000415,1094.8028736000415,1094.8028736000415,1094.8028736000415,1094.8028736000415,1094.8028736000415,f,0.26459469995461404,1095.087683300022,1095.087683300022,1095.087683300022,1095.087683300022,1095.087683300022,1095.087683300022,1095.3850831999443,1095.3850831999443,1096.8972097998485,1096.8972097998485,1096.8972097998485,1096.8972097998485,1096.8972097998485,1096.8972097998485,1096.8972097998485,1096.8972097998485,1096.8972097998485,1096.8972097998485,1096.8972097998485,1096.8972097998485,1096.8972097998485,1096.8972097998485,1096.8972097998485,1096.8972097998485,1096.8972097998485,,,,,,56,71,46,25,71,30,None,None,,,[],[],[],[],[],[],[],-0.6,1,40,[0.12962962962962962],[-0.25833333333333336],[1],[0],[0],[4.186423700070009],['tijiao_random_2'],6.981481481481481,1.6054325001314282,1105.2402937998995,1106.9697358999401,1099.4171778999735,1099.4171778999735,1099.4171778999735,1099.4171778999735,1099.4171778999735,1099.4171778999735,1099.4171778999735,1099.4171778999735,0.005822799867019057,1099.4171778999735,1103.6167639999185,1103.6167639999185,1103.6167639999185,1103.6167639999185,,,,,,,,,,,,,,271,f,22,2023-04-04_11h08.39.374,RL,2022.2.4,60.234613826211564,
0,0.3,0.225,0,83,83,83,,,,,,,,,,None,1106.9697358999401,1106.9697358999401,1106.9697358999401,1106.9697358999401,1106.9697358999401,1106.9697358999401,r,0.5895722999703139,1107.585750799859,1107.585750799859,1107.585750799859,1107.585750799859,1107.585750799859,1107.585750799859,1107.8842759998515,1107.8842759998515,1109.3132811000105,1109.3132811000105,1109.3132811000105,1109.3132811000105,1109.3132811000105,1109.3132811000105,1109.3132811000105,1109.3132811000105,1109.3132811000105,1109.3132811000105,1109.3132811000105,1109.3132811000105,1109.3132811000105,1109.3132811000105,1109.3132811000105,1109.3132811000105,1109.3132811000105,1111.8225344000384,1111.8225344000384,1111.8225344000384,1111.8225344000384,1111.8225344000384,48,75,50,32,48,18,3.0,1.9764485999476165,,,[],[],[],[],[],[],[],-0.6,2,,[],[],[],[],[],[],[],None,None,1113.8279252999928,1115.562979399925,,,,,,,,,,,,,,,,,,,,,,,,,,,,271,f,22,2023-04-04_11h08.39.374,RL,2022.2.4,60.234613826211564,
1,-0.3,-0.225,0,84,84,84,,,,,,,,,,None,1115.562979399925,1115.562979399925,1115.562979399925,1115.562979399925,1115.562979399925,1115.562979399925,f,0.3526886000763625,1115.9457034999505,1115.9457034999505,1115.9457034999505,1115.9457034999505,1115.9457034999505,1115.9457034999505,1116.2448872998357,1116.2448872998357,1117.1089673999231,1117.1089673999231,1117.1089673999231,1117.1089673999231,1117.1089673999231,1117.1089673999231,1117.1089673999231,1117.1089673999231,1117.1089673999231,1117.1089673999231,1117.1089673999231,1117.1089673999231,1117.1089673999231,1117.1089673999231,1117.1089673999231,1117.1089673999231,1117.1089673999231,,,,,,48,77,38,36,77,29,None,None,70,70,"[0.13240740740740742, 0.12129629629629629]","[-0.2490740740740741, -0.27037037037037037]","[1, 1]","[0, 0]","[0, 0]","[4.56010610004887, 4.958945000078529]",['tijiao'],0.2,0,,[],[],[],[],[],[],[],5.962962962962963,1.8129094000905752,1126.4324060999788,1128.411420899909,,,,,,,,,,,1124.6010785000399,1124.6010785000399,1124.6010785000399,1124.6010785000399,1119.6206741998903,1119.6206741998903,1119.6206741998903,1119.6206741998903,1119.6206741998903,1119.6206741998903,1119.6206741998903,1119.6206741998903,0.007461200002580881,1119.6206741998903,,,,271,f,22,2023-04-04_11h08.39.374,RL,2022.2.4,60.234613826211564,
0,0.3,0.225,0,85,85,85,,,,,,,,,,None,1128.411420899909,1128.411420899909,1128.411420899909,1128.411420899909,1128.411420899909,1128.411420899909,f,0.31493439991027117,1128.7455647999886,1128.7455647999886,1128.7455647999886,1128.7455647999886,1128.7455647999886,1128.7455647999886,1129.042930399999,1129.042930399999,1130.223147999961,1130.223147999961,1130.2397039998323,1130.2397039998323,1130.2397039998323,1130.2397039998323,1130.2397039998323,1130.2397039998323,1130.2397039998323,1130.2397039998323,1130.2397039998323,1130.2397039998323,1130.2397039998323,1130.2397039998323,1130.2397039998323,1130.2397039998323,1130.2397039998323,1132.7488865000196,1132.7488865000196,1132.7488865000196,1132.7488865000196,1132.7488865000196,52,81,41,38,81,26,5.0,2.042943200096488,,,[],[],[],[],[],[],[],-0.2,3,,[],[],[],[],[],[],[],None,None,1134.8178320999723,1136.7054483999964,,,,,,,,,,,,,,,,,,,,,,,,,,,,271,f,22,2023-04-04_11h08.39.374,RL,2022.2.4,60.234613826211564,
1,-0.3,-0.225,0,86,86,86,,,,,,,,,,None,1136.7054483999964,1136.7054483999964,1136.7054483999964,1136.7054483999964,1136.7054483999964,1136.7054483999964,f,0.4421329000033438,1137.1725312999915,1137.1725312999915,1137.1725312999915,1137.1725312999915,1137.1725312999915,1137.1725312999915,1137.47011679993,1137.47011679993,1138.6836158998776,1138.6836158998776,1138.6836158998776,1138.6836158998776,1138.6836158998776,1138.6836158998776,1138.6836158998776,1138.6836158998776,1138.6836158998776,1138.6836158998776,1138.6836158998776,1138.6836158998776,1138.6836158998776,1138.6836158998776,1138.6836158998776,1138.6836158998776,1138.6836158998776,,,,,,60,74,51,30,74,55,None,None,,,[],[],[],[],[],[],[],0.2,1,66,"[0.12222222222222222, 0.03333333333333333]","[0.004629629629629629, -0.287962962962963]","[0, 1]","[0, 0]","[1, 0]","[4.069842499913648, 4.868143699830398]",['tijiao_random_2'],7.148148148148148,2.1695825001224875,1148.2727351000067,1149.985713899834,1141.2030763998628,1141.2030763998628,1141.2030763998628,1141.2030763998628,1141.2030763998628,1141.2030763998628,1141.2030763998628,1141.2030763998628,0.0065518999472260475,1141.2030763998628,1146.0850474999752,1146.0850474999752,1146.0850474999752,1146.0850474999752,,,,,,,,,,,,,,271,f,22,2023-04-04_11h08.39.374,RL,2022.2.4,60.234613826211564,
0,0.3,0.225,0,87,87,87,,,,,,,,,,None,1149.985713899834,1149.985713899834,1149.985713899834,1149.985713899834,1149.985713899834,1149.985713899834,i,0.3533828998915851,1150.3707790998742,1150.3707790998742,1150.3707790998742,1150.3707790998742,1150.3707790998742,1150.3707790998742,1150.6674629999325,1150.6674629999325,1152.4455472999252,1152.4455472999252,1152.4455472999252,1152.4455472999252,1152.4455472999252,1152.4455472999252,1152.4455472999252,1152.4455472999252,1152.4455472999252,1152.4455472999252,1152.4455472999252,1152.4455472999252,1152.4455472999252,1152.4455472999252,1152.4455472999252,1152.4455472999252,1152.4455472999252,,,,,,51,71,45,34,45,30,None,None,,,[],[],[],[],[],[],[],-0.6,1,44,[0.03611111111111111],[-0.31666666666666665],[1],[0],[0],[4.052622199989855],['tijiao_random_2'],8.212962962962964,4.015905699925497,1163.065936199855,1164.9116791998968,1154.966244299896,1154.966244299896,1154.966244299896,1154.966244299896,1154.966244299896,1154.966244299896,1154.966244299896,1154.966244299896,0.006356399971991777,1154.966244299896,1159.0319669998717,1159.0319669998717,1159.0319669998717,1159.0319669998717,,,,,,,,,,,,,,271,f,22,2023-04-04_11h08.39.374,RL,2022.2.4,60.234613826211564,
1,-0.3,-0.225,0,88,88,88,,,,,,,,,,None,1164.9116791998968,1164.9116791998968,1164.9116791998968,1164.9116791998968,1164.9116791998968,1164.9116791998968,f,0.33680659998208284,1165.2780169998296,1165.2780169998296,1165.2780169998296,1165.2780169998296,1165.2780169998296,1165.2780169998296,1165.5769884998444,1165.5769884998444,1166.9730297999922,1166.9730297999922,1166.9730297999922,1166.9730297999922,1166.9730297999922,1166.9730297999922,1166.9730297999922,1166.9730297999922,1166.9730297999922,1166.9730297999922,1166.9730297999922,1166.9730297999922,1166.9730297999922,1166.9730297999922,1166.9730297999922,1166.9730297999922,1166.9730297999922,1169.4817395999562,1169.4817395999562,1169.4817395999562,1169.4817395999562,1169.4817395999562,42,73,37,28,73,33,3.0,2.0769907000940293,,,[],[],[],[],[],[],[],0.2,2,,[],[],[],[],[],[],[],None,None,1171.585359599907,1173.5545155999716,,,,,,,,,,,,,,,,,,,,,,,,,,,,271,f,22,2023-04-04_11h08.39.374,RL,2022.2.4,60.234613826211564,
0,0.3,0.225,0,89,89,89,,,,,,,,,,None,1173.5545155999716,1173.5545155999716,1173.5545155999716,1173.5545155999716,1173.5545155999716,1173.5545155999716,f,0.2794282000977546,1173.8543250998482,1173.8543250998482,1173.8543250998482,1173.8543250998482,1173.8543250998482,1173.8543250998482,1174.153545799898,1174.153545799898,1175.3168758000247,1175.3168758000247,1175.3168758000247,1175.3168758000247,1175.3168758000247,1175.3168758000247,1175.3168758000247,1175.3168758000247,1175.3168758000247,1175.3168758000247,1175.3168758000247,1175.3168758000247,1175.3168758000247,1175.3168758000247,1175.3168758000247,1175.3168758000247,1175.3168758000247,1177.8259099000134,1177.8259099000134,1177.8259099000134,1177.8259099000134,1177.8259099000134,53,69,49,15,69,65,3.0,2.210101099917665,,,[],[],[],[],[],[],[],0.2,2,,[],[],[],[],[],[],[],None,None,1180.062192299869,1181.7657402998302,,,,,,,,,,,,,,,,,,,,,,,,,,,,271,f,22,2023-04-04_11h08.39.374,RL,2022.2.4,60.234613826211564,
