bandit0,black_x_pos_random,black_y_pos_random,trials.thisRepN,trials.thisTrialN,trials.thisN,trials.thisIndex,instru_img1.started,instru_resp.started,instru_resp.keys,instru_resp.rt,instru_img2.started,instru_resp2.started,instru_resp2.keys,instru_resp2.rt,fixbefore_2.started,rest_response.keys,red.started,green.started,yellow.started,blue.started,choose_bandit.started,Fixation.started,choose_bandit.keys,choose_bandit.rt,black.started,red_2.started,green_2.started,yellow_2.started,blue_2.started,fixation_2.started,docs.started,wait_playerB.started,docs.stopped,wait_playerB.stopped,black.stopped,red_2.stopped,green_2.stopped,yellow_2.stopped,blue_2.stopped,fixation_2.stopped,black_com.started,reward_sub.started,palyerb.started,reward__sub.started,compare.started,red_compare.started,green_com.started,yellow_com.started,blue_com.started,image_3.started,slider.started,text.started,image_4.started,image_5.started,rewardyellow,rewardred,rewardblue,rewardgreen,subchoose,playerb,slider.response,slider.rt,expectself.text,value_expect_self,tijiao_click.x,tijiao_click.y,tijiao_click.leftButton,tijiao_click.midButton,tijiao_click.rightButton,tijiao_click.time,tijiao_click.clicked_name,random_whicharm,whether_ask,expect_random_3.text,tijiao_random.x,tijiao_random.y,tijiao_random.leftButton,tijiao_random.midButton,tijiao_random.rightButton,tijiao_random.time,tijiao_random.clicked_name,slider_2.response,slider_2.rt,intertrialfix.started,intertrialfix.stopped,jiantou_random.started,expect_red.started,expect_green.started,expect_yellow.started,expect_blue.started,expect_random_2.started,expect_random_3.started,tijiao_random_2.started,tijiao_random.started,check_2.started,slider_2.started,image_7.started,confi.started,notconfi.started,expectself.started,expect_self_black.started,expect_self.started,expect_self_red.started,expect_self_green.started,expect_self_yellow.started,expect_self_blue.started,tijiao.started,tijiao_click.started,check.started,bigx.started,bigx.stopped,rest_image.started,rest_response.started,rest_response.rt,participant,Gender,Age,date,expName,psychopyVersion,frameRate,
,,,,,,,53.12548067699936,53.12548067699936,space,18.344858477000344,,,,,,,,,,,,,,,,,,,,,,,,,,,,,,,,,,,,,,,,,,,,,,,,,,,,,,,,,,,,,,,,,,,,,,,,,,,,,,,,,,,,,,,,,,,,,,,,,,,,,,,,,172,f,23,2023-04-04_11h08.35.302,RL,2022.2.4,59.737073721748104,
,,,,,,,,,,,71.53447817899996,71.53447817899996,s,61.54337926399967,,,,,,,,,,,,,,,,,,,,,,,,,,,,,,,,,,,,,,,,,,,,,,,,,,,,,,,,,,,,,,,,,,,,,,,,,,,,,,,,,,,,,,,,,,,,,,,,,,,,,172,f,23,2023-04-04_11h08.35.302,RL,2022.2.4,59.737073721748104,
1,-0.3,-0.225,0,0,0,0,,,,,,,,,133.11795733799954,None,134.1776969929997,134.1776969929997,134.1776969929997,134.1776969929997,134.1776969929997,134.1776969929997,i,0.3369649659998686,134.59104383700014,134.59104383700014,134.59104383700014,134.59104383700014,134.59104383700014,134.59104383700014,134.8403518690002,134.8403518690002,135.70299782700022,135.70299782700022,135.7678990429995,135.7678990429995,135.7678990429995,135.7678990429995,135.7678990429995,135.7678990429995,135.7678990429995,135.7678990429995,135.7678990429995,135.7678990429995,135.7678990429995,135.7678990429995,135.7678990429995,135.7678990429995,135.7678990429995,138.2721598070002,138.2721598070002,138.2721598070002,138.2721598070002,138.2721598070002,44,70,43,53,43,52,6.0,2.5917181900003925,,,[],[],[],[],[],[],[],-0.6,2,,[],[],[],[],[],[],[],None,None,141.10772557000018,142.9202756959994,,,,,,,,,,,,,,,,,,,,,,,,,,,,,,172,f,23,2023-04-04_11h08.35.302,RL,2022.2.4,59.737073721748104,
0,0.3,0.225,0,1,1,1,,,,,,,,,,None,142.9202756959994,142.9202756959994,142.9202756959994,142.9202756959994,142.9202756959994,142.9202756959994,r,0.32018760800019663,143.28431734900005,143.28431734900005,143.28431734900005,143.28431734900005,143.28431734900005,143.28431734900005,143.54343924600016,143.54343924600016,145.0896941379997,145.0896941379997,145.13693273199988,145.13693273199988,145.13693273199988,145.13693273199988,145.13693273199988,145.13693273199988,145.13693273199988,145.13693273199988,145.13693273199988,145.13693273199988,145.13693273199988,145.13693273199988,145.13693273199988,145.13693273199988,145.13693273199988,,,,,,36,66,43,57,36,50,None,None,,,[],[],[],[],[],[],[],0.2,1,42,[0.11625],[-0.30875],[1],[0],[0],[7.59938517899991],['tijiao_random_2'],6.949999999999999,2.225041384999713,157.5530902649998,159.40995958700023,147.69038404499952,147.69038404499952,147.69038404499952,147.69038404499952,147.69038404499952,147.69038404499952,147.69038404499952,147.69038404499952,0.01055968099990423,147.69038404499952,155.33487914099987,155.33487914099987,155.33487914099987,155.33487914099987,,,,,,,,,,,,,,,,172,f,23,2023-04-04_11h08.35.302,RL,2022.2.4,59.737073721748104,
1,-0.3,-0.225,0,2,2,2,,,,,,,,,,None,159.40995958700023,159.40995958700023,159.40995958700023,159.40995958700023,159.40995958700023,159.40995958700023,j,0.9094405659998301,160.3711042650002,160.3711042650002,160.3711042650002,160.3711042650002,160.3711042650002,160.3711042650002,160.63682854199942,160.63682854199942,161.58911807799996,161.58911807799996,161.63054613199984,161.63054613199984,161.63054613199984,161.63054613199984,161.63054613199984,161.63054613199984,161.63054613199984,161.63054613199984,161.63054613199984,161.63054613199984,161.63054613199984,161.63054613199984,161.63054613199984,161.63054613199984,161.63054613199984,164.13033872599954,164.13033872599954,164.13033872599954,164.13033872599954,164.13033872599954,37,70,33,52,52,49,7.0,2.643851185999665,,,[],[],[],[],[],[],[],-0.2,2,,[],[],[],[],[],[],[],None,None,166.82020328399994,168.798856075,,,,,,,,,,,,,,,,,,,,,,,,,,,,,,172,f,23,2023-04-04_11h08.35.302,RL,2022.2.4,59.737073721748104,
0,0.3,0.225,0,3,3,3,,,,,,,,,,None,168.798856075,168.798856075,168.798856075,168.798856075,168.798856075,168.798856075,r,0.6217982660000416,169.47735144699982,169.47735144699982,169.47735144699982,169.47735144699982,169.47735144699982,169.47735144699982,169.75491038600012,169.75491038600012,171.27667815299992,171.27667815299992,171.30089468499955,171.30089468499955,171.30089468499955,171.30089468499955,171.30089468499955,171.30089468499955,171.30089468499955,171.30089468499955,171.30089468499955,171.30089468499955,171.30089468499955,171.30089468499955,171.30089468499955,171.30089468499955,171.30089468499955,,,,,,44,53,39,47,44,54,None,None,,,[],[],[],[],[],[],[],0.6,1,46,[0.07875],[-0.29125],[1],[0],[0],[6.137981761999981],['tijiao_random_2'],7.875,2.84673696200025,182.85702593399947,184.65671364399986,173.83381573399947,173.83381573399947,173.83381573399947,173.83381573399947,173.83381573399947,173.83381573399947,173.83381573399947,173.83381573399947,0.011622889999671315,173.83381573399947,179.98703276099968,179.98703276099968,179.98703276099968,179.98703276099968,,,,,,,,,,,,,,,,172,f,23,2023-04-04_11h08.35.302,RL,2022.2.4,59.737073721748104,
1,-0.3,-0.225,0,4,4,4,,,,,,,,,,None,184.65671364399986,184.65671364399986,184.65671364399986,184.65671364399986,184.65671364399986,184.65671364399986,f,0.7090469309996479,185.42004602899942,185.42004602899942,185.42004602899942,185.42004602899942,185.42004602899942,185.42004602899942,185.6796688889999,185.6796688889999,186.58369699299965,186.58369699299965,186.62413117799952,186.62413117799952,186.62413117799952,186.62413117799952,186.62413117799952,186.62413117799952,186.62413117799952,186.62413117799952,186.62413117799952,186.62413117799952,186.62413117799952,186.62413117799952,186.62413117799952,186.62413117799952,186.62413117799952,189.13189562200023,189.13189562200023,189.13189562200023,189.13189562200023,189.13189562200023,40,54,38,50,54,50,7.0,2.8031082739998965,,,[],[],[],[],[],[],[],0.2,3,,[],[],[],[],[],[],[],None,None,191.978107121,193.72586468999998,,,,,,,,,,,,,,,,,,,,,,,,,,,,,,172,f,23,2023-04-04_11h08.35.302,RL,2022.2.4,59.737073721748104,
0,0.3,0.225,0,5,5,5,,,,,,,,,,None,193.72586468999998,193.72586468999998,193.72586468999998,193.72586468999998,193.72586468999998,193.72586468999998,i,0.7691768889999366,194.546249817,194.546249817,194.546249817,194.546249817,194.546249817,194.546249817,194.82032453800002,194.82032453800002,196.1898899509997,196.1898899509997,196.2304657019995,196.2304657019995,196.2304657019995,196.2304657019995,196.2304657019995,196.2304657019995,196.2304657019995,196.2304657019995,196.2304657019995,196.2304657019995,196.2304657019995,196.2304657019995,196.2304657019995,196.2304657019995,196.2304657019995,,,,,,46,63,28,44,28,66,None,None,36,36,[-0.0275],[-0.29625],[1],[0],[0],[6.043774802999906],['tijiao'],0.2,0,,[],[],[],[],[],[],[],6.0249999999999995,2.379664130000492,207.2276151289998,208.85145636299967,,,,,,,,,,,204.82970312499947,204.82970312499947,204.82970312499947,204.82970312499947,198.7560637609995,198.7560637609995,198.7560637609995,198.7560637609995,198.7560637609995,198.7560637609995,198.7560637609995,198.7560637609995,0.00876707599945803,198.7560637609995,,,,,,172,f,23,2023-04-04_11h08.35.302,RL,2022.2.4,59.737073721748104,
1,-0.3,-0.225,0,6,6,6,,,,,,,,,,None,208.85145636299967,208.85145636299967,208.85145636299967,208.85145636299967,208.85145636299967,208.85145636299967,r,0.5760510310001337,209.47666521300016,209.47666521300016,209.47666521300016,209.47666521300016,209.47666521300016,209.47666521300016,209.74283917899993,209.74283917899993,210.99348768599975,210.99348768599975,211.03428775999964,211.03428775999964,211.03428775999964,211.03428775999964,211.03428775999964,211.03428775999964,211.03428775999964,211.03428775999964,211.03428775999964,211.03428775999964,211.03428775999964,211.03428775999964,211.03428775999964,211.03428775999964,211.03428775999964,213.52892210899972,213.52892210899972,213.52892210899972,213.52892210899972,213.52892210899972,33,59,37,48,33,50,5.0,2.9515010530003565,,,[],[],[],[],[],[],[],-0.2,3,,[],[],[],[],[],[],[],None,None,216.52511738300018,218.43945227199947,,,,,,,,,,,,,,,,,,,,,,,,,,,,,,172,f,23,2023-04-04_11h08.35.302,RL,2022.2.4,59.737073721748104,
0,0.3,0.225,0,7,7,7,,,,,,,,,,None,218.43945227199947,218.43945227199947,218.43945227199947,218.43945227199947,218.43945227199947,218.43945227199947,i,0.5932331809999596,219.07867128399994,219.07867128399994,219.07867128399994,219.07867128399994,219.07867128399994,219.07867128399994,219.3465714670001,219.3465714670001,221.10195522699996,221.10195522699996,221.14220534000015,221.14220534000015,221.14220534000015,221.14220534000015,221.14220534000015,221.14220534000015,221.14220534000015,221.14220534000015,221.14220534000015,221.14220534000015,221.14220534000015,221.14220534000015,221.14220534000015,221.14220534000015,221.14220534000015,,,,,,36,66,47,41,47,63,None,None,,,[],[],[],[],[],[],[],0.2,1,49,[0.0825],[-0.27],[1],[0],[0],[6.8531108560000575],['tijiao_random_2'],5.0875,2.4159782419992553,232.98430859600012,234.9304770459994,223.67936421600007,223.67936421600007,223.67936421600007,223.67936421600007,223.67936421600007,223.67936421600007,223.67936421600007,223.67936421600007,0.010158081999179558,223.67936421600007,230.54785663299936,230.54785663299936,230.54785663299936,230.54785663299936,,,,,,,,,,,,,,,,172,f,23,2023-04-04_11h08.35.302,RL,2022.2.4,59.737073721748104,
1,-0.3,-0.225,0,8,8,8,,,,,,,,,,None,234.9304770459994,234.9304770459994,234.9304770459994,234.9304770459994,234.9304770459994,234.9304770459994,f,0.9247374219994526,235.90046288699978,235.90046288699978,235.90046288699978,235.90046288699978,235.90046288699978,235.90046288699978,236.17079469999953,236.17079469999953,237.7144687079999,237.7144687079999,237.73529542799952,237.73529542799952,237.73529542799952,237.73529542799952,237.73529542799952,237.73529542799952,237.73529542799952,237.73529542799952,237.73529542799952,237.73529542799952,237.73529542799952,237.73529542799952,237.73529542799952,237.73529542799952,237.73529542799952,240.25067383199985,240.25067383199985,240.25067383199985,240.25067383199985,240.25067383199985,31,56,47,42,56,46,6.0,1.6915487449996363,,,[],[],[],[],[],[],[],0.6,3,,[],[],[],[],[],[],[],None,None,241.98623237999982,243.76825444799942,,,,,,,,,,,,,,,,,,,,,,,,,,,,,,172,f,23,2023-04-04_11h08.35.302,RL,2022.2.4,59.737073721748104,
0,0.3,0.225,0,9,9,9,,,,,,,,,,None,243.76825444799942,243.76825444799942,243.76825444799942,243.76825444799942,243.76825444799942,243.76825444799942,i,0.5556450419999237,244.36347974299952,244.36347974299952,244.36347974299952,244.36347974299952,244.36347974299952,244.36347974299952,244.62985704599942,244.62985704599942,246.59078902199963,246.59078902199963,246.63111539500005,246.63111539500005,246.63111539500005,246.63111539500005,246.63111539500005,246.63111539500005,246.63111539500005,246.63111539500005,246.63111539500005,246.63111539500005,246.63111539500005,246.63111539500005,246.63111539500005,246.63111539500005,246.63111539500005,,,,,,27,58,43,34,43,46,None,None,47,47,[0.06],[-0.26375],[1],[0],[0],[5.224055538999892],['tijiao'],0.2,0,,[],[],[],[],[],[],[],8.887500000000001,1.7495814789999713,256.1677138650002,258.00807595599963,,,,,,,,,,,254.40618807099963,254.40618807099963,254.40618807099963,254.40618807099963,249.14617969899973,249.14617969899973,249.14617969899973,249.14617969899973,249.14617969899973,249.14617969899973,249.14617969899973,249.14617969899973,0.008803356000498752,249.14617969899973,,,,,,172,f,23,2023-04-04_11h08.35.302,RL,2022.2.4,59.737073721748104,
1,-0.3,-0.225,0,10,10,10,,,,,,,,,,None,258.00807595599963,258.00807595599963,258.00807595599963,258.00807595599963,258.00807595599963,258.00807595599963,j,0.314647887999854,258.3794129219996,258.3794129219996,258.3794129219996,258.3794129219996,258.3794129219996,258.3794129219996,258.64833662099954,258.64833662099954,259.87591080399943,259.87591080399943,259.9156861089996,259.9156861089996,259.9156861089996,259.9156861089996,259.9156861089996,259.9156861089996,259.9156861089996,259.9156861089996,259.9156861089996,259.9156861089996,259.9156861089996,259.9156861089996,259.9156861089996,259.9156861089996,259.9156861089996,,,,,,26,49,43,48,48,49,None,None,,,[],[],[],[],[],[],[],-0.2,1,60,[0.06125],[-0.32625],[1],[0],[0],[3.937930857000538],['tijiao_random_2'],7.2749999999999995,1.9856808969998383,268.4180257279995,270.097207326,262.45968680900023,262.45968680900023,262.45968680900023,262.45968680900023,262.45968680900023,262.45968680900023,262.45968680900023,262.45968680900023,0.010114145000443386,262.45968680900023,266.413524863,266.413524863,266.413524863,266.413524863,,,,,,,,,,,,,,,,172,f,23,2023-04-04_11h08.35.302,RL,2022.2.4,59.737073721748104,
0,0.3,0.225,0,11,11,11,,,,,,,,,,None,270.097207326,270.097207326,270.097207326,270.097207326,270.097207326,270.097207326,j,0.9168801829991935,271.0671266919999,271.0671266919999,271.0671266919999,271.0671266919999,271.0671266919999,271.0671266919999,271.3373059209998,271.3373059209998,273.13265264300026,273.13265264300026,273.1750756699994,273.1750756699994,273.1750756699994,273.1750756699994,273.1750756699994,273.1750756699994,273.1750756699994,273.1750756699994,273.1750756699994,273.1750756699994,273.1750756699994,273.1750756699994,273.1750756699994,273.1750756699994,273.1750756699994,,,,,,25,53,34,41,41,51,None,None,42,42,[-0.055],[-0.3],[1],[0],[0],[5.431197955000243],['tijiao'],-0.2,0,,[],[],[],[],[],[],[],7.5375000000000005,2.2113177989995165,283.3894157759996,285.18761283999993,,,,,,,,,,,281.15661960499983,281.15661960499983,281.15661960499983,281.15661960499983,275.69538402299986,275.69538402299986,275.69538402299986,275.69538402299986,275.69538402299986,275.69538402299986,275.69538402299986,275.69538402299986,0.009647924000091734,275.69538402299986,,,,,,172,f,23,2023-04-04_11h08.35.302,RL,2022.2.4,59.737073721748104,
1,-0.3,-0.225,0,12,12,12,,,,,,,,,,None,285.18761283999993,285.18761283999993,285.18761283999993,285.18761283999993,285.18761283999993,285.18761283999993,r,0.6229886590008391,285.85806642900025,285.85806642900025,285.85806642900025,285.85806642900025,285.85806642900025,285.85806642900025,286.12866300599944,286.12866300599944,287.3256049419997,287.3256049419997,287.3493572839998,287.3493572839998,287.3493572839998,287.3493572839998,287.3493572839998,287.3493572839998,287.3493572839998,287.3493572839998,287.3493572839998,287.3493572839998,287.3493572839998,287.3493572839998,287.3493572839998,287.3493572839998,287.3493572839998,289.84613530499973,289.84613530499973,289.84613530499973,289.84613530499973,289.84613530499973,22,46,39,43,22,47,5.0,1.4235681669997575,,,[],[],[],[],[],[],[],-0.2,2,,[],[],[],[],[],[],[],None,None,291.31514513,293.29064466399996,,,,,,,,,,,,,,,,,,,,,,,,,,,,,,172,f,23,2023-04-04_11h08.35.302,RL,2022.2.4,59.737073721748104,
0,0.3,0.225,0,13,13,13,,,,,,,,,,None,293.29064466399996,293.29064466399996,293.29064466399996,293.29064466399996,293.29064466399996,293.29064466399996,f,0.8268188729998656,294.15943949600023,294.15943949600023,294.15943949600023,294.15943949600023,294.15943949600023,294.15943949600023,294.42801744499957,294.42801744499957,295.7919452870001,295.7919452870001,295.82953783099947,295.82953783099947,295.82953783099947,295.82953783099947,295.82953783099947,295.82953783099947,295.82953783099947,295.82953783099947,295.82953783099947,295.82953783099947,295.82953783099947,295.82953783099947,295.82953783099947,295.82953783099947,295.82953783099947,298.33156886599954,298.33156886599954,298.33156886599954,298.33156886599954,298.33156886599954,17,56,40,42,56,51,6.0,2.42221808100021,,,[],[],[],[],[],[],[],-0.2,2,,[],[],[],[],[],[],[],None,None,300.79990148700017,302.32890993,,,,,,,,,,,,,,,,,,,,,,,,,,,,,,172,f,23,2023-04-04_11h08.35.302,RL,2022.2.4,59.737073721748104,
1,-0.3,-0.225,0,14,14,14,,,,,,,,,,None,302.32890993,302.32890993,302.32890993,302.32890993,302.32890993,302.32890993,i,0.7854196649996084,303.1567268789995,303.1567268789995,303.1567268789995,303.1567268789995,303.1567268789995,303.1567268789995,303.42300462799994,303.42300462799994,304.8056085119997,304.8056085119997,304.84510536699963,304.84510536699963,304.84510536699963,304.84510536699963,304.84510536699963,304.84510536699963,304.84510536699963,304.84510536699963,304.84510536699963,304.84510536699963,304.84510536699963,304.84510536699963,304.84510536699963,304.84510536699963,304.84510536699963,307.34567212599995,307.34567212599995,307.34567212599995,307.34567212599995,307.34567212599995,18,57,40,37,40,47,6.0,1.8942066420004267,,,[],[],[],[],[],[],[],-0.6,2,,[],[],[],[],[],[],[],None,None,309.28519364600015,311.0331100449994,,,,,,,,,,,,,,,,,,,,,,,,,,,,,,172,f,23,2023-04-04_11h08.35.302,RL,2022.2.4,59.737073721748104,
0,0.3,0.225,0,15,15,15,,,,,,,,,,None,311.0331100449994,311.0331100449994,311.0331100449994,311.0331100449994,311.0331100449994,311.0331100449994,f,0.4570740700000897,311.5427419890002,311.5427419890002,311.5427419890002,311.5427419890002,311.5427419890002,311.5427419890002,311.807456773,311.807456773,312.82148061599946,312.82148061599946,312.8606631599996,312.8606631599996,312.8606631599996,312.8606631599996,312.8606631599996,312.8606631599996,312.8606631599996,312.8606631599996,312.8606631599996,312.8606631599996,312.8606631599996,312.8606631599996,312.8606631599996,312.8606631599996,312.8606631599996,315.3709759209996,315.3709759209996,315.3709759209996,315.3709759209996,315.3709759209996,10,59,37,21,59,49,7.0,1.7240718220000417,,,[],[],[],[],[],[],[],0.6,2,,[],[],[],[],[],[],[],None,None,317.1390808549995,318.8198995550001,,,,,,,,,,,,,,,,,,,,,,,,,,,,,,172,f,23,2023-04-04_11h08.35.302,RL,2022.2.4,59.737073721748104,
1,-0.3,-0.225,0,16,16,16,,,,,,,,,,None,318.8198995550001,318.8198995550001,318.8198995550001,318.8198995550001,318.8198995550001,318.8198995550001,i,1.1298091530006786,319.9930880849997,319.9930880849997,319.9930880849997,319.9930880849997,319.9930880849997,319.9930880849997,320.26217387499946,320.26217387499946,321.8637170080001,321.8637170080001,321.90364895399944,321.90364895399944,321.90364895399944,321.90364895399944,321.90364895399944,321.90364895399944,321.90364895399944,321.90364895399944,321.90364895399944,321.90364895399944,321.90364895399944,321.90364895399944,321.90364895399944,321.90364895399944,321.90364895399944,,,,,,17,48,42,38,42,63,None,None,,,[],[],[],[],[],[],[],0.2,1,48,[0.14375],[-0.315],[1],[0],[0],[7.025899592000314],['tijiao_random_2'],8.95,2.081206992999796,333.58589400300025,335.49285219899957,324.4434254789994,324.4434254789994,324.4434254789994,324.4434254789994,324.4434254789994,324.4434254789994,324.4434254789994,324.4434254789994,0.01004470800035051,324.4434254789994,331.4861540229995,331.4861540229995,331.4861540229995,331.4861540229995,,,,,,,,,,,,,,,,172,f,23,2023-04-04_11h08.35.302,RL,2022.2.4,59.737073721748104,
0,0.3,0.225,0,17,17,17,,,,,,,,,,None,335.49285219899957,335.49285219899957,335.49285219899957,335.49285219899957,335.49285219899957,335.49285219899957,i,0.8586831860002349,336.39813214199967,336.39813214199967,336.39813214199967,336.39813214199967,336.39813214199967,336.39813214199967,336.6701125459995,336.6701125459995,338.21550278799987,338.21550278799987,338.23754328799987,338.23754328799987,338.23754328799987,338.23754328799987,338.23754328799987,338.23754328799987,338.23754328799987,338.23754328799987,338.23754328799987,338.23754328799987,338.23754328799987,338.23754328799987,338.23754328799987,338.23754328799987,338.23754328799987,340.7401629469996,340.7401629469996,340.7401629469996,340.7401629469996,340.7401629469996,16,56,41,38,41,53,6.0,2.200331295000069,,,[],[],[],[],[],[],[],-0.2,2,,[],[],[],[],[],[],[],None,None,342.9849132339996,344.9154272810001,,,,,,,,,,,,,,,,,,,,,,,,,,,,,,172,f,23,2023-04-04_11h08.35.302,RL,2022.2.4,59.737073721748104,
1,-0.3,-0.225,0,18,18,18,,,,,,,,,,None,344.9154272810001,344.9154272810001,344.9154272810001,344.9154272810001,344.9154272810001,344.9154272810001,f,0.3685709829996995,345.33759747899967,345.33759747899967,345.33759747899967,345.33759747899967,345.33759747899967,345.33759747899967,345.60570403400015,345.60570403400015,347.4956682390002,347.4956682390002,347.5311246889996,347.5311246889996,347.5311246889996,347.5311246889996,347.5311246889996,347.5311246889996,347.5311246889996,347.5311246889996,347.5311246889996,347.5311246889996,347.5311246889996,347.5311246889996,347.5311246889996,347.5311246889996,347.5311246889996,,,,,,14,48,41,33,48,47,None,None,52,52,[0.0175],[-0.305],[1],[0],[0],[6.813199408999935],['tijiao'],0.6,0,,[],[],[],[],[],[],[],8.875,1.931909257999905,358.8516055049995,360.40508941999997,,,,,,,,,,,356.90451637499973,356.90451637499973,356.90451637499973,356.90451637499973,350.06145763899985,350.06145763899985,350.06145763899985,350.06145763899985,350.06145763899985,350.06145763899985,350.06145763899985,350.06145763899985,0.008830151999973168,350.06145763899985,,,,,,172,f,23,2023-04-04_11h08.35.302,RL,2022.2.4,59.737073721748104,
0,0.3,0.225,0,19,19,19,,,,,,,,,,None,360.40508941999997,360.40508941999997,360.40508941999997,360.40508941999997,360.40508941999997,360.40508941999997,f,0.4179703840000002,360.87723491499946,360.87723491499946,360.87723491499946,360.87723491499946,360.87723491499946,360.87723491499946,361.14628932399955,361.14628932399955,363.0476125269997,363.0476125269997,363.07052055700024,363.07052055700024,363.07052055700024,363.07052055700024,363.07052055700024,363.07052055700024,363.07052055700024,363.07052055700024,363.07052055700024,363.07052055700024,363.07052055700024,363.07052055700024,363.07052055700024,363.07052055700024,363.07052055700024,,,,,,14,49,45,40,49,47,None,None,51,51,[-0.01875],[-0.30125],[1],[0],[0],[6.704485201999887],['tijiao'],-0.6,0,,[],[],[],[],[],[],[],8.4375,2.3222833810004886,374.66066478299945,376.31429251400004,,,,,,,,,,,372.3209557660002,372.3209557660002,372.3209557660002,372.3209557660002,365.5864253259997,365.5864253259997,365.5864253259997,365.5864253259997,365.5864253259997,365.5864253259997,365.5864253259997,365.5864253259997,0.009230388999640127,365.5864253259997,,,,,,172,f,23,2023-04-04_11h08.35.302,RL,2022.2.4,59.737073721748104,
1,-0.3,-0.225,0,20,20,20,,,,,,,,,,None,376.31429251400004,376.31429251400004,376.31429251400004,376.31429251400004,376.31429251400004,376.31429251400004,None,,,,,,,,,,,,,,,,,,,,,,,,,,,,,,,,11,50,40,37,0,**,None,None,,,[],[],[],[],[],[],[],-0.6,3,,[],[],[],[],[],[],[],None,None,383.8986225239996,385.785395033,,,,,,,,,,,,,,,,,,,,,,,,,377.8838087009999,383.8986225239996,,,,172,f,23,2023-04-04_11h08.35.302,RL,2022.2.4,59.737073721748104,
0,0.3,0.225,0,21,21,21,,,,,,,,,,None,385.785395033,385.785395033,385.785395033,385.785395033,385.785395033,385.785395033,f,0.34826111099937407,386.17889057199955,386.17889057199955,386.17889057199955,386.17889057199955,386.17889057199955,386.17889057199955,386.45092853499955,386.45092853499955,387.32407946199964,387.32407946199964,387.3641663569997,387.3641663569997,387.3641663569997,387.3641663569997,387.3641663569997,387.3641663569997,387.3641663569997,387.3641663569997,387.3641663569997,387.3641663569997,387.3641663569997,387.3641663569997,387.3641663569997,387.3641663569997,387.3641663569997,,,,,,17,47,44,48,47,64,None,None,46,46,[0.0425],[-0.31125],[1],[0],[0],[7.29684300900044],['tijiao'],0.6,0,,[],[],[],[],[],[],[],7.0,1.5468379999992976,398.7852814299995,400.4919239820001,,,,,,,,,,,397.2168358509998,397.2168358509998,397.2168358509998,397.2168358509998,389.8932888299996,389.8932888299996,389.8932888299996,389.8932888299996,389.8932888299996,389.8932888299996,389.8932888299996,389.8932888299996,0.008801649999440997,389.8932888299996,,,,,,172,f,23,2023-04-04_11h08.35.302,RL,2022.2.4,59.737073721748104,
1,-0.3,-0.225,0,22,22,22,,,,,,,,,,None,400.4919239820001,400.4919239820001,400.4919239820001,400.4919239820001,400.4919239820001,400.4919239820001,j,0.3862032460001501,400.9313515240001,400.9313515240001,400.9313515240001,400.9313515240001,400.9313515240001,400.9313515240001,401.1992673499999,401.1992673499999,402.30849212500016,402.30849212500016,402.3294673189994,402.3294673189994,402.3294673189994,402.3294673189994,402.3294673189994,402.3294673189994,402.3294673189994,402.3294673189994,402.3294673189994,402.3294673189994,402.3294673189994,402.3294673189994,402.3294673189994,402.3294673189994,402.3294673189994,404.8289951930001,404.8289951930001,404.8289951930001,404.8289951930001,404.8289951930001,15,46,43,36,36,49,5.0,2.1258167830001184,,,[],[],[],[],[],[],[],-0.2,2,,[],[],[],[],[],[],[],None,None,407.0007264799997,408.5953222449998,,,,,,,,,,,,,,,,,,,,,,,,,,,,,,172,f,23,2023-04-04_11h08.35.302,RL,2022.2.4,59.737073721748104,
0,0.3,0.225,0,23,23,23,,,,,,,,,,None,408.5953222449998,408.5953222449998,408.5953222449998,408.5953222449998,408.5953222449998,408.5953222449998,r,0.2408238239995626,408.88452311699984,408.88452311699984,408.88452311699984,408.88452311699984,408.88452311699984,408.88452311699984,409.154547653,409.154547653,410.59253930900013,410.59253930900013,410.6142004739995,410.6142004739995,410.6142004739995,410.6142004739995,410.6142004739995,410.6142004739995,410.6142004739995,410.6142004739995,410.6142004739995,410.6142004739995,410.6142004739995,410.6142004739995,410.6142004739995,410.6142004739995,410.6142004739995,413.1166197069997,413.1166197069997,413.1166197069997,413.1166197069997,413.1166197069997,21,46,48,33,21,68,5.0,1.5082093609998992,,,[],[],[],[],[],[],[],0.6,2,,[],[],[],[],[],[],[],None,None,414.6699263929995,416.44949791699946,,,,,,,,,,,,,,,,,,,,,,,,,,,,,,172,f,23,2023-04-04_11h08.35.302,RL,2022.2.4,59.737073721748104,
1,-0.3,-0.225,0,24,24,24,,,,,,,,,,None,416.44949791699946,416.44949791699946,416.44949791699946,416.44949791699946,416.44949791699946,416.44949791699946,f,0.4708045799998217,416.958457449,416.958457449,416.958457449,416.958457449,416.958457449,416.958457449,417.2250264479999,417.2250264479999,419.128609075,419.128609075,419.1682947099998,419.1682947099998,419.1682947099998,419.1682947099998,419.1682947099998,419.1682947099998,419.1682947099998,419.1682947099998,419.1682947099998,419.1682947099998,419.1682947099998,419.1682947099998,419.1682947099998,419.1682947099998,419.1682947099998,,,,,,15,41,41,43,41,55,None,None,41,41,[0.01375],[-0.2675],[1],[0],[0],[4.353618184999505],['tijiao'],-0.2,0,,[],[],[],[],[],[],[],8.0125,1.5560259320000114,427.65032424699984,429.6057229620001,,,,,,,,,,,426.07737085400004,426.07737085400004,426.07737085400004,426.07737085400004,421.6924828479996,421.6924828479996,421.6924828479996,421.6924828479996,421.6924828479996,421.6924828479996,421.6924828479996,421.6924828479996,0.008281007999357826,421.6924828479996,,,,,,172,f,23,2023-04-04_11h08.35.302,RL,2022.2.4,59.737073721748104,
0,0.3,0.225,0,25,25,25,,,,,,,,,,None,429.6057229620001,429.6057229620001,429.6057229620001,429.6057229620001,429.6057229620001,429.6057229620001,j,0.4774923810000473,430.1292088609998,430.1292088609998,430.1292088609998,430.1292088609998,430.1292088609998,430.1292088609998,430.39689512599944,430.39689512599944,432.17445889400005,432.17445889400005,432.21259871500024,432.21259871500024,432.21259871500024,432.21259871500024,432.21259871500024,432.21259871500024,432.21259871500024,432.21259871500024,432.21259871500024,432.21259871500024,432.21259871500024,432.21259871500024,432.21259871500024,432.21259871500024,432.21259871500024,434.7096166659994,434.7096166659994,434.7096166659994,434.7096166659994,434.7096166659994,21,50,54,27,27,38,4.0,2.5081935660000454,,,[],[],[],[],[],[],[],0.2,3,,[],[],[],[],[],[],[],None,None,437.26460604800013,439.22635588699995,,,,,,,,,,,,,,,,,,,,,,,,,,,,,,172,f,23,2023-04-04_11h08.35.302,RL,2022.2.4,59.737073721748104,
1,-0.3,-0.225,0,26,26,26,,,,,,,,,,None,439.22635588699995,439.22635588699995,439.22635588699995,439.22635588699995,439.22635588699995,439.22635588699995,i,0.4592519079997146,439.73238380099974,439.73238380099974,439.73238380099974,439.73238380099974,439.73238380099974,439.73238380099974,440.00241998599995,440.00241998599995,441.2034791899996,441.2034791899996,441.24384296399967,441.24384296399967,441.24384296399967,441.24384296399967,441.24384296399967,441.24384296399967,441.24384296399967,441.24384296399967,441.24384296399967,441.24384296399967,441.24384296399967,441.24384296399967,441.24384296399967,441.24384296399967,441.24384296399967,443.7494993680002,443.7494993680002,443.7494993680002,443.7494993680002,443.7494993680002,25,43,49,38,49,47,5.0,2.275789261000682,,,[],[],[],[],[],[],[],-0.6,2,,[],[],[],[],[],[],[],None,None,446.06997967499956,448.0138378679994,,,,,,,,,,,,,,,,,,,,,,,,,,,,,,172,f,23,2023-04-04_11h08.35.302,RL,2022.2.4,59.737073721748104,
0,0.3,0.225,0,27,27,27,,,,,,,,,,None,448.0138378679994,448.0138378679994,448.0138378679994,448.0138378679994,448.0138378679994,448.0138378679994,f,0.5401441009998962,448.60197049699946,448.60197049699946,448.60197049699946,448.60197049699946,448.60197049699946,448.60197049699946,448.87291078199996,448.87291078199996,450.0446611689995,450.0446611689995,450.082974336,450.082974336,450.082974336,450.082974336,450.082974336,450.082974336,450.082974336,450.082974336,450.082974336,450.082974336,450.082974336,450.082974336,450.082974336,450.082974336,450.082974336,452.58963996999955,452.58963996999955,452.58963996999955,452.58963996999955,452.58963996999955,20,46,45,32,46,36,6.0,2.0361740429998463,,,[],[],[],[],[],[],[],0.2,3,,[],[],[],[],[],[],[],None,None,454.6717463690002,456.65195393199974,,,,,,,,,,,,,,,,,,,,,,,,,,,,,,172,f,23,2023-04-04_11h08.35.302,RL,2022.2.4,59.737073721748104,
1,-0.3,-0.225,0,28,28,28,,,,,,,,,,None,456.65195393199974,456.65195393199974,456.65195393199974,456.65195393199974,456.65195393199974,456.65195393199974,i,0.4873090989995035,457.1947142979998,457.1947142979998,457.1947142979998,457.1947142979998,457.1947142979998,457.1947142979998,457.47092714599967,457.47092714599967,459.102255238,459.102255238,459.12094718699973,459.12094718699973,459.12094718699973,459.12094718699973,459.12094718699973,459.12094718699973,459.12094718699973,459.12094718699973,459.12094718699973,459.12094718699973,459.12094718699973,459.12094718699973,459.12094718699973,459.12094718699973,459.12094718699973,461.62418773899935,461.62418773899935,461.62418773899935,461.62418773899935,461.62418773899935,15,44,49,31,49,54,5.0,2.775299451999672,,,[],[],[],[],[],[],[],-0.2,2,,[],[],[],[],[],[],[],None,None,464.44371206399956,466.05457760099944,,,,,,,,,,,,,,,,,,,,,,,,,,,,,,172,f,23,2023-04-04_11h08.35.302,RL,2022.2.4,59.737073721748104,
0,0.3,0.225,0,29,29,29,,,,,,,,,,None,466.05457760099944,466.05457760099944,466.05457760099944,466.05457760099944,466.05457760099944,466.05457760099944,f,0.40633872499984136,466.51467496700025,466.51467496700025,466.51467496700025,466.51467496700025,466.51467496700025,466.51467496700025,466.7801012709997,466.7801012709997,467.9830500099997,467.9830500099997,468.02334642000005,468.02334642000005,468.02334642000005,468.02334642000005,468.02334642000005,468.02334642000005,468.02334642000005,468.02334642000005,468.02334642000005,468.02334642000005,468.02334642000005,468.02334642000005,468.02334642000005,468.02334642000005,468.02334642000005,,,,,,19,34,47,30,34,63,None,None,,,[],[],[],[],[],[],[],-0.2,1,40,[-0.00125],[-0.28],[1],[0],[0],[3.74651526299931],['tijiao_random_2'],6.6000000000000005,2.068502666000313,476.4146042989996,478.14418631599983,470.5634956819995,470.5634956819995,470.5634956819995,470.5634956819995,470.5634956819995,470.5634956819995,470.5634956819995,470.5634956819995,0.010661978999451094,470.5634956819995,474.32722173299953,474.32722173299953,474.32722173299953,474.32722173299953,,,,,,,,,,,,,,,,172,f,23,2023-04-04_11h08.35.302,RL,2022.2.4,59.737073721748104,
1,-0.3,-0.225,0,30,30,30,,,,,,,,,,None,478.14418631599983,478.14418631599983,478.14418631599983,478.14418631599983,478.14418631599983,478.14418631599983,j,0.3736683549996087,478.5734833480001,478.5734833480001,478.5734833480001,478.5734833480001,478.5734833480001,478.5734833480001,478.85004778299935,478.85004778299935,480.5591092679997,480.5591092679997,480.5986285990002,480.5986285990002,480.5986285990002,480.5986285990002,480.5986285990002,480.5986285990002,480.5986285990002,480.5986285990002,480.5986285990002,480.5986285990002,480.5986285990002,480.5986285990002,480.5986285990002,480.5986285990002,480.5986285990002,,,,,,19,46,51,37,37,64,None,None,34,34,[0.0175],[-0.29],[1],[0],[0],[6.770004901999528],['tijiao'],0.6,0,,[],[],[],[],[],[],[],5.9625,1.9679306489997543,491.9126590759997,493.6866664879999,,,,,,,,,,,489.9276719649997,489.9276719649997,489.9276719649997,489.9276719649997,483.1313008369998,483.1313008369998,483.1313008369998,483.1313008369998,483.1313008369998,483.1313008369998,483.1313008369998,483.1313008369998,0.00870812199991633,483.1313008369998,,,,,,172,f,23,2023-04-04_11h08.35.302,RL,2022.2.4,59.737073721748104,
0,0.3,0.225,0,31,31,31,,,,,,,,,,None,493.6866664879999,493.6866664879999,493.6866664879999,493.6866664879999,493.6866664879999,493.6866664879999,r,0.24446352300037688,493.97371064599974,493.97371064599974,493.97371064599974,493.97371064599974,493.97371064599974,493.97371064599974,494.2430785589995,494.2430785589995,495.28591124299965,495.28591124299965,495.3240938079998,495.3240938079998,495.3240938079998,495.3240938079998,495.3240938079998,495.3240938079998,495.3240938079998,495.3240938079998,495.3240938079998,495.3240938079998,495.3240938079998,495.3240938079998,495.3240938079998,495.3240938079998,495.3240938079998,,,,,,20,46,56,33,20,61,None,None,28,28,[-0.06625],[-0.2875],[1],[0],[0],[4.667610751999746],['tijiao'],-0.6,0,,[],[],[],[],[],[],[],4.025,1.7388636929999848,504.3045916450001,505.9422760469997,,,,,,,,,,,502.5489628859996,502.5489628859996,502.5489628859996,502.5489628859996,497.85367405499983,497.85367405499983,497.85367405499983,497.85367405499983,497.85367405499983,497.85367405499983,497.85367405499983,497.85367405499983,0.008728542000426387,497.85367405499983,,,,,,172,f,23,2023-04-04_11h08.35.302,RL,2022.2.4,59.737073721748104,
1,-0.3,-0.225,0,32,32,32,,,,,,,,,,None,505.9422760469997,505.9422760469997,505.9422760469997,505.9422760469997,505.9422760469997,505.9422760469997,f,0.417786798000634,506.4147037040002,506.4147037040002,506.4147037040002,506.4147037040002,506.4147037040002,506.4147037040002,506.68257703699965,506.68257703699965,507.70592609899995,507.70592609899995,507.74214149099953,507.74214149099953,507.74214149099953,507.74214149099953,507.74214149099953,507.74214149099953,507.74214149099953,507.74214149099953,507.74214149099953,507.74214149099953,507.74214149099953,507.74214149099953,507.74214149099953,507.74214149099953,507.74214149099953,,,,,,26,51,48,36,51,55,None,None,,,[],[],[],[],[],[],[],-0.2,1,53,[0.0325],[-0.28375],[1],[0],[0],[6.076117334999253],['tijiao_random_2'],4.9875,1.6384231760002876,518.0376357320001,519.897294976,510.28662514000007,510.28662514000007,510.28662514000007,510.28662514000007,510.28662514000007,510.28662514000007,510.28662514000007,510.28662514000007,0.010560405000433093,510.28662514000007,516.3805756299998,516.3805756299998,516.3805756299998,516.3805756299998,,,,,,,,,,,,,,,,172,f,23,2023-04-04_11h08.35.302,RL,2022.2.4,59.737073721748104,
0,0.3,0.225,0,33,33,33,,,,,,,,,,None,519.897294976,519.897294976,519.897294976,519.897294976,519.897294976,519.897294976,i,0.20359637900037342,520.1509822620001,520.1509822620001,520.1509822620001,520.1509822620001,520.1509822620001,520.1509822620001,520.4231245439996,520.4231245439996,521.4344746609995,521.4344746609995,521.4735541230002,521.4735541230002,521.4735541230002,521.4735541230002,521.4735541230002,521.4735541230002,521.4735541230002,521.4735541230002,521.4735541230002,521.4735541230002,521.4735541230002,521.4735541230002,521.4735541230002,521.4735541230002,521.4735541230002,,,,,,23,58,53,49,53,47,None,None,,,[],[],[],[],[],[],[],0.6,1,26,[-0.0625],[-0.27625],[1],[0],[0],[7.977751892000015],['tijiao_random_2'],6.4625,2.330511805000242,534.3603685110002,535.923133495,524.0196113749998,524.0196113749998,524.0196113749998,524.0196113749998,524.0196113749998,524.0196113749998,524.0196113749998,524.0196113749998,0.010299982000105956,524.0196113749998,532.0093576539994,532.0093576539994,532.0093576539994,532.0093576539994,,,,,,,,,,,,,,,,172,f,23,2023-04-04_11h08.35.302,RL,2022.2.4,59.737073721748104,
1,-0.3,-0.225,0,34,34,34,,,,,,,,,,None,535.923133495,535.923133495,535.923133495,535.923133495,535.923133495,535.923133495,f,0.3225602129996332,536.2933102549996,536.2933102549996,536.2933102549996,536.2933102549996,536.2933102549996,536.2933102549996,536.5627996610001,536.5627996610001,538.2310355449999,538.2310355449999,538.2558799429999,538.2558799429999,538.2558799429999,538.2558799429999,538.2558799429999,538.2558799429999,538.2558799429999,538.2558799429999,538.2558799429999,538.2558799429999,538.2558799429999,538.2558799429999,538.2558799429999,538.2558799429999,538.2558799429999,540.7566412249998,540.7566412249998,540.7566412249998,540.7566412249998,540.7566412249998,23,57,51,54,57,60,5.0,1.211763797000458,,,[],[],[],[],[],[],[],-0.6,2,,[],[],[],[],[],[],[],None,None,542.0114278330002,543.626857491,,,,,,,,,,,,,,,,,,,,,,,,,,,,,,172,f,23,2023-04-04_11h08.35.302,RL,2022.2.4,59.737073721748104,
0,0.3,0.225,0,35,35,35,,,,,,,,,,None,543.626857491,543.626857491,543.626857491,543.626857491,543.626857491,543.626857491,i,0.511356894000528,544.1905333730001,544.1905333730001,544.1905333730001,544.1905333730001,544.1905333730001,544.1905333730001,544.4520218279995,544.4520218279995,545.8617175809995,545.8617175809995,545.8991850880002,545.8991850880002,545.8991850880002,545.8991850880002,545.8991850880002,545.8991850880002,545.8991850880002,545.8991850880002,545.8991850880002,545.8991850880002,545.8991850880002,545.8991850880002,545.8991850880002,545.8991850880002,545.8991850880002,,,,,,27,58,49,54,49,68,None,None,46,46,[-0.00375],[-0.305],[1],[0],[0],[4.975195942000028],['tijiao'],0.6,0,,[],[],[],[],[],[],[],4.975,2.7605576620007923,556.2057197120002,557.7335056229995,,,,,,,,,,,553.4270945749995,553.4270945749995,553.4270945749995,553.4270945749995,548.4212117269999,548.4212117269999,548.4212117269999,548.4212117269999,548.4212117269999,548.4212117269999,548.4212117269999,548.4212117269999,0.008704875000148604,548.4212117269999,,,,,,172,f,23,2023-04-04_11h08.35.302,RL,2022.2.4,59.737073721748104,
1,-0.3,-0.225,0,36,36,36,,,,,,,,,,None,557.7335056229995,557.7335056229995,557.7335056229995,557.7335056229995,557.7335056229995,557.7335056229995,f,0.25791775499965297,558.0399080469997,558.0399080469997,558.0399080469997,558.0399080469997,558.0399080469997,558.0399080469997,558.3072006490002,558.3072006490002,559.4102814460002,559.4102814460002,559.4494911189995,559.4494911189995,559.4494911189995,559.4494911189995,559.4494911189995,559.4494911189995,559.4494911189995,559.4494911189995,559.4494911189995,559.4494911189995,559.4494911189995,559.4494911189995,559.4494911189995,559.4494911189995,559.4494911189995,,,,,,23,58,46,56,58,42,None,None,,,[],[],[],[],[],[],[],0.6,1,21,[0.0025],[-0.2925],[1],[0],[0],[4.433618765999199],['tijiao_random_2'],5.987500000000001,2.066938115999619,568.5190548410001,570.2214357309995,561.9878508749998,561.9878508749998,561.9878508749998,561.9878508749998,561.9878508749998,561.9878508749998,561.9878508749998,561.9878508749998,0.010651411000253574,561.9878508749998,566.4329179380002,566.4329179380002,566.4329179380002,566.4329179380002,,,,,,,,,,,,,,,,172,f,23,2023-04-04_11h08.35.302,RL,2022.2.4,59.737073721748104,
0,0.3,0.225,0,37,37,37,,,,,,,,,,None,570.2214357309995,570.2214357309995,570.2214357309995,570.2214357309995,570.2214357309995,570.2214357309995,j,0.5232897650002997,570.7949245729997,570.7949245729997,570.7949245729997,570.7949245729997,570.7949245729997,570.7949245729997,571.0633697809999,571.0633697809999,572.4954302039996,572.4954302039996,572.5382871129996,572.5382871129996,572.5382871129996,572.5382871129996,572.5382871129996,572.5382871129996,572.5382871129996,572.5382871129996,572.5382871129996,572.5382871129996,572.5382871129996,572.5382871129996,572.5382871129996,572.5382871129996,572.5382871129996,575.034248211,575.034248211,575.034248211,575.034248211,575.034248211,26,60,49,56,56,42,6.0,3.4171277920004286,,,[],[],[],[],[],[],[],0.6,2,,[],[],[],[],[],[],[],None,None,578.4970280629996,580.3933951119998,,,,,,,,,,,,,,,,,,,,,,,,,,,,,,172,f,23,2023-04-04_11h08.35.302,RL,2022.2.4,59.737073721748104,
1,-0.3,-0.225,0,38,38,38,,,,,,,,,,None,580.3933951119998,580.3933951119998,580.3933951119998,580.3933951119998,580.3933951119998,580.3933951119998,j,0.6193288949998532,581.064045565,581.064045565,581.064045565,581.064045565,581.064045565,581.064045565,581.3339657830002,581.3339657830002,582.334953091,582.334953091,582.3741837440002,582.3741837440002,582.3741837440002,582.3741837440002,582.3741837440002,582.3741837440002,582.3741837440002,582.3741837440002,582.3741837440002,582.3741837440002,582.3741837440002,582.3741837440002,582.3741837440002,582.3741837440002,582.3741837440002,584.8796678640001,584.8796678640001,584.8796678640001,584.8796678640001,584.8796678640001,22,59,53,51,51,58,5.0,1.7424442160008766,,,[],[],[],[],[],[],[],-0.2,2,,[],[],[],[],[],[],[],None,None,586.6672861970001,588.6485979019999,,,,,,,,,,,,,,,,,,,,,,,,,,,,,,172,f,23,2023-04-04_11h08.35.302,RL,2022.2.4,59.737073721748104,
0,0.3,0.225,0,39,39,39,,,,,,,,,,None,588.6485979019999,588.6485979019999,588.6485979019999,588.6485979019999,588.6485979019999,588.6485979019999,i,0.4070074889996249,589.1028315049998,589.1028315049998,589.1028315049998,589.1028315049998,589.1028315049998,589.1028315049998,589.3730967619995,589.3730967619995,590.3642979919996,590.3642979919996,590.4018301759997,590.4018301759997,590.4018301759997,590.4018301759997,590.4018301759997,590.4018301759997,590.4018301759997,590.4018301759997,590.4018301759997,590.4018301759997,590.4018301759997,590.4018301759997,590.4018301759997,590.4018301759997,590.4018301759997,592.9154666349996,592.9154666349996,592.9154666349996,592.9154666349996,592.9154666349996,20,57,42,45,42,45,6.0,1.0947901610006738,,,[],[],[],[],[],[],[],0.6,3,,[],[],[],[],[],[],[],None,None,594.055492904,595.7503948180001,,,,,,,,,,,,,,,,,,,,,,,,,,,,,,172,f,23,2023-04-04_11h08.35.302,RL,2022.2.4,59.737073721748104,
1,-0.3,-0.225,0,40,40,40,,,,,,,,,,None,595.7503948180001,595.7503948180001,595.7503948180001,595.7503948180001,595.7503948180001,595.7503948180001,f,0.34458477899988793,596.1388152569998,596.1388152569998,596.1388152569998,596.1388152569998,596.1388152569998,596.1388152569998,596.4096997279994,596.4096997279994,597.6862164029999,597.6862164029999,597.7272215069997,597.7272215069997,597.7272215069997,597.7272215069997,597.7272215069997,597.7272215069997,597.7272215069997,597.7272215069997,597.7272215069997,597.7272215069997,597.7272215069997,597.7272215069997,597.7272215069997,597.7272215069997,597.7272215069997,,,,,,20,52,46,41,52,55,None,None,,,[],[],[],[],[],[],[],0.6,1,40,[0.09125],[-0.29125],[1],[0],[0],[4.7169623890004],['tijiao_random_2'],4.35,2.7326591159999225,607.7460836159999,609.5580168659999,600.2634907539996,600.2634907539996,600.2634907539996,600.2634907539996,600.2634907539996,600.2634907539996,600.2634907539996,600.2634907539996,0.010327072000109183,600.2634907539996,604.9944326630002,604.9944326630002,604.9944326630002,604.9944326630002,,,,,,,,,,,,,,,,172,f,23,2023-04-04_11h08.35.302,RL,2022.2.4,59.737073721748104,
0,0.3,0.225,0,41,41,41,,,,,,,,,,None,609.5580168659999,609.5580168659999,609.5580168659999,609.5580168659999,609.5580168659999,609.5580168659999,r,0.23010336500010453,609.8273845029998,609.8273845029998,609.8273845029998,609.8273845029998,609.8273845029998,609.8273845029998,610.100646465,610.100646465,611.2552267579995,611.2552267579995,611.2941543239995,611.2941543239995,611.2941543239995,611.2941543239995,611.2941543239995,611.2941543239995,611.2941543239995,611.2941543239995,611.2941543239995,611.2941543239995,611.2941543239995,611.2941543239995,611.2941543239995,611.2941543239995,611.2941543239995,613.8082372839999,613.8082372839999,613.8082372839999,613.8082372839999,613.8082372839999,19,62,47,44,19,61,2.0,2.7480210789999546,,,[],[],[],[],[],[],[],-0.2,3,,[],[],[],[],[],[],[],None,None,616.5989038520001,618.5622317239995,,,,,,,,,,,,,,,,,,,,,,,,,,,,,,172,f,23,2023-04-04_11h08.35.302,RL,2022.2.4,59.737073721748104,
1,-0.3,-0.225,0,42,42,42,,,,,,,,,,None,618.5622317239995,618.5622317239995,618.5622317239995,618.5622317239995,618.5622317239995,618.5622317239995,f,0.3799199099994439,618.9834223520002,618.9834223520002,618.9834223520002,618.9834223520002,618.9834223520002,618.9834223520002,619.2534223579996,619.2534223579996,620.6993800569999,620.6993800569999,620.7489923449994,620.7489923449994,620.7489923449994,620.7489923449994,620.7489923449994,620.7489923449994,620.7489923449994,620.7489923449994,620.7489923449994,620.7489923449994,620.7489923449994,620.7489923449994,620.7489923449994,620.7489923449994,620.7489923449994,623.243809564,623.243809564,623.243809564,623.243809564,623.243809564,26,57,55,52,57,70,5.0,1.7809314080004697,,,[],[],[],[],[],[],[],0.6,2,,[],[],[],[],[],[],[],None,None,625.0708605600003,627.0653880169993,,,,,,,,,,,,,,,,,,,,,,,,,,,,,,172,f,23,2023-04-04_11h08.35.302,RL,2022.2.4,59.737073721748104,
0,0.3,0.225,0,43,43,43,,,,,,,,,,None,627.0653880169993,627.0653880169993,627.0653880169993,627.0653880169993,627.0653880169993,627.0653880169993,i,0.35728978399947664,627.4726049800001,627.4726049800001,627.4726049800001,627.4726049800001,627.4726049800001,627.4726049800001,627.7413211949997,627.7413211949997,628.9097611349998,628.9097611349998,628.9333209420001,628.9333209420001,628.9333209420001,628.9333209420001,628.9333209420001,628.9333209420001,628.9333209420001,628.9333209420001,628.9333209420001,628.9333209420001,628.9333209420001,628.9333209420001,628.9333209420001,628.9333209420001,628.9333209420001,631.4494655279996,631.4494655279996,631.4494655279996,631.4494655279996,631.4494655279996,21,60,48,57,48,60,6.0,1.294999003999692,,,[],[],[],[],[],[],[],0.2,2,,[],[],[],[],[],[],[],None,None,632.7873569409994,634.4865836959998,,,,,,,,,,,,,,,,,,,,,,,,,,,,,,172,f,23,2023-04-04_11h08.35.302,RL,2022.2.4,59.737073721748104,
1,-0.3,-0.225,0,44,44,44,,,,,,,,,,None,634.4865836959998,634.4865836959998,634.4865836959998,634.4865836959998,634.4865836959998,634.4865836959998,j,0.35455905299932056,634.8940750559996,634.8940750559996,634.8940750559996,634.8940750559996,634.8940750559996,634.8940750559996,635.1619759119994,635.1619759119994,637.0587198789999,637.0587198789999,637.0993866230001,637.0993866230001,637.0993866230001,637.0993866230001,637.0993866230001,637.0993866230001,637.0993866230001,637.0993866230001,637.0993866230001,637.0993866230001,637.0993866230001,637.0993866230001,637.0993866230001,637.0993866230001,637.0993866230001,,,,,,13,52,43,52,52,55,None,None,46,46,[0.03625],[-0.27],[1],[0],[0],[4.47350357599953],['tijiao'],0.6,0,,[],[],[],[],[],[],[],5.4125000000000005,2.0986263839995445,646.239980202,647.808992239,,,,,,,,,,,644.1220501529997,644.1220501529997,644.1220501529997,644.1220501529997,639.6222044159995,639.6222044159995,639.6222044159995,639.6222044159995,639.6222044159995,639.6222044159995,639.6222044159995,639.6222044159995,0.009133687000030477,639.6222044159995,,,,,,172,f,23,2023-04-04_11h08.35.302,RL,2022.2.4,59.737073721748104,
0,0.3,0.225,0,45,45,45,,,,,,,,,,None,647.808992239,647.808992239,647.808992239,647.808992239,647.808992239,647.808992239,f,0.2470035039996219,648.0974189449998,648.0974189449998,648.0974189449998,648.0974189449998,648.0974189449998,648.0974189449998,648.3669504250001,648.3669504250001,649.8049027010002,649.8049027010002,649.8411103050003,649.8411103050003,649.8411103050003,649.8411103050003,649.8411103050003,649.8411103050003,649.8411103050003,649.8411103050003,649.8411103050003,649.8411103050003,649.8411103050003,649.8411103050003,649.8411103050003,649.8411103050003,649.8411103050003,,,,,,12,50,38,54,50,35,None,None,36,36,[-0.02625],[-0.29125],[1],[0],[0],[6.578054552999674],['tijiao'],0.6,0,,[],[],[],[],[],[],[],4.9,4.072469370999897,663.0597337150002,664.6829190099998,,,,,,,,,,,658.971113519,658.971113519,658.971113519,658.971113519,652.3621912389999,652.3621912389999,652.3621912389999,652.3621912389999,652.3621912389999,652.3621912389999,652.3621912389999,652.3621912389999,0.009054995999576931,652.3621912389999,,,,,,172,f,23,2023-04-04_11h08.35.302,RL,2022.2.4,59.737073721748104,
1,-0.3,-0.225,0,46,46,46,,,,,,,,,,None,664.6829190099998,664.6829190099998,664.6829190099998,664.6829190099998,664.6829190099998,664.6829190099998,i,0.5435666539997328,665.2724115869996,665.2724115869996,665.2724115869996,665.2724115869996,665.2724115869996,665.2724115869996,665.5402384569998,665.5402384569998,666.5103377999994,666.5103377999994,666.550567534,666.550567534,666.550567534,666.550567534,666.550567534,666.550567534,666.550567534,666.550567534,666.550567534,666.550567534,666.550567534,666.550567534,666.550567534,666.550567534,666.550567534,669.0628622839995,669.0628622839995,669.0628622839995,669.0628622839995,669.0628622839995,9,60,39,44,39,48,5.0,1.9321777049999582,,,[],[],[],[],[],[],[],0.6,3,,[],[],[],[],[],[],[],None,None,671.0388933650001,672.6544673500002,,,,,,,,,,,,,,,,,,,,,,,,,,,,,,172,f,23,2023-04-04_11h08.35.302,RL,2022.2.4,59.737073721748104,
0,0.3,0.225,0,47,47,47,,,,,,,,,,None,672.6544673500002,672.6544673500002,672.6544673500002,672.6544673500002,672.6544673500002,672.6544673500002,f,0.3798845479996089,673.0808396869998,673.0808396869998,673.0808396869998,673.0808396869998,673.0808396869998,673.0808396869998,673.3458142379995,673.3458142379995,674.5439652189998,674.5439652189998,674.5814792769997,674.5814792769997,674.5814792769997,674.5814792769997,674.5814792769997,674.5814792769997,674.5814792769997,674.5814792769997,674.5814792769997,674.5814792769997,674.5814792769997,674.5814792769997,674.5814792769997,674.5814792769997,674.5814792769997,,,,,,9,58,38,49,58,54,None,None,,,[],[],[],[],[],[],[],0.2,1,41,[-0.00625],[-0.30375],[1],[0],[0],[4.9233518840001125],['tijiao_random_2'],7.0,2.1231557500004783,684.2011547490001,686.0110785259994,677.1213265480001,677.1213265480001,677.1213265480001,677.1213265480001,677.1213265480001,677.1213265480001,677.1213265480001,677.1213265480001,0.00978406600006565,677.1213265480001,682.0603633709998,682.0603633709998,682.0603633709998,682.0603633709998,,,,,,,,,,,,,,,,172,f,23,2023-04-04_11h08.35.302,RL,2022.2.4,59.737073721748104,
1,-0.3,-0.225,0,48,48,48,,,,,,,,,,None,686.0110785259994,686.0110785259994,686.0110785259994,686.0110785259994,686.0110785259994,686.0110785259994,i,0.2744588900004601,686.335315415,686.335315415,686.335315415,686.335315415,686.335315415,686.335315415,686.6025747559997,686.6025747559997,687.7739328729995,687.7739328729995,687.8131457239997,687.8131457239997,687.8131457239997,687.8131457239997,687.8131457239997,687.8131457239997,687.8131457239997,687.8131457239997,687.8131457239997,687.8131457239997,687.8131457239997,687.8131457239997,687.8131457239997,687.8131457239997,687.8131457239997,,,,,,17,53,29,56,29,48,None,None,31,31,[-0.03375],[-0.3125],[1],[0],[0],[3.9668404849999206],['tijiao'],0.6,0,,[],[],[],[],[],[],[],5.0125,1.6140204719995381,695.9705724679998,697.866832613,,,,,,,,,,,694.3403961960003,694.3403961960003,694.3403961960003,694.3403961960003,690.3393144510001,690.3393144510001,690.3393144510001,690.3393144510001,690.3393144510001,690.3393144510001,690.3393144510001,690.3393144510001,0.009171209000669478,690.3393144510001,,,,,,172,f,23,2023-04-04_11h08.35.302,RL,2022.2.4,59.737073721748104,
0,0.3,0.225,0,49,49,49,,,,,,,,,,None,697.866832613,697.866832613,697.866832613,697.866832613,697.866832613,697.866832613,j,0.27995252899927436,698.1919518309996,698.1919518309996,698.1919518309996,698.1919518309996,698.1919518309996,698.1919518309996,698.4572666980002,698.4572666980002,699.2959014959997,699.2959014959997,699.334056449,699.334056449,699.334056449,699.334056449,699.334056449,699.334056449,699.334056449,699.334056449,699.334056449,699.334056449,699.334056449,699.334056449,699.334056449,699.334056449,699.334056449,701.8450990889996,701.8450990889996,701.8450990889996,701.8450990889996,701.8450990889996,11,68,37,59,59,46,6.0,1.4536218590001226,,,[],[],[],[],[],[],[],-0.2,2,,[],[],[],[],[],[],[],None,None,703.3444804000001,705.2197082559996,,,,,,,,,,,,,,,,,,,,,,,,,,,,,,172,f,23,2023-04-04_11h08.35.302,RL,2022.2.4,59.737073721748104,
1,-0.3,-0.225,0,50,50,50,,,,,,,,,,None,705.2197082559996,705.2197082559996,705.2197082559996,705.2197082559996,705.2197082559996,705.2197082559996,f,0.4717147159999513,705.7419748049997,705.7419748049997,705.7419748049997,705.7419748049997,705.7419748049997,705.7419748049997,706.010897485,706.010897485,707.2985965219996,707.2985965219996,707.3391425310001,707.3391425310001,707.3391425310001,707.3391425310001,707.3391425310001,707.3391425310001,707.3391425310001,707.3391425310001,707.3391425310001,707.3391425310001,707.3391425310001,707.3391425310001,707.3391425310001,707.3391425310001,707.3391425310001,,,,,,15,58,30,58,58,31,None,None,50,50,[0.06125],[-0.305],[1],[0],[0],[4.8866758450003545],['tijiao'],-0.6,0,,[],[],[],[],[],[],[],6.9875,1.9198240949999672,716.7211134019999,718.5261364950002,,,,,,,,,,,714.7846539359998,714.7846539359998,714.7846539359998,714.7846539359998,709.8643212569996,709.8643212569996,709.8643212569996,709.8643212569996,709.8643212569996,709.8643212569996,709.8643212569996,709.8643212569996,0.008846177999657812,709.8643212569996,,,,,,172,f,23,2023-04-04_11h08.35.302,RL,2022.2.4,59.737073721748104,
0,0.3,0.225,0,51,51,51,,,,,,,,,,None,718.5261364950002,718.5261364950002,718.5261364950002,718.5261364950002,718.5261364950002,718.5261364950002,i,0.4189324540002417,718.9999773629997,718.9999773629997,718.9999773629997,718.9999773629997,718.9999773629997,718.9999773629997,719.2670604710001,719.2670604710001,721.0261414019997,721.0261414019997,721.0667913919997,721.0667913919997,721.0667913919997,721.0667913919997,721.0667913919997,721.0667913919997,721.0667913919997,721.0667913919997,721.0667913919997,721.0667913919997,721.0667913919997,721.0667913919997,721.0667913919997,721.0667913919997,721.0667913919997,,,,,,19,62,29,55,29,48,None,None,29,29,[-0.0025],[-0.305],[1],[0],[0],[5.26908574800018],['tijiao'],-0.2,0,,[],[],[],[],[],[],[],5.9625,1.7544724300005328,730.6619187309998,732.616198142,,,,,,,,,,,728.8869712119995,728.8869712119995,728.8869712119995,728.8869712119995,723.5873563949999,723.5873563949999,723.5873563949999,723.5873563949999,723.5873563949999,723.5873563949999,723.5873563949999,723.5873563949999,0.008569593000174791,723.5873563949999,,,,,,172,f,23,2023-04-04_11h08.35.302,RL,2022.2.4,59.737073721748104,
1,-0.3,-0.225,0,52,52,52,,,,,,,,,,None,732.616198142,732.616198142,732.616198142,732.616198142,732.616198142,732.616198142,f,0.4098681209998176,733.0778717559997,733.0778717559997,733.0778717559997,733.0778717559997,733.0778717559997,733.0778717559997,733.3632040809998,733.3632040809998,734.6883549180002,734.6883549180002,734.7126075939996,734.7126075939996,734.7126075939996,734.7126075939996,734.7126075939996,734.7126075939996,734.7126075939996,734.7126075939996,734.7126075939996,734.7126075939996,734.7126075939996,734.7126075939996,734.7126075939996,734.7126075939996,734.7126075939996,737.2176705279999,737.2176705279999,737.2176705279999,737.2176705279999,737.2176705279999,21,72,24,64,72,63,6.0,2.1278045059998476,,,[],[],[],[],[],[],[],0.6,2,,[],[],[],[],[],[],[],None,None,739.3881667699998,741.1870534459995,,,,,,,,,,,,,,,,,,,,,,,,,,,,,,172,f,23,2023-04-04_11h08.35.302,RL,2022.2.4,59.737073721748104,
0,0.3,0.225,0,53,53,53,,,,,,,,,,None,741.1870534459995,741.1870534459995,741.1870534459995,741.1870534459995,741.1870534459995,741.1870534459995,j,0.5844226919998619,741.827507561,741.827507561,741.827507561,741.827507561,741.827507561,741.827507561,742.0953668370003,742.0953668370003,742.9997502139995,742.9997502139995,743.0208189730001,743.0208189730001,743.0208189730001,743.0208189730001,743.0208189730001,743.0208189730001,743.0208189730001,743.0208189730001,743.0208189730001,743.0208189730001,743.0208189730001,743.0208189730001,743.0208189730001,743.0208189730001,743.0208189730001,,,,,,21,70,26,58,58,50,None,None,68,68,[0.045],[-0.27625],[1],[0],[0],[4.84347630100001],['tijiao'],0.6,0,,[],[],[],[],[],[],[],6.9750000000000005,1.8825566280002022,752.3272084370001,754.0424770199998,,,,,,,,,,,750.4275230900002,750.4275230900002,750.4275230900002,750.4275230900002,745.5517467609998,745.5517467609998,745.5517467609998,745.5517467609998,745.5517467609998,745.5517467609998,745.5517467609998,745.5517467609998,0.008656666000206314,745.5517467609998,,,,,,172,f,23,2023-04-04_11h08.35.302,RL,2022.2.4,59.737073721748104,
1,-0.3,-0.225,0,54,54,54,,,,,,,,,,None,754.0424770199998,754.0424770199998,754.0424770199998,754.0424770199998,754.0424770199998,754.0424770199998,f,0.25294083099925047,754.3378183539999,754.3378183539999,754.3378183539999,754.3378183539999,754.3378183539999,754.3378183539999,754.6079544799995,754.6079544799995,755.7883186399995,755.7883186399995,755.8105200740001,755.8105200740001,755.8105200740001,755.8105200740001,755.8105200740001,755.8105200740001,755.8105200740001,755.8105200740001,755.8105200740001,755.8105200740001,755.8105200740001,755.8105200740001,755.8105200740001,755.8105200740001,755.8105200740001,,,,,,15,63,17,67,63,51,None,None,,,[],[],[],[],[],[],[],-0.2,1,56,[0.02],[-0.27625],[1],[0],[0],[7.112537899000017],['tijiao_random_2'],8.0125,1.5650377820002177,767.0555996579997,768.6155266799997,758.3399271549997,758.3399271549997,758.3399271549997,758.3399271549997,758.3399271549997,758.3399271549997,758.3399271549997,758.3399271549997,0.009776777000297443,758.3399271549997,765.4692500809997,765.4692500809997,765.4692500809997,765.4692500809997,,,,,,,,,,,,,,,,172,f,23,2023-04-04_11h08.35.302,RL,2022.2.4,59.737073721748104,
0,0.3,0.225,0,55,55,55,,,,,,,,,,None,768.6155266799997,768.6155266799997,768.6155266799997,768.6155266799997,768.6155266799997,768.6155266799997,j,0.32486644400069054,768.9954336829996,768.9954336829996,768.9954336829996,768.9954336829996,768.9954336829996,768.9954336829996,769.2611342700002,769.2611342700002,770.7269573149997,770.7269573149997,770.7671713210002,770.7671713210002,770.7671713210002,770.7671713210002,770.7671713210002,770.7671713210002,770.7671713210002,770.7671713210002,770.7671713210002,770.7671713210002,770.7671713210002,770.7671713210002,770.7671713210002,770.7671713210002,770.7671713210002,,,,,,19,64,29,67,67,52,None,None,,,[],[],[],[],[],[],[],0.2,1,45,[0.0025],[-0.265],[1],[0],[0],[6.038094200999694],['tijiao_random_2'],5.0875,2.476150886999676,781.8490140879994,783.8403629499999,773.3048692020002,773.3048692020002,773.3048692020002,773.3048692020002,773.3048692020002,773.3048692020002,773.3048692020002,773.3048692020002,0.01011081200067565,773.3048692020002,779.3556355219998,779.3556355219998,779.3556355219998,779.3556355219998,,,,,,,,,,,,,,,,172,f,23,2023-04-04_11h08.35.302,RL,2022.2.4,59.737073721748104,
1,-0.3,-0.225,0,56,56,56,,,,,,,,,,None,783.8403629499999,783.8403629499999,783.8403629499999,783.8403629499999,783.8403629499999,783.8403629499999,f,0.258292339000036,784.1462278680001,784.1462278680001,784.1462278680001,784.1462278680001,784.1462278680001,784.1462278680001,784.4074828379999,784.4074828379999,785.723884346,785.723884346,785.7799256959997,785.7799256959997,785.7799256959997,785.7799256959997,785.7799256959997,785.7799256959997,785.7799256959997,785.7799256959997,785.7799256959997,785.7799256959997,785.7799256959997,785.7799256959997,785.7799256959997,785.7799256959997,785.7799256959997,,,,,,18,60,28,64,60,54,None,None,63,63,[0.05125],[-0.2925],[1],[0],[0],[6.733316321999155],['tijiao'],-0.6,0,,[],[],[],[],[],[],[],4.9875,2.434118203000253,797.5149641480002,799.0306198950002,,,,,,,,,,,795.0656779760002,795.0656779760002,795.0656779760002,795.0656779760002,788.2986360859995,788.2986360859995,788.2986360859995,788.2986360859995,788.2986360859995,788.2986360859995,788.2986360859995,788.2986360859995,0.008237335000558232,788.2986360859995,,,,,,172,f,23,2023-04-04_11h08.35.302,RL,2022.2.4,59.737073721748104,
0,0.3,0.225,0,57,57,57,,,,,,,,,,None,799.0306198950002,799.0306198950002,799.0306198950002,799.0306198950002,799.0306198950002,799.0306198950002,i,0.377278072000081,799.45380759,799.45380759,799.45380759,799.45380759,799.45380759,799.45380759,799.7227803870001,799.7227803870001,801.5706975149997,801.5706975149997,801.6108191359999,801.6108191359999,801.6108191359999,801.6108191359999,801.6108191359999,801.6108191359999,801.6108191359999,801.6108191359999,801.6108191359999,801.6108191359999,801.6108191359999,801.6108191359999,801.6108191359999,801.6108191359999,801.6108191359999,804.1064917849999,804.1064917849999,804.1064917849999,804.1064917849999,804.1064917849999,22,60,26,63,26,59,3.0,1.8682660329995997,,,[],[],[],[],[],[],[],-0.6,2,,[],[],[],[],[],[],[],None,None,806.0201378519996,807.9517446,,,,,,,,,,,,,,,,,,,,,,,,,,,,,,172,f,23,2023-04-04_11h08.35.302,RL,2022.2.4,59.737073721748104,
1,-0.3,-0.225,0,58,58,58,,,,,,,,,,None,807.9517446,807.9517446,807.9517446,807.9517446,807.9517446,807.9517446,f,0.4092820710002343,808.4063463060002,808.4063463060002,808.4063463060002,808.4063463060002,808.4063463060002,808.4063463060002,808.6749799459994,808.6749799459994,809.690844359,809.690844359,809.7312491089997,809.7312491089997,809.7312491089997,809.7312491089997,809.7312491089997,809.7312491089997,809.7312491089997,809.7312491089997,809.7312491089997,809.7312491089997,809.7312491089997,809.7312491089997,809.7312491089997,809.7312491089997,809.7312491089997,812.251295479,812.251295479,812.251295479,812.251295479,812.251295479,24,56,28,69,56,47,5.0,1.919617542999731,,,[],[],[],[],[],[],[],-0.6,3,,[],[],[],[],[],[],[],None,None,814.2218184650001,815.788258173,,,,,,,,,,,,,,,,,,,,,,,,,,,,,,172,f,23,2023-04-04_11h08.35.302,RL,2022.2.4,59.737073721748104,
0,0.3,0.225,0,59,59,59,,,,,,,,,,None,815.788258173,815.788258173,815.788258173,815.788258173,815.788258173,815.788258173,j,0.3922405980001713,816.2265690679997,816.2265690679997,816.2265690679997,816.2265690679997,816.2265690679997,816.2265690679997,816.4958871769995,816.4958871769995,817.6011899699997,817.6011899699997,817.6413105370002,817.6413105370002,817.6413105370002,817.6413105370002,817.6413105370002,817.6413105370002,817.6413105370002,817.6413105370002,817.6413105370002,817.6413105370002,817.6413105370002,817.6413105370002,817.6413105370002,817.6413105370002,817.6413105370002,820.1386823769999,820.1386823769999,820.1386823769999,820.1386823769999,820.1386823769999,27,60,26,64,64,65,4.0,1.8642316200002824,,,[],[],[],[],[],[],[],-0.6,3,,[],[],[],[],[],[],[],None,None,822.0474371969995,823.8430732830002,,,,,,,,,,,,,,,,,,,,,,,,,,,,,,172,f,23,2023-04-04_11h08.35.302,RL,2022.2.4,59.737073721748104,
1,-0.3,-0.225,0,60,60,60,,,,,,,,,,None,823.8430732830002,823.8430732830002,823.8430732830002,823.8430732830002,823.8430732830002,823.8430732830002,f,0.4295656879994567,824.3198105669999,824.3198105669999,824.3198105669999,824.3198105669999,824.3198105669999,824.3198105669999,824.5829975759998,824.5829975759998,825.8722126539997,825.8722126539997,825.9289982720002,825.9289982720002,825.9289982720002,825.9289982720002,825.9289982720002,825.9289982720002,825.9289982720002,825.9289982720002,825.9289982720002,825.9289982720002,825.9289982720002,825.9289982720002,825.9289982720002,825.9289982720002,825.9289982720002,828.4385779969998,828.4385779969998,828.4385779969998,828.4385779969998,828.4385779969998,28,55,29,73,55,52,5.0,2.6672238799992556,,,[],[],[],[],[],[],[],-0.2,3,,[],[],[],[],[],[],[],None,None,831.1509635599996,832.7470756989997,,,,,,,,,,,,,,,,,,,,,,,,,,,,,,172,f,23,2023-04-04_11h08.35.302,RL,2022.2.4,59.737073721748104,
0,0.3,0.225,0,61,61,61,,,,,,,,,,None,832.7470756989997,832.7470756989997,832.7470756989997,832.7470756989997,832.7470756989997,832.7470756989997,i,0.26065733499945054,833.0524779110001,833.0524779110001,833.0524779110001,833.0524779110001,833.0524779110001,833.0524779110001,833.3218250989994,833.3218250989994,835.2102734789996,835.2102734789996,835.2490916659999,835.2490916659999,835.2490916659999,835.2490916659999,835.2490916659999,835.2490916659999,835.2490916659999,835.2490916659999,835.2490916659999,835.2490916659999,835.2490916659999,835.2490916659999,835.2490916659999,835.2490916659999,835.2490916659999,,,,,,24,58,22,72,22,57,None,None,20,20,[-0.00875],[-0.2725],[1],[0],[0],[3.9421939559997554],['tijiao'],-0.6,0,,[],[],[],[],[],[],[],3.9375,1.7533070790004786,843.5218376880002,845.119833275,,,,,,,,,,,841.7524007459997,841.7524007459997,841.7524007459997,841.7524007459997,837.777032125,837.777032125,837.777032125,837.777032125,837.777032125,837.777032125,837.777032125,837.777032125,0.008809406999716884,837.777032125,,,,,,172,f,23,2023-04-04_11h08.35.302,RL,2022.2.4,59.737073721748104,
1,-0.3,-0.225,0,62,62,62,,,,,,,,,,None,845.119833275,845.119833275,845.119833275,845.119833275,845.119833275,845.119833275,r,0.34214962700025353,845.5080252899998,845.5080252899998,845.5080252899998,845.5080252899998,845.5080252899998,845.5080252899998,845.7767634080001,845.7767634080001,846.8249796579994,846.8249796579994,846.8653236599994,846.8653236599994,846.8653236599994,846.8653236599994,846.8653236599994,846.8653236599994,846.8653236599994,846.8653236599994,846.8653236599994,846.8653236599994,846.8653236599994,846.8653236599994,846.8653236599994,846.8653236599994,846.8653236599994,,,,,,23,48,26,62,23,51,None,None,15,15,[-0.0175],[-0.33],[1],[0],[0],[4.711083581999446],['tijiao'],0.6,0,,[],[],[],[],[],[],[],6.05,1.6525087159998293,855.7936267449995,857.574702805,,,,,,,,,,,854.1282890359998,854.1282890359998,854.1282890359998,854.1282890359998,849.3804129250002,849.3804129250002,849.3804129250002,849.3804129250002,849.3804129250002,849.3804129250002,849.3804129250002,849.3804129250002,0.008790441000201099,849.3804129250002,,,,,,172,f,23,2023-04-04_11h08.35.302,RL,2022.2.4,59.737073721748104,
0,0.3,0.225,0,63,63,63,,,,,,,,,,None,857.574702805,857.574702805,857.574702805,857.574702805,857.574702805,857.574702805,f,0.23513414400076726,857.8663868779995,857.8663868779995,857.8663868779995,857.8663868779995,857.8663868779995,857.8663868779995,858.1327603760001,858.1327603760001,859.9017034809995,859.9017034809995,859.9417404280002,859.9417404280002,859.9417404280002,859.9417404280002,859.9417404280002,859.9417404280002,859.9417404280002,859.9417404280002,859.9417404280002,859.9417404280002,859.9417404280002,859.9417404280002,859.9417404280002,859.9417404280002,859.9417404280002,862.4499547469995,862.4499547469995,862.4499547469995,862.4499547469995,862.4499547469995,31,49,28,72,49,49,4.0,2.945792318999338,,,[],[],[],[],[],[],[],-0.2,3,,[],[],[],[],[],[],[],None,None,865.4411623400001,867.2468205109999,,,,,,,,,,,,,,,,,,,,,,,,,,,,,,172,f,23,2023-04-04_11h08.35.302,RL,2022.2.4,59.737073721748104,
1,-0.3,-0.225,0,64,64,64,,,,,,,,,,None,867.2468205109999,867.2468205109999,867.2468205109999,867.2468205109999,867.2468205109999,867.2468205109999,i,0.3391026460003559,867.6367323309996,867.6367323309996,867.6367323309996,867.6367323309996,867.6367323309996,867.6367323309996,867.9046908029995,867.9046908029995,868.7928085209996,868.7928085209996,868.8315154399997,868.8315154399997,868.8315154399997,868.8315154399997,868.8315154399997,868.8315154399997,868.8315154399997,868.8315154399997,868.8315154399997,868.8315154399997,868.8315154399997,868.8315154399997,868.8315154399997,868.8315154399997,868.8315154399997,,,,,,32,46,31,70,31,52,None,None,,,[],[],[],[],[],[],[],0.6,1,38,[-0.11375],[-0.26375],[1],[0],[0],[5.742871028000081],['tijiao_random_2'],5.074999999999999,1.5437296019999849,878.6926409159996,880.3695425989999,871.3731463019994,871.3731463019994,871.3731463019994,871.3731463019994,871.3731463019994,871.3731463019994,871.3731463019994,871.3731463019994,0.010117033999449632,871.3731463019994,877.1314268369997,877.1314268369997,877.1314268369997,877.1314268369997,,,,,,,,,,,,,,,,172,f,23,2023-04-04_11h08.35.302,RL,2022.2.4,59.737073721748104,
0,0.3,0.225,0,65,65,65,,,,,,,,,,None,880.3695425989999,880.3695425989999,880.3695425989999,880.3695425989999,880.3695425989999,880.3695425989999,j,0.31318679800006066,880.7302101679998,880.7302101679998,880.7302101679998,880.7302101679998,880.7302101679998,880.7302101679998,880.998272283,880.998272283,882.4547746079998,882.4547746079998,882.4938706570001,882.4938706570001,882.4938706570001,882.4938706570001,882.4938706570001,882.4938706570001,882.4938706570001,882.4938706570001,882.4938706570001,882.4938706570001,882.4938706570001,882.4938706570001,882.4938706570001,882.4938706570001,882.4938706570001,,,,,,24,42,21,70,70,47,None,None,,,[],[],[],[],[],[],[],0.6,1,65,[-0.08625],[-0.3],[1],[0],[0],[6.213183621999633],['tijiao_random_2'],6.9750000000000005,1.694039872000758,892.9735941029994,894.5432913340001,885.0311694009997,885.0311694009997,885.0311694009997,885.0311694009997,885.0311694009997,885.0311694009997,885.0311694009997,885.0311694009997,0.010580827999547182,885.0311694009997,891.2584854449997,891.2584854449997,891.2584854449997,891.2584854449997,,,,,,,,,,,,,,,,172,f,23,2023-04-04_11h08.35.302,RL,2022.2.4,59.737073721748104,
1,-0.3,-0.225,0,66,66,66,,,,,,,,,,None,894.5432913340001,894.5432913340001,894.5432913340001,894.5432913340001,894.5432913340001,894.5432913340001,j,0.5509546949997457,895.148307247,895.148307247,895.148307247,895.148307247,895.148307247,895.148307247,895.418001475,895.418001475,897.3782980710002,897.3782980710002,897.4153875769998,897.4153875769998,897.4153875769998,897.4153875769998,897.4153875769998,897.4153875769998,897.4153875769998,897.4153875769998,897.4153875769998,897.4153875769998,897.4153875769998,897.4153875769998,897.4153875769998,897.4153875769998,897.4153875769998,,,,,,27,43,24,73,73,55,None,None,,,[],[],[],[],[],[],[],0.6,1,69,[0.04625],[-0.27375],[1],[0],[0],[5.880250379000245],['tijiao_random_2'],6.05,1.3702031580005496,907.2378020059996,908.9504807909998,899.9544071829996,899.9544071829996,899.9544071829996,899.9544071829996,899.9544071829996,899.9544071829996,899.9544071829996,899.9544071829996,0.009917572999256663,899.9544071829996,905.8529815949996,905.8529815949996,905.8529815949996,905.8529815949996,,,,,,,,,,,,,,,,172,f,23,2023-04-04_11h08.35.302,RL,2022.2.4,59.737073721748104,
0,0.3,0.225,0,67,67,67,,,,,,,,,,None,908.9504807909998,908.9504807909998,908.9504807909998,908.9504807909998,908.9504807909998,908.9504807909998,j,0.6466648449995773,909.643997223,909.643997223,909.643997223,909.643997223,909.643997223,909.643997223,909.9244865869996,909.9244865869996,911.0025991339999,911.0025991339999,911.0025991339999,911.0025991339999,911.0025991339999,911.0025991339999,911.0025991339999,911.0025991339999,911.0025991339999,911.0025991339999,911.0025991339999,911.0025991339999,911.0025991339999,911.0025991339999,911.0025991339999,911.0025991339999,911.0025991339999,,,,,,32,37,28,74,74,53,None,None,,,[],[],[],[],[],[],[],-0.2,1,43,[0.0025],[-0.26875],[1],[0],[0],[5.308720170000015],['tijiao_random_2'],4.9,1.7211191530004726,920.6011811620001,922.2207973029999,913.5393081129996,913.5393081129996,913.5393081129996,913.5393081129996,913.5393081129996,913.5393081129996,913.5393081129996,913.5393081129996,0.010283283000717347,913.5393081129996,918.8636599020001,918.8636599020001,918.8636599020001,918.8636599020001,,,,,,,,,,,,,,,,172,f,23,2023-04-04_11h08.35.302,RL,2022.2.4,59.737073721748104,
1,-0.3,-0.225,0,68,68,68,,,,,,,,,,None,922.2207973029999,922.2207973029999,922.2207973029999,922.2207973029999,922.2207973029999,922.2207973029999,f,0.34161777600002097,922.6089458879997,922.6089458879997,922.6089458879997,922.6089458879997,922.6089458879997,922.6089458879997,922.880937252,922.880937252,924.4915614430001,924.4915614430001,924.5290785480001,924.5290785480001,924.5290785480001,924.5290785480001,924.5290785480001,924.5290785480001,924.5290785480001,924.5290785480001,924.5290785480001,924.5290785480001,924.5290785480001,924.5290785480001,924.5290785480001,924.5290785480001,924.5290785480001,,,,,,36,52,21,82,52,36,None,None,56,56,[0.0025],[-0.27875],[1],[0],[0],[7.968471867000517],['tijiao'],0.6,0,,[],[],[],[],[],[],[],6.9624999999999995,1.5382391989996904,936.6065977959997,938.197370541,,,,,,,,,,,935.0503989190001,935.0503989190001,935.0503989190001,935.0503989190001,927.0524707679997,927.0524707679997,927.0524707679997,927.0524707679997,927.0524707679997,927.0524707679997,927.0524707679997,927.0524707679997,0.008721905000129482,927.0524707679997,,,,,,172,f,23,2023-04-04_11h08.35.302,RL,2022.2.4,59.737073721748104,
0,0.3,0.225,0,69,69,69,,,,,,,,,,None,938.197370541,938.197370541,938.197370541,938.197370541,938.197370541,938.197370541,f,0.3323655399999552,938.5847576300002,938.5847576300002,938.5847576300002,938.5847576300002,938.5847576300002,938.5847576300002,938.854529704,938.854529704,940.2265787819997,940.2265787819997,940.2466101190003,940.2466101190003,940.2466101190003,940.2466101190003,940.2466101190003,940.2466101190003,940.2466101190003,940.2466101190003,940.2466101190003,940.2466101190003,940.2466101190003,940.2466101190003,940.2466101190003,940.2466101190003,940.2466101190003,942.764755399,942.764755399,942.764755399,942.764755399,942.764755399,43,56,30,74,56,55,7.0,1.9323773670002993,,,[],[],[],[],[],[],[],-0.2,3,,[],[],[],[],[],[],[],None,None,944.7397363969994,946.3007540669996,,,,,,,,,,,,,,,,,,,,,,,,,,,,,,172,f,23,2023-04-04_11h08.35.302,RL,2022.2.4,59.737073721748104,
1,-0.3,-0.225,0,70,70,70,,,,,,,,,,None,946.3007540669996,946.3007540669996,946.3007540669996,946.3007540669996,946.3007540669996,946.3007540669996,j,0.357949207999809,946.7036986769999,946.7036986769999,946.7036986769999,946.7036986769999,946.7036986769999,946.7036986769999,946.9751909890001,946.9751909890001,948.4607356429997,948.4607356429997,948.4848843,948.4848843,948.4848843,948.4848843,948.4848843,948.4848843,948.4848843,948.4848843,948.4848843,948.4848843,948.4848843,948.4848843,948.4848843,948.4848843,948.4848843,,,,,,33,64,24,65,65,53,None,None,,,[],[],[],[],[],[],[],0.2,1,63,[0.0175],[-0.30375],[1],[0],[0],[5.3107192329998725],['tijiao_random_2'],7.9875,1.4287090380003065,957.7977509279999,959.7077012350001,951.0238836130002,951.0238836130002,951.0238836130002,951.0238836130002,951.0238836130002,951.0238836130002,951.0238836130002,951.0238836130002,0.010911345999375044,951.0238836130002,956.3502409599996,956.3502409599996,956.3502409599996,956.3502409599996,,,,,,,,,,,,,,,,172,f,23,2023-04-04_11h08.35.302,RL,2022.2.4,59.737073721748104,
0,0.3,0.225,0,71,71,71,,,,,,,,,,None,959.7077012350001,959.7077012350001,959.7077012350001,959.7077012350001,959.7077012350001,959.7077012350001,j,0.4352330029996665,960.1969887320001,960.1969887320001,960.1969887320001,960.1969887320001,960.1969887320001,960.1969887320001,960.4654049390001,960.4654049390001,961.9807285939996,961.9807285939996,962.0230343519997,962.0230343519997,962.0230343519997,962.0230343519997,962.0230343519997,962.0230343519997,962.0230343519997,962.0230343519997,962.0230343519997,962.0230343519997,962.0230343519997,962.0230343519997,962.0230343519997,962.0230343519997,962.0230343519997,964.5250719349997,964.5250719349997,964.5250719349997,964.5250719349997,964.5250719349997,42,56,25,62,62,50,7.0,2.3415051399997537,,,[],[],[],[],[],[],[],-0.6,3,,[],[],[],[],[],[],[],None,None,966.9118374789996,968.8602410899994,,,,,,,,,,,,,,,,,,,,,,,,,,,,,,172,f,23,2023-04-04_11h08.35.302,RL,2022.2.4,59.737073721748104,
1,-0.3,-0.225,0,72,72,72,,,,,,,,,,None,968.8602410899994,968.8602410899994,968.8602410899994,968.8602410899994,968.8602410899994,968.8602410899994,f,0.46274107599947456,969.3658918789997,969.3658918789997,969.3658918789997,969.3658918789997,969.3658918789997,969.3658918789997,969.6349284199996,969.6349284199996,971.1944043889998,971.1944043889998,971.2319514430001,971.2319514430001,971.2319514430001,971.2319514430001,971.2319514430001,971.2319514430001,971.2319514430001,971.2319514430001,971.2319514430001,971.2319514430001,971.2319514430001,971.2319514430001,971.2319514430001,971.2319514430001,971.2319514430001,973.7341690120002,973.7341690120002,973.7341690120002,973.7341690120002,973.7341690120002,40,58,23,75,58,45,6.0,1.8223095010007455,,,[],[],[],[],[],[],[],-0.6,3,,[],[],[],[],[],[],[],None,None,975.6006018959997,977.5977935889996,,,,,,,,,,,,,,,,,,,,,,,,,,,,,,172,f,23,2023-04-04_11h08.35.302,RL,2022.2.4,59.737073721748104,
0,0.3,0.225,0,73,73,73,,,,,,,,,,None,977.5977935889996,977.5977935889996,977.5977935889996,977.5977935889996,977.5977935889996,977.5977935889996,i,0.5058151690000159,978.1532747609999,978.1532747609999,978.1532747609999,978.1532747609999,978.1532747609999,978.1532747609999,978.4224454539999,978.4224454539999,979.8611947929994,979.8611947929994,979.9012732599995,979.9012732599995,979.9012732599995,979.9012732599995,979.9012732599995,979.9012732599995,979.9012732599995,979.9012732599995,979.9012732599995,979.9012732599995,979.9012732599995,979.9012732599995,979.9012732599995,979.9012732599995,979.9012732599995,982.4012194669995,982.4012194669995,982.4012194669995,982.4012194669995,982.4012194669995,45,53,22,70,22,63,2.0,1.3664557279998917,,,[],[],[],[],[],[],[],-0.6,2,,[],[],[],[],[],[],[],None,None,983.8150487189996,985.4029812640001,,,,,,,,,,,,,,,,,,,,,,,,,,,,,,172,f,23,2023-04-04_11h08.35.302,RL,2022.2.4,59.737073721748104,
1,-0.3,-0.225,0,74,74,74,,,,,,,,,,None,985.4029812640001,985.4029812640001,985.4029812640001,985.4029812640001,985.4029812640001,985.4029812640001,f,0.6977144869997574,986.147187222,986.147187222,986.147187222,986.147187222,986.147187222,986.147187222,986.4118248509994,986.4118248509994,988.3693469069995,988.3693469069995,988.4101080959999,988.4101080959999,988.4101080959999,988.4101080959999,988.4101080959999,988.4101080959999,988.4101080959999,988.4101080959999,988.4101080959999,988.4101080959999,988.4101080959999,988.4101080959999,988.4101080959999,988.4101080959999,988.4101080959999,,,,,,38,60,25,68,60,66,None,None,,,[],[],[],[],[],[],[],-0.6,1,24,[-0.035],[-0.27125],[1],[0],[0],[3.5944771419999597],['tijiao_random_2'],7.7875,1.8122218150001572,996.3877513899997,997.9232658009996,990.9465917079997,990.9465917079997,990.9465917079997,990.9465917079997,990.9465917079997,990.9465917079997,990.9465917079997,990.9465917079997,0.010377431000051729,990.9465917079997,994.5586161439996,994.5586161439996,994.5586161439996,994.5586161439996,,,,,,,,,,,,,,,,172,f,23,2023-04-04_11h08.35.302,RL,2022.2.4,59.737073721748104,
0,0.3,0.225,0,75,75,75,,,,,,,,,,q,1032.5452247889998,1032.5452247889998,1032.5452247889998,1032.5452247889998,1032.5452247889998,1032.5452247889998,r,0.5329737279998881,1033.118532775,1033.118532775,1033.118532775,1033.118532775,1033.118532775,1033.118532775,1033.3830458029997,1033.3830458029997,1034.6142482779996,1034.6142482779996,1034.655179843,1034.655179843,1034.655179843,1034.655179843,1034.655179843,1034.655179843,1034.655179843,1034.655179843,1034.655179843,1034.655179843,1034.655179843,1034.655179843,1034.655179843,1034.655179843,1034.655179843,1037.1518882179998,1037.1518882179998,1037.1518882179998,1037.1518882179998,1037.1518882179998,32,60,24,74,32,49,3.0,1.888187583999752,,,[],[],[],[],[],[],[],0.6,2,,[],[],[],[],[],[],[],None,None,1039.084330064,1040.9273845449998,,,,,,,,,,,,,,,,,,,,,,,,,,,997.9232658009996,997.9232658009996,34.58609999800046,172,f,23,2023-04-04_11h08.35.302,RL,2022.2.4,59.737073721748104,
1,-0.3,-0.225,0,76,76,76,,,,,,,,,,None,1040.9273845449998,1040.9273845449998,1040.9273845449998,1040.9273845449998,1040.9273845449998,1040.9273845449998,j,0.32286354999996547,1041.3014150829995,1041.3014150829995,1041.3014150829995,1041.3014150829995,1041.3014150829995,1041.3014150829995,1041.5711224389997,1041.5711224389997,1042.9683060939997,1042.9683060939997,1043.011289389,1043.011289389,1043.011289389,1043.011289389,1043.011289389,1043.011289389,1043.011289389,1043.011289389,1043.011289389,1043.011289389,1043.011289389,1043.011289389,1043.011289389,1043.011289389,1043.011289389,,,,,,45,57,28,66,66,65,None,None,,,[],[],[],[],[],[],[],0.6,1,63,[-0.1125],[-0.30125],[1],[0],[0],[3.347705395999583],['tijiao_random_2'],7.7875,1.915041284999461,1050.8370515289998,1052.7494127549999,1045.5401745399995,1045.5401745399995,1045.5401745399995,1045.5401745399995,1045.5401745399995,1045.5401745399995,1045.5401745399995,1045.5401745399995,0.010526982000556018,1045.5401745399995,1048.9024032440002,1048.9024032440002,1048.9024032440002,1048.9024032440002,,,,,,,,,,,,,,,,172,f,23,2023-04-04_11h08.35.302,RL,2022.2.4,59.737073721748104,
0,0.3,0.225,0,77,77,77,,,,,,,,,,None,1052.7494127549999,1052.7494127549999,1052.7494127549999,1052.7494127549999,1052.7494127549999,1052.7494127549999,j,0.3811441090001608,1053.1717076879995,1053.1717076879995,1053.1717076879995,1053.1717076879995,1053.1717076879995,1053.1717076879995,1053.4435138119998,1053.4435138119998,1055.2389122630002,1055.2389122630002,1055.2626139570002,1055.2626139570002,1055.2626139570002,1055.2626139570002,1055.2626139570002,1055.2626139570002,1055.2626139570002,1055.2626139570002,1055.2626139570002,1055.2626139570002,1055.2626139570002,1055.2626139570002,1055.2626139570002,1055.2626139570002,1055.2626139570002,,,,,,46,50,27,69,69,60,None,None,70,70,[0.03375],[-0.2825],[1],[0],[0],[4.1719138910002584],['tijiao'],-0.6,0,,[],[],[],[],[],[],[],9.0,2.717006351999771,1064.7260798709995,1066.2906255560001,,,,,,,,,,,1061.9917559139994,1061.9917559139994,1061.9917559139994,1061.9917559139994,1057.7897191249995,1057.7897191249995,1057.7897191249995,1057.7897191249995,1057.7897191249995,1057.7897191249995,1057.7897191249995,1057.7897191249995,0.009858523000730202,1057.7897191249995,,,,,,172,f,23,2023-04-04_11h08.35.302,RL,2022.2.4,59.737073721748104,
1,-0.3,-0.225,0,78,78,78,,,,,,,,,,None,1066.2906255560001,1066.2906255560001,1066.2906255560001,1066.2906255560001,1066.2906255560001,1066.2906255560001,j,0.30461604700030875,1066.6422515919994,1066.6422515919994,1066.6422515919994,1066.6422515919994,1066.6422515919994,1066.6422515919994,1066.9187133999994,1066.9187133999994,1067.8610721529994,1067.8610721529994,1067.8858069569997,1067.8858069569997,1067.8858069569997,1067.8858069569997,1067.8858069569997,1067.8858069569997,1067.8858069569997,1067.8858069569997,1067.8858069569997,1067.8858069569997,1067.8858069569997,1067.8858069569997,1067.8858069569997,1067.8858069569997,1067.8858069569997,1070.387252695,1070.387252695,1070.387252695,1070.387252695,1070.387252695,49,48,20,70,70,40,7.0,2.6323709549997147,,,[],[],[],[],[],[],[],0.2,3,,[],[],[],[],[],[],[],None,None,1073.0650431180002,1074.7443337949999,,,,,,,,,,,,,,,,,,,,,,,,,,,,,,172,f,23,2023-04-04_11h08.35.302,RL,2022.2.4,59.737073721748104,
0,0.3,0.225,0,79,79,79,,,,,,,,,,None,1074.7443337949999,1074.7443337949999,1074.7443337949999,1074.7443337949999,1074.7443337949999,1074.7443337949999,j,0.6601772899994103,1075.450495657,1075.450495657,1075.450495657,1075.450495657,1075.450495657,1075.450495657,1075.7218102309998,1075.7218102309998,1077.3476223859998,1077.3476223859998,1077.384980017,1077.384980017,1077.384980017,1077.384980017,1077.384980017,1077.384980017,1077.384980017,1077.384980017,1077.384980017,1077.384980017,1077.384980017,1077.384980017,1077.384980017,1077.384980017,1077.384980017,,,,,,48,47,37,68,68,78,None,None,68,68,[0.05875],[-0.3],[1],[0],[0],[6.3792679309999585],['tijiao'],0.6,0,,[],[],[],[],[],[],[],9.9625,1.7581213980001849,1088.0814765079995,1089.984411454,,,,,,,,,,,1086.3084312,1086.3084312,1086.3084312,1086.3084312,1079.8981409789994,1079.8981409789994,1079.8981409789994,1079.8981409789994,1079.8981409789994,1079.8981409789994,1079.8981409789994,1079.8981409789994,0.008986492999611073,1079.8981409789994,,,,,,172,f,23,2023-04-04_11h08.35.302,RL,2022.2.4,59.737073721748104,
1,-0.3,-0.225,0,80,80,80,,,,,,,,,,None,1089.984411454,1089.984411454,1089.984411454,1089.984411454,1089.984411454,1089.984411454,j,0.36929563699959544,1090.4085966249995,1090.4085966249995,1090.4085966249995,1090.4085966249995,1090.4085966249995,1090.4085966249995,1090.6757320340002,1090.6757320340002,1092.1244387669994,1092.1244387669994,1092.170062487,1092.170062487,1092.170062487,1092.170062487,1092.170062487,1092.170062487,1092.170062487,1092.170062487,1092.170062487,1092.170062487,1092.170062487,1092.170062487,1092.170062487,1092.170062487,1092.170062487,,,,,,48,52,33,58,58,52,None,None,,,[],[],[],[],[],[],[],-0.2,1,78,[0.13375],[-0.3025],[1],[0],[0],[6.125151541999912],['tijiao_random_2'],9.9625,1.2193292229994768,1102.0836328149999,1103.875719259,1094.7043550179997,1094.7043550179997,1094.7043550179997,1094.7043550179997,1094.7043550179997,1094.7043550179997,1094.7043550179997,1094.7043550179997,0.009764695999365358,1094.7043550179997,1100.844042881,1100.844042881,1100.844042881,1100.844042881,,,,,,,,,,,,,,,,172,f,23,2023-04-04_11h08.35.302,RL,2022.2.4,59.737073721748104,
0,0.3,0.225,0,81,81,81,,,,,,,,,,None,1103.875719259,1103.875719259,1103.875719259,1103.875719259,1103.875719259,1103.875719259,f,0.2681239879993882,1104.1816449629996,1104.1816449629996,1104.1816449629996,1104.1816449629996,1104.1816449629996,1104.1816449629996,1104.465223739,1104.465223739,1106.3557598890002,1106.3557598890002,1106.3782174440003,1106.3782174440003,1106.3782174440003,1106.3782174440003,1106.3782174440003,1106.3782174440003,1106.3782174440003,1106.3782174440003,1106.3782174440003,1106.3782174440003,1106.3782174440003,1106.3782174440003,1106.3782174440003,1106.3782174440003,1106.3782174440003,1108.889672628,1108.889672628,1108.889672628,1108.889672628,1108.889672628,53,50,31,57,50,76,3.0,1.9481620079995992,,,[],[],[],[],[],[],[],0.2,3,,[],[],[],[],[],[],[],None,None,1110.8811279289994,1112.696105731,,,,,,,,,,,,,,,,,,,,,,,,,,,,,,172,f,23,2023-04-04_11h08.35.302,RL,2022.2.4,59.737073721748104,
1,-0.3,-0.225,0,82,82,82,,,,,,,,,,None,1112.696105731,1112.696105731,1112.696105731,1112.696105731,1112.696105731,1112.696105731,i,0.29000858499966853,1113.033496424,1113.033496424,1113.033496424,1113.033496424,1113.033496424,1113.033496424,1113.3037375019994,1113.3037375019994,1114.758678606,1114.758678606,1114.7961261729997,1114.7961261729997,1114.7961261729997,1114.7961261729997,1114.7961261729997,1114.7961261729997,1114.7961261729997,1114.7961261729997,1114.7961261729997,1114.7961261729997,1114.7961261729997,1114.7961261729997,1114.7961261729997,1114.7961261729997,1114.7961261729997,1117.3091349699998,1117.3091349699998,1117.3091349699998,1117.3091349699998,1117.3091349699998,46,53,27,62,27,67,3.0,2.068770242000028,,,[],[],[],[],[],[],[],-0.2,2,,[],[],[],[],[],[],[],None,None,1119.4215132889994,1121.3485540909996,,,,,,,,,,,,,,,,,,,,,,,,,,,,,,172,f,23,2023-04-04_11h08.35.302,RL,2022.2.4,59.737073721748104,
0,0.3,0.225,0,83,83,83,,,,,,,,,,None,1121.3485540909996,1121.3485540909996,1121.3485540909996,1121.3485540909996,1121.3485540909996,1121.3485540909996,r,0.26759690699964267,1121.6708499269998,1121.6708499269998,1121.6708499269998,1121.6708499269998,1121.6708499269998,1121.6708499269998,1121.94240282,1121.94240282,1123.1596709690002,1123.1596709690002,1123.1832496119996,1123.1832496119996,1123.1832496119996,1123.1832496119996,1123.1832496119996,1123.1832496119996,1123.1832496119996,1123.1832496119996,1123.1832496119996,1123.1832496119996,1123.1832496119996,1123.1832496119996,1123.1832496119996,1123.1832496119996,1123.1832496119996,1125.6858724429994,1125.6858724429994,1125.6858724429994,1125.6858724429994,1125.6858724429994,32,45,40,58,32,67,3.0,1.7285992779998196,,,[],[],[],[],[],[],[],0.6,2,,[],[],[],[],[],[],[],None,None,1127.4555092279998,1129.353594274,,,,,,,,,,,,,,,,,,,,,,,,,,,,,,172,f,23,2023-04-04_11h08.35.302,RL,2022.2.4,59.737073721748104,
1,-0.3,-0.225,0,84,84,84,,,,,,,,,,None,1129.353594274,1129.353594274,1129.353594274,1129.353594274,1129.353594274,1129.353594274,j,0.4023430990000634,1129.7977665580001,1129.7977665580001,1129.7977665580001,1129.7977665580001,1129.7977665580001,1129.7977665580001,1130.0664568759994,1130.0664568759994,1130.9562604109997,1130.9562604109997,1130.9952144789995,1130.9952144789995,1130.9952144789995,1130.9952144789995,1130.9952144789995,1130.9952144789995,1130.9952144789995,1130.9952144789995,1130.9952144789995,1130.9952144789995,1130.9952144789995,1130.9952144789995,1130.9952144789995,1130.9952144789995,1130.9952144789995,1133.4976810950002,1133.4976810950002,1133.4976810950002,1133.4976810950002,1133.4976810950002,33,50,36,58,58,51,5.0,1.3057051460000366,,,[],[],[],[],[],[],[],-0.6,2,,[],[],[],[],[],[],[],None,None,1134.8488992339999,1136.3743310250002,,,,,,,,,,,,,,,,,,,,,,,,,,,,,,172,f,23,2023-04-04_11h08.35.302,RL,2022.2.4,59.737073721748104,
0,0.3,0.225,0,85,85,85,,,,,,,,,,None,1136.3743310250002,1136.3743310250002,1136.3743310250002,1136.3743310250002,1136.3743310250002,1136.3743310250002,f,0.2862176520002322,1136.709913953,1136.709913953,1136.709913953,1136.709913953,1136.709913953,1136.709913953,1136.981556191,1136.981556191,1138.750008858,1138.750008858,1138.7901429229996,1138.7901429229996,1138.7901429229996,1138.7901429229996,1138.7901429229996,1138.7901429229996,1138.7901429229996,1138.7901429229996,1138.7901429229996,1138.7901429229996,1138.7901429229996,1138.7901429229996,1138.7901429229996,1138.7901429229996,1138.7901429229996,,,,,,38,51,35,64,51,63,None,None,65,65,[0.0025],[-0.2675],[1],[0],[0],[5.075402433999443],['tijiao'],0.6,0,,[],[],[],[],[],[],[],8.0375,1.8700844890008739,1148.2973418249994,1150.2307728139995,,,,,,,,,,,1146.4082921999998,1146.4082921999998,1146.4082921999998,1146.4082921999998,1141.3051196790002,1141.3051196790002,1141.3051196790002,1141.3051196790002,1141.3051196790002,1141.3051196790002,1141.3051196790002,1141.3051196790002,0.008673938999891107,1141.3051196790002,,,,,,172,f,23,2023-04-04_11h08.35.302,RL,2022.2.4,59.737073721748104,
1,-0.3,-0.225,0,86,86,86,,,,,,,,,,None,1150.2307728139995,1150.2307728139995,1150.2307728139995,1150.2307728139995,1150.2307728139995,1150.2307728139995,f,0.4073637569999846,1150.6909714530002,1150.6909714530002,1150.6909714530002,1150.6909714530002,1150.6909714530002,1150.6909714530002,1150.9557861719995,1150.9557861719995,1151.913282386,1151.913282386,1151.951216552,1151.951216552,1151.951216552,1151.951216552,1151.951216552,1151.951216552,1151.951216552,1151.951216552,1151.951216552,1151.951216552,1151.951216552,1151.951216552,1151.951216552,1151.951216552,1151.951216552,1154.453903441,1154.453903441,1154.453903441,1154.453903441,1154.453903441,37,51,34,66,51,41,6.0,1.6218340440000247,,,[],[],[],[],[],[],[],-0.6,3,,[],[],[],[],[],[],[],None,None,1156.1147681889997,1157.6664126939995,,,,,,,,,,,,,,,,,,,,,,,,,,,,,,172,f,23,2023-04-04_11h08.35.302,RL,2022.2.4,59.737073721748104,
0,0.3,0.225,0,87,87,87,,,,,,,,,,None,1157.6664126939995,1157.6664126939995,1157.6664126939995,1157.6664126939995,1157.6664126939995,1157.6664126939995,i,0.2857104669992623,1158.0034713169998,1158.0034713169998,1158.0034713169998,1158.0034713169998,1158.0034713169998,1158.0034713169998,1158.2750869989995,1158.2750869989995,1159.8187438819996,1159.8187438819996,1159.8594729389997,1159.8594729389997,1159.8594729389997,1159.8594729389997,1159.8594729389997,1159.8594729389997,1159.8594729389997,1159.8594729389997,1159.8594729389997,1159.8594729389997,1159.8594729389997,1159.8594729389997,1159.8594729389997,1159.8594729389997,1159.8594729389997,1162.359021659,1162.359021659,1162.359021659,1162.359021659,1162.359021659,41,51,31,66,31,30,5.0,1.9866845959995771,,,[],[],[],[],[],[],[],-0.2,2,,[],[],[],[],[],[],[],None,None,1164.3899904239997,1166.1537033079994,,,,,,,,,,,,,,,,,,,,,,,,,,,,,,172,f,23,2023-04-04_11h08.35.302,RL,2022.2.4,59.737073721748104,
1,-0.3,-0.225,0,88,88,88,,,,,,,,,,None,1166.1537033079994,1166.1537033079994,1166.1537033079994,1166.1537033079994,1166.1537033079994,1166.1537033079994,f,0.42150912299985066,1166.6253743979996,1166.6253743979996,1166.6253743979996,1166.6253743979996,1166.6253743979996,1166.6253743979996,1166.8973366789996,1166.8973366789996,1167.9296049719997,1167.9296049719997,1167.9709222949996,1167.9709222949996,1167.9709222949996,1167.9709222949996,1167.9709222949996,1167.9709222949996,1167.9709222949996,1167.9709222949996,1167.9709222949996,1167.9709222949996,1167.9709222949996,1167.9709222949996,1167.9709222949996,1167.9709222949996,1167.9709222949996,1170.4754372919997,1170.4754372919997,1170.4754372919997,1170.4754372919997,1170.4754372919997,43,55,38,53,55,36,6.0,2.458461021000403,,,[],[],[],[],[],[],[],-0.6,2,,[],[],[],[],[],[],[],None,None,1172.9784163979994,1174.8071801239994,,,,,,,,,,,,,,,,,,,,,,,,,,,,,,172,f,23,2023-04-04_11h08.35.302,RL,2022.2.4,59.737073721748104,
0,0.3,0.225,0,89,89,89,,,,,,,,,,None,1174.8071801239994,1174.8071801239994,1174.8071801239994,1174.8071801239994,1174.8071801239994,1174.8071801239994,j,0.2969831750006051,1175.1533865789997,1175.1533865789997,1175.1533865789997,1175.1533865789997,1175.1533865789997,1175.1533865789997,1175.4327212990001,1175.4327212990001,1177.35297086,1177.35297086,1177.3768620459996,1177.3768620459996,1177.3768620459996,1177.3768620459996,1177.3768620459996,1177.3768620459996,1177.3768620459996,1177.3768620459996,1177.3768620459996,1177.3768620459996,1177.3768620459996,1177.3768620459996,1177.3768620459996,1177.3768620459996,1177.3768620459996,,,,,,40,56,34,52,52,48,None,None,59,59,[0.0575],[-0.2875],[1],[0],[0],[4.443203600999368],['tijiao'],-0.2,0,,[],[],[],[],[],[],[],9.925,1.8691314809993855,1186.258465506,1188.183378187,,,,,,,,,,,1184.3736816720002,1184.3736816720002,1184.3736816720002,1184.3736816720002,1179.8982406529994,1179.8982406529994,1179.8982406529994,1179.8982406529994,1179.8982406529994,1179.8982406529994,1179.8982406529994,1179.8982406529994,0.00927854500059766,1179.8982406529994,,,,,,172,f,23,2023-04-04_11h08.35.302,RL,2022.2.4,59.737073721748104,
1,-0.3,-0.225,0,90,90,90,,,,,,,,,,None,1188.183378187,1188.183378187,1188.183378187,1188.183378187,1188.183378187,1188.183378187,j,0.3778045090002706,1188.602801291,1188.602801291,1188.602801291,1188.602801291,1188.602801291,1188.602801291,1188.8738691709996,1188.8738691709996,1190.0862788719996,1190.0862788719996,1190.1097464570003,1190.1097464570003,1190.1097464570003,1190.1097464570003,1190.1097464570003,1190.1097464570003,1190.1097464570003,1190.1097464570003,1190.1097464570003,1190.1097464570003,1190.1097464570003,1190.1097464570003,1190.1097464570003,1190.1097464570003,1190.1097464570003,1192.615206595,1192.615206595,1192.615206595,1192.615206595,1192.615206595,38,54,35,54,54,38,5.0,1.9335841889997027,,,[],[],[],[],[],[],[],-0.6,2,,[],[],[],[],[],[],[],None,None,1194.5922920470002,1196.2533505439997,,,,,,,,,,,,,,,,,,,,,,,,,,,,,,172,f,23,2023-04-04_11h08.35.302,RL,2022.2.4,59.737073721748104,
0,0.3,0.225,0,91,91,91,,,,,,,,,,None,1196.2533505439997,1196.2533505439997,1196.2533505439997,1196.2533505439997,1196.2533505439997,1196.2533505439997,f,0.4778678080001555,1196.7813800499998,1196.7813800499998,1196.7813800499998,1196.7813800499998,1196.7813800499998,1196.7813800499998,1197.0591591619996,1197.0591591619996,1197.921031795,1197.921031795,1197.941083865,1197.941083865,1197.941083865,1197.941083865,1197.941083865,1197.941083865,1197.941083865,1197.941083865,1197.941083865,1197.941083865,1197.941083865,1197.941083865,1197.941083865,1197.941083865,1197.941083865,,,,,,42,56,33,64,56,52,None,None,,,[],[],[],[],[],[],[],-0.2,1,63,[-0.02],[-0.295],[1],[0],[0],[4.360979305000001],['tijiao_random_2'],8.925,1.5601698660002512,1206.4346452929994,1208.0749068059995,1200.4781082929994,1200.4781082929994,1200.4781082929994,1200.4781082929994,1200.4781082929994,1200.4781082929994,1200.4781082929994,1200.4781082929994,0.010534719000133919,1200.4781082929994,1204.8567230789995,1204.8567230789995,1204.8567230789995,1204.8567230789995,,,,,,,,,,,,,,,,172,f,23,2023-04-04_11h08.35.302,RL,2022.2.4,59.737073721748104,
1,-0.3,-0.225,0,92,92,92,,,,,,,,,,None,1208.0749068059995,1208.0749068059995,1208.0749068059995,1208.0749068059995,1208.0749068059995,1208.0749068059995,f,0.2954744700000447,1208.4129159639997,1208.4129159639997,1208.4129159639997,1208.4129159639997,1208.4129159639997,1208.4129159639997,1208.6813212839998,1208.6813212839998,1210.087542446,1210.087542446,1210.1235252689994,1210.1235252689994,1210.1235252689994,1210.1235252689994,1210.1235252689994,1210.1235252689994,1210.1235252689994,1210.1235252689994,1210.1235252689994,1210.1235252689994,1210.1235252689994,1210.1235252689994,1210.1235252689994,1210.1235252689994,1210.1235252689994,1212.626167632,1212.626167632,1212.626167632,1212.626167632,1212.626167632,38,51,29,74,51,37,5.0,1.8535687609992237,,,[],[],[],[],[],[],[],0.6,2,,[],[],[],[],[],[],[],None,None,1214.5302278519994,1216.0958816269995,,,,,,,,,,,,,,,,,,,,,,,,,,,,,,172,f,23,2023-04-04_11h08.35.302,RL,2022.2.4,59.737073721748104,
0,0.3,0.225,0,93,93,93,,,,,,,,,,None,1216.0958816269995,1216.0958816269995,1216.0958816269995,1216.0958816269995,1216.0958816269995,1216.0958816269995,i,0.4136317490001602,1216.5557310590002,1216.5557310590002,1216.5557310590002,1216.5557310590002,1216.5557310590002,1216.5557310590002,1216.8354801149999,1216.8354801149999,1218.139872408,1218.139872408,1218.1627224369995,1218.1627224369995,1218.1627224369995,1218.1627224369995,1218.1627224369995,1218.1627224369995,1218.1627224369995,1218.1627224369995,1218.1627224369995,1218.1627224369995,1218.1627224369995,1218.1627224369995,1218.1627224369995,1218.1627224369995,1218.1627224369995,,,,,,48,51,32,66,32,42,None,None,,,[],[],[],[],[],[],[],-0.2,1,53,[0.0],[-0.3],[1],[0],[0],[11.17539046300044],['tijiao_random_2'],7.012500000000001,1.7364957199997662,1233.650596427,1235.1714093829996,1220.7022888969996,1220.7022888969996,1220.7022888969996,1220.7022888969996,1220.7022888969996,1220.7022888969996,1220.7022888969996,1220.7022888969996,0.01019314699988172,1220.7022888969996,1231.8939065349996,1231.8939065349996,1231.8939065349996,1231.8939065349996,,,,,,,,,,,,,,,,172,f,23,2023-04-04_11h08.35.302,RL,2022.2.4,59.737073721748104,
