bandit0,black_x_pos_random,black_y_pos_random,trials.thisRepN,trials.thisTrialN,trials.thisN,trials.thisIndex,instru_img1.started,instru_resp.started,instru_resp.keys,instru_resp.rt,instru_img2.started,instru_resp2.started,instru_resp2.keys,instru_resp2.rt,fixbefore_2.started,rest_response.keys,red.started,green.started,yellow.started,blue.started,choose_bandit.started,Fixation.started,choose_bandit.keys,choose_bandit.rt,black.started,red_2.started,green_2.started,yellow_2.started,blue_2.started,fixation_2.started,docs.started,wait_playerB.started,docs.stopped,wait_playerB.stopped,black.stopped,red_2.stopped,green_2.stopped,yellow_2.stopped,blue_2.stopped,fixation_2.stopped,black_com.started,reward_sub.started,palyerb.started,reward__sub.started,compare.started,red_compare.started,green_com.started,yellow_com.started,blue_com.started,rewardyellow,rewardred,rewardblue,rewardgreen,subchoose,playerb,slider.response,slider.rt,expectself.text,value_expect_self,tijiao_click.x,tijiao_click.y,tijiao_click.leftButton,tijiao_click.midButton,tijiao_click.rightButton,tijiao_click.time,tijiao_click.clicked_name,random_whicharm,whether_ask,jiantou_random.started,expect_red.started,expect_green.started,expect_yellow.started,expect_blue.started,expect_random_2.started,expect_random_3.started,tijiao_random_2.started,tijiao_random.started,check_2.started,expect_random_3.text,tijiao_random.x,tijiao_random.y,tijiao_random.leftButton,tijiao_random.midButton,tijiao_random.rightButton,tijiao_random.time,tijiao_random.clicked_name,slider_2.started,image_7.started,confi.started,notconfi.started,slider_2.response,slider_2.rt,intertrialfix.started,intertrialfix.stopped,image_3.started,slider.started,text.started,image_4.started,image_5.started,expectself.started,expect_self_black.started,expect_self.started,expect_self_red.started,expect_self_green.started,expect_self_yellow.started,expect_self_blue.started,tijiao.started,tijiao_click.started,check.started,bigx.started,bigx.stopped,rest_image.started,rest_response.started,rest_response.rt,participant,Gender,Age,date,expName,psychopyVersion,frameRate,
,,,,,,,71.6296724001877,71.6296724001877,space,39.86684580007568,,,,,,,,,,,,,,,,,,,,,,,,,,,,,,,,,,,,,,,,,,,,,,,,,,,,,,,,,,,,,,,,,,,,,,,,,,,,,,,,,,,,,,,,,,,,,,,,,,,,,,,,,273,f,29,2023-04-04_13h34.56.582,RL,2022.2.4,60.17538724417507,
,,,,,,,,,,,111.52576560014859,111.52576560014859,s,70.39264870015904,,,,,,,,,,,,,,,,,,,,,,,,,,,,,,,,,,,,,,,,,,,,,,,,,,,,,,,,,,,,,,,,,,,,,,,,,,,,,,,,,,,,,,,,,,,,,,,,,,,,,273,f,29,2023-04-04_13h34.56.582,RL,2022.2.4,60.17538724417507,
1,-0.3,-0.225,0,0,0,0,,,,,,,,,181.94272900000215,None,182.97040490014479,182.97040490014479,182.97040490014479,182.97040490014479,182.97040490014479,182.97040490014479,f,0.8510737998876721,183.8715145001188,183.8715145001188,183.8715145001188,183.8715145001188,183.8715145001188,183.8715145001188,184.153064600192,184.153064600192,185.8152211001143,185.8152211001143,185.83273420017213,185.83273420017213,185.83273420017213,185.83273420017213,185.83273420017213,185.83273420017213,185.83273420017213,185.83273420017213,185.83273420017213,185.83273420017213,185.83273420017213,185.83273420017213,185.83273420017213,185.83273420017213,185.83273420017213,59,41,58,29,41,76,None,None,,,[],[],[],[],[],[],[],0.6,1,188.41732350015081,188.41732350015081,188.41732350015081,188.41732350015081,188.41732350015081,188.41732350015081,188.41732350015081,188.41732350015081,0.008046300150454044,188.41732350015081,34,[0.03888888888888889],[-0.287962962962963],[1],[0],[0],[8.512297000037506],['tijiao_random_2'],196.9923058000859,196.9923058000859,196.9923058000859,196.9923058000859,2.0185185185185186,5.813032400095835,202.85785750020295,204.38116300012916,,,,,,,,,,,,,,,,,,,,,273,f,29,2023-04-04_13h34.56.582,RL,2022.2.4,60.17538724417507,
0,0.3,0.225,0,1,1,1,,,,,,,,,,None,204.38116300012916,204.38116300012916,204.38116300012916,204.38116300012916,204.38116300012916,204.38116300012916,f,1.231546799885109,205.64506330015138,205.64506330015138,205.64506330015138,205.64506330015138,205.64506330015138,205.64506330015138,205.94376440020278,205.94376440020278,207.53918920014985,207.53918920014985,207.53918920014985,207.53918920014985,207.53918920014985,207.53918920014985,207.53918920014985,207.53918920014985,207.53918920014985,207.53918920014985,207.53918920014985,207.53918920014985,207.53918920014985,207.53918920014985,207.53918920014985,207.53918920014985,207.53918920014985,63,44,63,21,44,63,2.0,2.2933686999604106,,,[],[],[],[],[],[],[],0.6,3,,,,,,,,,,,,[],[],[],[],[],[],[],,,,,None,None,212.37487450009212,213.90506440005265,210.04887980013154,210.04887980013154,210.04887980013154,210.04887980013154,210.04887980013154,,,,,,,,,,,,,,,,273,f,29,2023-04-04_13h34.56.582,RL,2022.2.4,60.17538724417507,
1,-0.3,-0.225,0,2,2,2,,,,,,,,,,None,213.90506440005265,213.90506440005265,213.90506440005265,213.90506440005265,213.90506440005265,213.90506440005265,i,1.0703739000018686,215.0064824000001,215.0064824000001,215.0064824000001,215.0064824000001,215.0064824000001,215.0064824000001,215.30154200014658,215.30154200014658,217.07989940000698,217.07989940000698,217.07989940000698,217.07989940000698,217.07989940000698,217.07989940000698,217.07989940000698,217.07989940000698,217.07989940000698,217.07989940000698,217.07989940000698,217.07989940000698,217.07989940000698,217.07989940000698,217.07989940000698,217.07989940000698,217.07989940000698,67,50,58,32,58,64,1.0,3.0409062998369336,,,[],[],[],[],[],[],[],-0.6,3,,,,,,,,,,,,[],[],[],[],[],[],[],,,,,None,None,222.6600279000122,224.17638190020807,219.58909880020656,219.58909880020656,219.58909880020656,219.58909880020656,219.58909880020656,,,,,,,,,,,,,,,,273,f,29,2023-04-04_13h34.56.582,RL,2022.2.4,60.17538724417507,
0,0.3,0.225,0,3,3,3,,,,,,,,,,None,224.17638190020807,224.17638190020807,224.17638190020807,224.17638190020807,224.17638190020807,224.17638190020807,r,1.0350429001264274,225.2490373000037,225.2490373000037,225.2490373000037,225.2490373000037,225.2490373000037,225.2490373000037,225.53994800010696,225.53994800010696,226.5706124000717,226.5706124000717,226.58751219999976,226.58751219999976,226.58751219999976,226.58751219999976,226.58751219999976,226.58751219999976,226.58751219999976,226.58751219999976,226.58751219999976,226.58751219999976,226.58751219999976,226.58751219999976,226.58751219999976,226.58751219999976,226.58751219999976,61,46,59,30,61,56,None,None,,,[],[],[],[],[],[],[],0.6,1,229.10762180015445,229.10762180015445,229.10762180015445,229.10762180015445,229.10762180015445,229.10762180015445,229.10762180015445,229.10762180015445,0.006909199990332127,229.10762180015445,61,[0.018518518518518517],[-0.2953703703703704],[1],[0],[0],[10.068944599945098],['tijiao_random_2'],239.19250130001456,239.19250130001456,239.19250130001456,239.19250130001456,2.888888888888889,4.247767399996519,243.45710410014726,245.15315860020928,,,,,,,,,,,,,,,,,,,,,273,f,29,2023-04-04_13h34.56.582,RL,2022.2.4,60.17538724417507,
1,-0.3,-0.225,0,4,4,4,,,,,,,,,,None,245.15315860020928,245.15315860020928,245.15315860020928,245.15315860020928,245.15315860020928,245.15315860020928,j,0.8651209000963718,246.05209550005384,246.05209550005384,246.05209550005384,246.05209550005384,246.05209550005384,246.05209550005384,246.35018370021135,246.35018370021135,248.27775090001523,248.27775090001523,248.27775090001523,248.27775090001523,248.27775090001523,248.27775090001523,248.27775090001523,248.27775090001523,248.27775090001523,248.27775090001523,248.27775090001523,248.27775090001523,248.27775090001523,248.27775090001523,248.27775090001523,248.27775090001523,248.27775090001523,56,42,56,32,32,56,None,None,,,[],[],[],[],[],[],[],-0.6,1,250.79733820003457,250.79733820003457,250.79733820003457,250.79733820003457,250.79733820003457,250.79733820003457,250.79733820003457,250.79733820003457,0.0072870999574661255,250.79733820003457,21,[-0.053703703703703705],[-0.30925925925925923],[1],[0],[0],[8.008974500000477],['tijiao_random_2'],258.81913910014555,258.81913910014555,258.81913910014555,258.81913910014555,2.0185185185185186,4.680780899943784,263.51861400017515,265.06534460000694,,,,,,,,,,,,,,,,,,,,,273,f,29,2023-04-04_13h34.56.582,RL,2022.2.4,60.17538724417507,
0,0.3,0.225,0,5,5,5,,,,,,,,,,None,265.06534460000694,265.06534460000694,265.06534460000694,265.06534460000694,265.06534460000694,265.06534460000694,j,1.1406935001723468,266.2299756000284,266.2299756000284,266.2299756000284,266.2299756000284,266.2299756000284,266.2299756000284,266.52836690004915,266.52836690004915,267.50887290015817,267.50887290015817,267.50887290015817,267.50887290015817,267.50887290015817,267.50887290015817,267.50887290015817,267.50887290015817,267.50887290015817,267.50887290015817,267.50887290015817,267.50887290015817,267.50887290015817,267.50887290015817,267.50887290015817,267.50887290015817,267.50887290015817,57,48,56,27,27,65,None,None,,,[],[],[],[],[],[],[],0.6,1,270.0290801001247,270.0290801001247,270.0290801001247,270.0290801001247,270.0290801001247,270.0290801001247,270.0290801001247,270.0290801001247,0.006799699971452355,270.0290801001247,33,[0.12407407407407407],[-0.2898148148148148],[1],[0],[0],[8.890391399851069],['tijiao_random_2'],278.9339045002125,278.9339045002125,278.9339045002125,278.9339045002125,2.1018518518518516,2.434304299997166,281.3870899002068,282.99982840009034,,,,,,,,,,,,,,,,,,,,,273,f,29,2023-04-04_13h34.56.582,RL,2022.2.4,60.17538724417507,
1,-0.3,-0.225,0,6,6,6,,,,,,,,,,None,282.99982840009034,282.99982840009034,282.99982840009034,282.99982840009034,282.99982840009034,282.99982840009034,f,1.0453790000174195,284.06487650005147,284.06487650005147,284.06487650005147,284.06487650005147,284.06487650005147,284.06487650005147,284.3625193000771,284.3625193000771,286.1248812000267,286.1248812000267,286.1248812000267,286.1248812000267,286.1248812000267,286.1248812000267,286.1248812000267,286.1248812000267,286.1248812000267,286.1248812000267,286.1248812000267,286.1248812000267,286.1248812000267,286.1248812000267,286.1248812000267,286.1248812000267,286.1248812000267,59,47,50,46,47,55,None,None,,,[],[],[],[],[],[],[],0.2,1,288.647026500199,288.647026500199,288.647026500199,288.647026500199,288.647026500199,288.647026500199,288.647026500199,288.647026500199,0.00672670011408627,288.647026500199,46,[-0.08703703703703704],[-0.3277777777777778],[1],[0],[0],[7.374312500003725],['tijiao_random_2'],296.03433310007676,296.03433310007676,296.03433310007676,296.03433310007676,1,3.234981399960816,299.28770930017345,301.13371230009943,,,,,,,,,,,,,,,,,,,,,273,f,29,2023-04-04_13h34.56.582,RL,2022.2.4,60.17538724417507,
0,0.3,0.225,0,7,7,7,,,,,,,,,,None,301.13371230009943,301.13371230009943,301.13371230009943,301.13371230009943,301.13371230009943,301.13371230009943,j,1.126191799994558,302.28173840022646,302.28173840022646,302.28173840022646,302.28173840022646,302.28173840022646,302.28173840022646,302.57962290011346,302.57962290011346,304.3583288001828,304.3583288001828,304.3583288001828,304.3583288001828,304.3583288001828,304.3583288001828,304.3583288001828,304.3583288001828,304.3583288001828,304.3583288001828,304.3583288001828,304.3583288001828,304.3583288001828,304.3583288001828,304.3583288001828,304.3583288001828,304.3583288001828,72,48,46,43,43,49,None,None,49,49,[-0.02962962962962963],[-0.2518518518518518],[1],[0],[0],[5.324014100013301],['tijiao'],-0.6,0,,,,,,,,,,,,[],[],[],[],[],[],[],312.21609570016153,312.21609570016153,312.21609570016153,312.21609570016153,2.0370370370370368,4.920767999952659,317.15575210005045,319.0013467001263,,,,,,306.87398780020885,306.87398780020885,306.87398780020885,306.87398780020885,306.87398780020885,306.87398780020885,306.87398780020885,306.87398780020885,0.00854190019890666,306.87398780020885,,,,,,273,f,29,2023-04-04_13h34.56.582,RL,2022.2.4,60.17538724417507,
1,-0.3,-0.225,0,8,8,8,,,,,,,,,,None,319.0013467001263,319.0013467001263,319.0013467001263,319.0013467001263,319.0013467001263,319.0013467001263,None,,,,,,,,,,,,,,,,,,,,,,,,,,,56,52,54,41,0,**,None,None,,,[],[],[],[],[],[],[],-0.2,3,,,,,,,,,,,,[],[],[],[],[],[],[],,,,,None,None,326.5470396000892,328.50903360010125,,,,,,,,,,,,,,,,320.5392447002232,326.5470396000892,,,,273,f,29,2023-04-04_13h34.56.582,RL,2022.2.4,60.17538724417507,
0,0.3,0.225,0,9,9,9,,,,,,,,,,None,328.50903360010125,328.50903360010125,328.50903360010125,328.50903360010125,328.50903360010125,328.50903360010125,j,0.6570464000105858,329.19328270014375,329.19328270014375,329.19328270014375,329.19328270014375,329.19328270014375,329.19328270014375,329.4899302001577,329.4899302001577,330.90279070008546,330.90279070008546,330.90279070008546,330.90279070008546,330.90279070008546,330.90279070008546,330.90279070008546,330.90279070008546,330.90279070008546,330.90279070008546,330.90279070008546,330.90279070008546,330.90279070008546,330.90279070008546,330.90279070008546,330.90279070008546,330.90279070008546,51,47,53,48,48,47,None,None,48,48,[-0.003703703703703704],[-0.3],[1],[0],[0],[6.670562100131065],['tijiao'],-0.6,0,,,,,,,,,,,,[],[],[],[],[],[],[],340.1055524002295,340.1055524002295,340.1055524002295,340.1055524002295,3.212962962962963,2.2623893001582474,342.3867164000403,344.14963300013915,,,,,,333.4147280000616,333.4147280000616,333.4147280000616,333.4147280000616,333.4147280000616,333.4147280000616,333.4147280000616,333.4147280000616,0.007581300102174282,333.4147280000616,,,,,,273,f,29,2023-04-04_13h34.56.582,RL,2022.2.4,60.17538724417507,
1,-0.3,-0.225,0,10,10,10,,,,,,,,,,None,344.14963300013915,344.14963300013915,344.14963300013915,344.14963300013915,344.14963300013915,344.14963300013915,i,1.0974766998551786,345.28037050017156,345.28037050017156,345.28037050017156,345.28037050017156,345.28037050017156,345.28037050017156,345.57928460021503,345.57928460021503,347.0414837000426,347.0414837000426,347.05869900016114,347.05869900016114,347.05869900016114,347.05869900016114,347.05869900016114,347.05869900016114,347.05869900016114,347.05869900016114,347.05869900016114,347.05869900016114,347.05869900016114,347.05869900016114,347.05869900016114,347.05869900016114,347.05869900016114,61,46,61,46,61,47,3.0,3.55583109986037,,,[],[],[],[],[],[],[],0.6,2,,,,,,,,,,,,[],[],[],[],[],[],[],,,,,None,None,353.15102620003745,354.88719370006584,349.56777610001154,349.56777610001154,349.56777610001154,349.56777610001154,349.56777610001154,,,,,,,,,,,,,,,,273,f,29,2023-04-04_13h34.56.582,RL,2022.2.4,60.17538724417507,
0,0.3,0.225,0,11,11,11,,,,,,,,,,None,354.88719370006584,354.88719370006584,354.88719370006584,354.88719370006584,354.88719370006584,354.88719370006584,f,1.1545615999493748,356.0673256001901,356.0673256001901,356.0673256001901,356.0673256001901,356.0673256001901,356.0673256001901,356.36650560004637,356.36650560004637,357.6960972000379,357.6960972000379,357.6960972000379,357.6960972000379,357.6960972000379,357.6960972000379,357.6960972000379,357.6960972000379,357.6960972000379,357.6960972000379,357.6960972000379,357.6960972000379,357.6960972000379,357.6960972000379,357.6960972000379,357.6960972000379,357.6960972000379,60,43,51,43,43,62,None,None,,,[],[],[],[],[],[],[],0.2,1,360.2149040000513,360.2149040000513,360.2149040000513,360.2149040000513,360.2149040000513,360.2149040000513,360.2149040000513,360.2149040000513,0.005979000125080347,360.2149040000513,65,"[0.04537037037037037, 0.020370370370370372]","[-0.375, -0.287962962962963]","[1, 1]","[0, 0]","[0, 0]","[7.9434529999271035, 8.757429199991748]",['tijiao_random_2'],368.98633010010235,368.98633010010235,368.98633010010235,368.98633010010235,3.898148148148148,1.9374227998778224,370.9426360002253,372.87126910011284,,,,,,,,,,,,,,,,,,,,,273,f,29,2023-04-04_13h34.56.582,RL,2022.2.4,60.17538724417507,
1,-0.3,-0.225,0,12,12,12,,,,,,,,,,None,372.87126910011284,372.87126910011284,372.87126910011284,372.87126910011284,372.87126910011284,372.87126910011284,j,0.6959482999518514,373.5882689000573,373.5882689000573,373.5882689000573,373.5882689000573,373.5882689000573,373.5882689000573,373.88550110021606,373.88550110021606,375.1983243001159,375.1983243001159,375.21503710001707,375.21503710001707,375.21503710001707,375.21503710001707,375.21503710001707,375.21503710001707,375.21503710001707,375.21503710001707,375.21503710001707,375.21503710001707,375.21503710001707,375.21503710001707,375.21503710001707,375.21503710001707,375.21503710001707,58,51,46,43,43,61,2.0,4.005383300129324,,,[],[],[],[],[],[],[],-0.2,2,,,,,,,,,,,,[],[],[],[],[],[],[],,,,,None,None,381.7549463000614,383.6084564002231,377.7238686000928,377.7238686000928,377.7238686000928,377.7238686000928,377.7238686000928,,,,,,,,,,,,,,,,273,f,29,2023-04-04_13h34.56.582,RL,2022.2.4,60.17538724417507,
0,0.3,0.225,0,13,13,13,,,,,,,,,,None,383.6084564002231,383.6084564002231,383.6084564002231,383.6084564002231,383.6084564002231,383.6084564002231,f,1.0690119001083076,384.70596980000846,384.70596980000846,384.70596980000846,384.70596980000846,384.70596980000846,384.70596980000846,385.0051267000381,385.0051267000381,386.7834893001709,386.7834893001709,386.7834893001709,386.7834893001709,386.7834893001709,386.7834893001709,386.7834893001709,386.7834893001709,386.7834893001709,386.7834893001709,386.7834893001709,386.7834893001709,386.7834893001709,386.7834893001709,386.7834893001709,386.7834893001709,386.7834893001709,57,48,45,52,48,60,2.0,4.8860379999969155,,,[],[],[],[],[],[],[],-0.6,2,,,,,,,,,,,,[],[],[],[],[],[],[],,,,,None,None,394.2038410000969,395.7420822000131,389.2926777000539,389.2926777000539,389.2926777000539,389.2926777000539,389.2926777000539,,,,,,,,,,,,,,,,273,f,29,2023-04-04_13h34.56.582,RL,2022.2.4,60.17538724417507,
1,-0.3,-0.225,0,14,14,14,,,,,,,,,,None,395.7420822000131,395.7420822000131,395.7420822000131,395.7420822000131,395.7420822000131,395.7420822000131,j,0.9098071998450905,396.67374340002425,396.67374340002425,396.67374340002425,396.67374340002425,396.67374340002425,396.67374340002425,396.9723577001132,396.9723577001132,398.966876400169,398.966876400169,398.966876400169,398.966876400169,398.966876400169,398.966876400169,398.966876400169,398.966876400169,398.966876400169,398.966876400169,398.966876400169,398.966876400169,398.966876400169,398.966876400169,398.966876400169,398.966876400169,398.966876400169,63,49,45,54,54,69,3.0,3.0072015000041574,,,[],[],[],[],[],[],[],0.2,2,,,,,,,,,,,,[],[],[],[],[],[],[],,,,,None,None,404.50966540002264,406.1800984002184,401.47596010006964,401.47596010006964,401.47596010006964,401.47596010006964,401.47596010006964,,,,,,,,,,,,,,,,273,f,29,2023-04-04_13h34.56.582,RL,2022.2.4,60.17538724417507,
0,0.3,0.225,0,15,15,15,,,,,,,,,,None,406.1800984002184,406.1800984002184,406.1800984002184,406.1800984002184,406.1800984002184,406.1800984002184,i,1.0421880001667887,407.2459812001325,407.2459812001325,407.2459812001325,407.2459812001325,407.2459812001325,407.2459812001325,407.54367790021934,407.54367790021934,408.98972230008803,408.98972230008803,408.98972230008803,408.98972230008803,408.98972230008803,408.98972230008803,408.98972230008803,408.98972230008803,408.98972230008803,408.98972230008803,408.98972230008803,408.98972230008803,408.98972230008803,408.98972230008803,408.98972230008803,408.98972230008803,408.98972230008803,63,49,44,45,44,62,2.0,2.907662299927324,,,[],[],[],[],[],[],[],0.2,2,,,,,,,,,,,,[],[],[],[],[],[],[],,,,,None,None,414.43354400014505,416.1532221001107,411.49866120005026,411.49866120005026,411.49866120005026,411.49866120005026,411.49866120005026,,,,,,,,,,,,,,,,273,f,29,2023-04-04_13h34.56.582,RL,2022.2.4,60.17538724417507,
1,-0.3,-0.225,0,16,16,16,,,,,,,,,,None,416.1532221001107,416.1532221001107,416.1532221001107,416.1532221001107,416.1532221001107,416.1532221001107,f,0.8309635000769049,417.0178920000326,417.0178920000326,417.0178920000326,417.0178920000326,417.0178920000326,417.0178920000326,417.31678290013224,417.31678290013224,418.31380080012605,418.31380080012605,418.31380080012605,418.31380080012605,418.31380080012605,418.31380080012605,418.31380080012605,418.31380080012605,418.31380080012605,418.31380080012605,418.31380080012605,418.31380080012605,418.31380080012605,418.31380080012605,418.31380080012605,418.31380080012605,418.31380080012605,53,53,42,47,53,62,1.0,5.234900699928403,,,[],[],[],[],[],[],[],-0.2,3,,,,,,,,,,,,[],[],[],[],[],[],[],,,,,None,None,426.08524610009044,427.7548793000169,420.8233882000204,420.8233882000204,420.8233882000204,420.8233882000204,420.8233882000204,,,,,,,,,,,,,,,,273,f,29,2023-04-04_13h34.56.582,RL,2022.2.4,60.17538724417507,
0,0.3,0.225,0,17,17,17,,,,,,,,,,None,427.7548793000169,427.7548793000169,427.7548793000169,427.7548793000169,427.7548793000169,427.7548793000169,r,0.8246905000414699,428.60522110015154,428.60522110015154,428.60522110015154,428.60522110015154,428.60522110015154,428.60522110015154,428.9020750001073,428.9020750001073,429.8161183001939,429.8161183001939,429.8161183001939,429.8161183001939,429.8161183001939,429.8161183001939,429.8161183001939,429.8161183001939,429.8161183001939,429.8161183001939,429.8161183001939,429.8161183001939,429.8161183001939,429.8161183001939,429.8161183001939,429.8161183001939,429.8161183001939,58,52,34,54,58,40,None,None,68,68,"[-0.0712962962962963, -0.05185185185185185]","[-0.225, -0.30092592592592593]","[1, 1]","[0, 0]","[0, 0]","[9.247605300042778, 9.663281900109723]",['tijiao'],-0.6,0,,,,,,,,,,,,[],[],[],[],[],[],[],442.0128864001017,442.0128864001017,442.0128864001017,442.0128864001017,1,4.537868599873036,446.56945940013975,448.29837319999933,,,,,,432.3272296001669,432.3272296001669,432.3272296001669,432.3272296001669,432.3272296001669,432.3272296001669,432.3272296001669,432.3272296001669,0.00664220005273819,432.3272296001669,,,,,,273,f,29,2023-04-04_13h34.56.582,RL,2022.2.4,60.17538724417507,
1,-0.3,-0.225,0,18,18,18,,,,,,,,,,None,448.29837319999933,448.29837319999933,448.29837319999933,448.29837319999933,448.29837319999933,448.29837319999933,j,1.4778082999400795,449.79683200013824,449.79683200013824,449.79683200013824,449.79683200013824,449.79683200013824,449.79683200013824,450.09426140016876,450.09426140016876,452.0054079000838,452.0054079000838,452.0054079000838,452.0054079000838,452.0054079000838,452.0054079000838,452.0054079000838,452.0054079000838,452.0054079000838,452.0054079000838,452.0054079000838,452.0054079000838,452.0054079000838,452.0054079000838,452.0054079000838,452.0054079000838,452.0054079000838,57,55,39,56,56,40,None,None,,,[],[],[],[],[],[],[],-0.2,1,454.5268567001913,454.5268567001913,454.5268567001913,454.5268567001913,454.5268567001913,454.5268567001913,454.5268567001913,454.5268567001913,0.007102499948814511,454.5268567001913,39,[-0.04722222222222222],[-0.32685185185185184],[1],[0],[0],[6.494912500027567],['tijiao_random_2'],461.03498590015806,461.03498590015806,461.03498590015806,461.03498590015806,2.0185185185185186,2.087424600031227,463.1409013001248,464.9029748002067,,,,,,,,,,,,,,,,,,,,,273,f,29,2023-04-04_13h34.56.582,RL,2022.2.4,60.17538724417507,
0,0.3,0.225,0,19,19,19,,,,,,,,,,None,464.9029748002067,464.9029748002067,464.9029748002067,464.9029748002067,464.9029748002067,464.9029748002067,j,0.8398856001440436,465.7689981001895,465.7689981001895,465.7689981001895,465.7689981001895,465.7689981001895,465.7689981001895,466.067321700044,466.067321700044,468.0117780000437,468.0117780000437,468.0117780000437,468.0117780000437,468.0117780000437,468.0117780000437,468.0117780000437,468.0117780000437,468.0117780000437,468.0117780000437,468.0117780000437,468.0117780000437,468.0117780000437,468.0117780000437,468.0117780000437,468.0117780000437,468.0117780000437,61,51,48,57,57,62,3.0,2.7253370999824256,,,[],[],[],[],[],[],[],0.2,3,,,,,,,,,,,,[],[],[],[],[],[],[],,,,,None,None,473.2751819000114,475.2584617000539,470.52067680004984,470.52067680004984,470.52067680004984,470.52067680004984,470.52067680004984,,,,,,,,,,,,,,,,273,f,29,2023-04-04_13h34.56.582,RL,2022.2.4,60.17538724417507,
1,-0.3,-0.225,0,20,20,20,,,,,,,,,,None,475.2584617000539,475.2584617000539,475.2584617000539,475.2584617000539,475.2584617000539,475.2584617000539,f,0.9405757999047637,476.22419580002315,476.22419580002315,476.22419580002315,476.22419580002315,476.22419580002315,476.22419580002315,476.5219380001072,476.5219380001072,478.46622090018354,478.46622090018354,478.48314860020764,478.48314860020764,478.48314860020764,478.48314860020764,478.48314860020764,478.48314860020764,478.48314860020764,478.48314860020764,478.48314860020764,478.48314860020764,478.48314860020764,478.48314860020764,478.48314860020764,478.48314860020764,478.48314860020764,52,56,41,58,56,56,None,None,,,[],[],[],[],[],[],[],0.6,1,481.0014544001315,481.0014544001315,481.0014544001315,481.0014544001315,481.0014544001315,481.0014544001315,481.0014544001315,481.0014544001315,0.006711299996823072,481.0014544001315,68,[0.0],[-0.30648148148148147],[1],[0],[0],[8.20920930011198],['tijiao_random_2'],489.2248456000816,489.2248456000816,489.2248456000816,489.2248456000816,1.4444444444444446,3.234053499996662,492.47713940008543,494.123634400079,,,,,,,,,,,,,,,,,,,,,273,f,29,2023-04-04_13h34.56.582,RL,2022.2.4,60.17538724417507,
0,0.3,0.225,0,21,21,21,,,,,,,,,,None,494.123634400079,494.123634400079,494.123634400079,494.123634400079,494.123634400079,494.123634400079,f,1.0941690001636744,495.23936620005406,495.23936620005406,495.23936620005406,495.23936620005406,495.23936620005406,495.23936620005406,495.5367434001528,495.5367434001528,497.2487149001099,497.2487149001099,497.2487149001099,497.2487149001099,497.2487149001099,497.2487149001099,497.2487149001099,497.2487149001099,497.2487149001099,497.2487149001099,497.2487149001099,497.2487149001099,497.2487149001099,497.2487149001099,497.2487149001099,497.2487149001099,497.2487149001099,68,57,38,52,57,69,None,None,45,45,[-0.08888888888888889],[-0.2851851851851852],[1],[0],[0],[6.371758499881253],['tijiao'],-0.2,0,,,,,,,,,,,,[],[],[],[],[],[],[],506.153109600069,506.153109600069,506.153109600069,506.153109600069,2.601851851851852,2.4451073000673205,508.61641040001996,510.3624159002211,,,,,,499.76072490005754,499.76072490005754,499.76072490005754,499.76072490005754,499.76072490005754,499.76072490005754,499.76072490005754,499.76072490005754,0.007461200002580881,499.76072490005754,,,,,,273,f,29,2023-04-04_13h34.56.582,RL,2022.2.4,60.17538724417507,
1,-0.3,-0.225,0,22,22,22,,,,,,,,,,None,510.3624159002211,510.3624159002211,510.3624159002211,510.3624159002211,510.3624159002211,510.3624159002211,i,0.836911299964413,511.22761490009725,511.22761490009725,511.22761490009725,511.22761490009725,511.22761490009725,511.22761490009725,511.5260973002296,511.5260973002296,513.1053826001007,513.1053826001007,513.1220454000868,513.1220454000868,513.1220454000868,513.1220454000868,513.1220454000868,513.1220454000868,513.1220454000868,513.1220454000868,513.1220454000868,513.1220454000868,513.1220454000868,513.1220454000868,513.1220454000868,513.1220454000868,513.1220454000868,51,62,34,55,34,68,2.0,2.6255530000198632,,,[],[],[],[],[],[],[],0.6,3,,,,,,,,,,,,[],[],[],[],[],[],[],,,,,None,None,518.2850018001627,520.0196995001752,515.6310386999976,515.6310386999976,515.6310386999976,515.6310386999976,515.6310386999976,,,,,,,,,,,,,,,,273,f,29,2023-04-04_13h34.56.582,RL,2022.2.4,60.17538724417507,
0,0.3,0.225,0,23,23,23,,,,,,,,,,None,520.0196995001752,520.0196995001752,520.0196995001752,520.0196995001752,520.0196995001752,520.0196995001752,j,0.8813328999094665,520.9342982000671,520.9342982000671,520.9342982000671,520.9342982000671,520.9342982000671,520.9342982000671,521.2332027000375,521.2332027000375,522.0976228001527,522.0976228001527,522.0976228001527,522.0976228001527,522.0976228001527,522.0976228001527,522.0976228001527,522.0976228001527,522.0976228001527,522.0976228001527,522.0976228001527,522.0976228001527,522.0976228001527,522.0976228001527,522.0976228001527,522.0976228001527,522.0976228001527,54,60,28,66,66,78,2.0,2.674649199936539,,,[],[],[],[],[],[],[],-0.2,2,,,,,,,,,,,,[],[],[],[],[],[],[],,,,,None,None,527.3102621000726,529.0446738000028,524.6067780000158,524.6067780000158,524.6067780000158,524.6067780000158,524.6067780000158,,,,,,,,,,,,,,,,273,f,29,2023-04-04_13h34.56.582,RL,2022.2.4,60.17538724417507,
1,-0.3,-0.225,0,24,24,24,,,,,,,,,,None,529.0446738000028,529.0446738000028,529.0446738000028,529.0446738000028,529.0446738000028,529.0446738000028,r,0.8939712999854237,529.9594609001651,529.9594609001651,529.9594609001651,529.9594609001651,529.9594609001651,529.9594609001651,530.258625500137,530.258625500137,531.9042931001168,531.9042931001168,531.9207301000133,531.9207301000133,531.9207301000133,531.9207301000133,531.9207301000133,531.9207301000133,531.9207301000133,531.9207301000133,531.9207301000133,531.9207301000133,531.9207301000133,531.9207301000133,531.9207301000133,531.9207301000133,531.9207301000133,56,55,31,68,56,51,5.0,3.5396862998604774,,,[],[],[],[],[],[],[],-0.6,2,,,,,,,,,,,,[],[],[],[],[],[],[],,,,,None,None,537.997094000224,539.8321184001397,534.4299389000516,534.4299389000516,534.4299389000516,534.4299389000516,534.4299389000516,,,,,,,,,,,,,,,,273,f,29,2023-04-04_13h34.56.582,RL,2022.2.4,60.17538724417507,
0,0.3,0.225,0,25,25,25,,,,,,,,,,None,539.8321184001397,539.8321184001397,539.8321184001397,539.8321184001397,539.8321184001397,539.8321184001397,None,,,,,,,,,,,,,,,,,,,,,,,,,,,52,62,24,56,0,**,None,None,,,[],[],[],[],[],[],[],0.6,0,,,,,,,,,,,,[],[],[],[],[],[],[],,,,,None,None,547.3777601001784,549.3231860001106,,,,,,,,,,,,,,,,541.3655861001462,547.3777601001784,,,,273,f,29,2023-04-04_13h34.56.582,RL,2022.2.4,60.17538724417507,
1,-0.3,-0.225,0,26,26,26,,,,,,,,,,None,549.3231860001106,549.3231860001106,549.3231860001106,549.3231860001106,549.3231860001106,549.3231860001106,f,0.7129248001147062,550.0568130000029,550.0568130000029,550.0568130000029,550.0568130000029,550.0568130000029,550.0568130000029,550.3538338001817,550.3538338001817,551.9162295002025,551.9162295002025,551.9162295002025,551.9162295002025,551.9162295002025,551.9162295002025,551.9162295002025,551.9162295002025,551.9162295002025,551.9162295002025,551.9162295002025,551.9162295002025,551.9162295002025,551.9162295002025,551.9162295002025,551.9162295002025,551.9162295002025,56,55,25,66,55,55,3.0,2.3592443000525236,,,[],[],[],[],[],[],[],-0.6,3,,,,,,,,,,,,[],[],[],[],[],[],[],,,,,None,None,556.8106122000609,558.7141857000533,554.4251186000183,554.4251186000183,554.4251186000183,554.4251186000183,554.4251186000183,,,,,,,,,,,,,,,,273,f,29,2023-04-04_13h34.56.582,RL,2022.2.4,60.17538724417507,
0,0.3,0.225,0,27,27,27,,,,,,,,,,None,558.7141857000533,558.7141857000533,558.7141857000533,558.7141857000533,558.7141857000533,558.7141857000533,r,0.724594899918884,559.462753900094,559.462753900094,559.462753900094,559.462753900094,559.462753900094,559.462753900094,559.7613909000065,559.7613909000065,561.0912417001091,561.0912417001091,561.0912417001091,561.0912417001091,561.0912417001091,561.0912417001091,561.0912417001091,561.0912417001091,561.0912417001091,561.0912417001091,561.0912417001091,561.0912417001091,561.0912417001091,561.0912417001091,561.0912417001091,561.0912417001091,561.0912417001091,59,50,20,53,59,54,None,None,,,[],[],[],[],[],[],[],0.6,1,563.609239900019,563.609239900019,563.609239900019,563.609239900019,563.609239900019,563.609239900019,563.609239900019,563.609239900019,0.006651800125837326,563.609239900019,21,[0.10833333333333334],[-0.2777777777777778],[1],[0],[0],[6.831233700038865],['tijiao_random_2'],570.4553317001555,570.4553317001555,570.4553317001555,570.4553317001555,5.2592592592592595,3.531785099999979,574.0047590001486,575.8504284000956,,,,,,,,,,,,,,,,,,,,,273,f,29,2023-04-04_13h34.56.582,RL,2022.2.4,60.17538724417507,
1,-0.3,-0.225,0,28,28,28,,,,,,,,,,None,575.8504284000956,575.8504284000956,575.8504284000956,575.8504284000956,575.8504284000956,575.8504284000956,r,0.6925646001473069,576.5682745000813,576.5682745000813,576.5682745000813,576.5682745000813,576.5682745000813,576.5682745000813,576.8648239001632,576.8648239001632,577.7622500001453,577.7622500001453,577.7622500001453,577.7622500001453,577.7622500001453,577.7622500001453,577.7622500001453,577.7622500001453,577.7622500001453,577.7622500001453,577.7622500001453,577.7622500001453,577.7622500001453,577.7622500001453,577.7622500001453,577.7622500001453,577.7622500001453,57,52,27,48,57,63,2.0,2.741937499959022,,,[],[],[],[],[],[],[],-0.2,3,,,,,,,,,,,,[],[],[],[],[],[],[],,,,,None,None,583.0392513000406,584.859185700072,580.2715617001522,580.2715617001522,580.2715617001522,580.2715617001522,580.2715617001522,,,,,,,,,,,,,,,,273,f,29,2023-04-04_13h34.56.582,RL,2022.2.4,60.17538724417507,
0,0.3,0.225,0,29,29,29,,,,,,,,,,None,584.859185700072,584.859185700072,584.859185700072,584.859185700072,584.859185700072,584.859185700072,j,0.8455872000195086,585.7252471002284,585.7252471002284,585.7252471002284,585.7252471002284,585.7252471002284,585.7252471002284,586.0232057000976,586.0232057000976,587.9676910000853,587.9676910000853,587.9676910000853,587.9676910000853,587.9676910000853,587.9676910000853,587.9676910000853,587.9676910000853,587.9676910000853,587.9676910000853,587.9676910000853,587.9676910000853,587.9676910000853,587.9676910000853,587.9676910000853,587.9676910000853,587.9676910000853,51,53,31,46,46,57,1.0,3.756663399981335,,,[],[],[],[],[],[],[],-0.6,3,,,,,,,,,,,,[],[],[],[],[],[],[],,,,,None,None,594.259829700226,596.012354800012,590.4769163001329,590.4769163001329,590.4769163001329,590.4769163001329,590.4769163001329,,,,,,,,,,,,,,,,273,f,29,2023-04-04_13h34.56.582,RL,2022.2.4,60.17538724417507,
1,-0.3,-0.225,0,30,30,30,,,,,,,,,,None,596.012354800012,596.012354800012,596.012354800012,596.012354800012,596.012354800012,596.012354800012,j,1.08881020010449,597.1268828001339,597.1268828001339,597.1268828001339,597.1268828001339,597.1268828001339,597.1268828001339,597.4256781002041,597.4256781002041,599.1037381000351,599.1037381000351,599.1037381000351,599.1037381000351,599.1037381000351,599.1037381000351,599.1037381000351,599.1037381000351,599.1037381000351,599.1037381000351,599.1037381000351,599.1037381000351,599.1037381000351,599.1037381000351,599.1037381000351,599.1037381000351,599.1037381000351,49,49,35,50,50,64,3.0,2.6091392000671476,,,[],[],[],[],[],[],[],-0.2,2,,,,,,,,,,,,[],[],[],[],[],[],[],,,,,None,None,604.2485716000665,606.0018534001429,601.6132104001008,601.6132104001008,601.6132104001008,601.6132104001008,601.6132104001008,,,,,,,,,,,,,,,,273,f,29,2023-04-04_13h34.56.582,RL,2022.2.4,60.17538724417507,
0,0.3,0.225,0,31,31,31,,,,,,,,,,None,606.0018534001429,606.0018534001429,606.0018534001429,606.0018534001429,606.0018534001429,606.0018534001429,i,1.0953378998674452,607.11715130019,607.11715130019,607.11715130019,607.11715130019,607.11715130019,607.11715130019,607.4148873002268,607.4148873002268,609.0771231001709,609.0771231001709,609.0771231001709,609.0771231001709,609.0771231001709,609.0771231001709,609.0771231001709,609.0771231001709,609.0771231001709,609.0771231001709,609.0771231001709,609.0771231001709,609.0771231001709,609.0771231001709,609.0771231001709,609.0771231001709,609.0771231001709,47,44,30,46,30,37,2.0,2.3430596999824047,,,[],[],[],[],[],[],[],0.2,2,,,,,,,,,,,,[],[],[],[],[],[],[],,,,,None,None,613.9565786002204,615.708320400212,611.5858815000392,611.5858815000392,611.5858815000392,611.5858815000392,611.5858815000392,,,,,,,,,,,,,,,,273,f,29,2023-04-04_13h34.56.582,RL,2022.2.4,60.17538724417507,
1,-0.3,-0.225,0,32,32,32,,,,,,,,,,None,615.708320400212,615.708320400212,615.708320400212,615.708320400212,615.708320400212,615.708320400212,f,0.95671910000965,616.6908371001482,616.6908371001482,616.6908371001482,616.6908371001482,616.6908371001482,616.6908371001482,616.9885402000509,616.9885402000509,618.1352181001566,618.1352181001566,618.1352181001566,618.1352181001566,618.1352181001566,618.1352181001566,618.1352181001566,618.1352181001566,618.1352181001566,618.1352181001566,618.1352181001566,618.1352181001566,618.1352181001566,618.1352181001566,618.1352181001566,618.1352181001566,618.1352181001566,43,42,19,43,42,59,1.0,2.2927490998990834,,,[],[],[],[],[],[],[],0.6,2,,,,,,,,,,,,[],[],[],[],[],[],[],,,,,None,None,622.9626350000035,624.9332279001828,620.6443978000898,620.6443978000898,620.6443978000898,620.6443978000898,620.6443978000898,,,,,,,,,,,,,,,,273,f,29,2023-04-04_13h34.56.582,RL,2022.2.4,60.17538724417507,
0,0.3,0.225,0,33,33,33,,,,,,,,,,None,624.9332279001828,624.9332279001828,624.9332279001828,624.9332279001828,624.9332279001828,624.9332279001828,r,0.818338599987328,625.7825789002236,625.7825789002236,625.7825789002236,625.7825789002236,625.7825789002236,625.7825789002236,626.0805924001615,626.0805924001615,627.6263548000716,627.6263548000716,627.6263548000716,627.6263548000716,627.6263548000716,627.6263548000716,627.6263548000716,627.6263548000716,627.6263548000716,627.6263548000716,627.6263548000716,627.6263548000716,627.6263548000716,627.6263548000716,627.6263548000716,627.6263548000716,627.6263548000716,46,51,18,53,46,57,None,None,46,46,[0.041666666666666664],[-0.30648148148148147],[1],[0],[0],[6.9858893000055104],['tijiao'],0.2,0,,,,,,,,,,,,[],[],[],[],[],[],[],637.1455778002273,637.1455778002273,637.1455778002273,637.1455778002273,1.5277777777777777,1.7964071000460535,638.9607214001007,640.756532000145,,,,,,630.1382109001279,630.1382109001279,630.1382109001279,630.1382109001279,630.1382109001279,630.1382109001279,630.1382109001279,630.1382109001279,0.007349099963903427,630.1382109001279,,,,,,273,f,29,2023-04-04_13h34.56.582,RL,2022.2.4,60.17538724417507,
1,-0.3,-0.225,0,34,34,34,,,,,,,,,,None,640.756532000145,640.756532000145,640.756532000145,640.756532000145,640.756532000145,640.756532000145,j,0.8070800001733005,641.5898732000496,641.5898732000496,641.5898732000496,641.5898732000496,641.5898732000496,641.5898732000496,641.8877196002286,641.8877196002286,643.4995431001298,643.4995431001298,643.4995431001298,643.4995431001298,643.4995431001298,643.4995431001298,643.4995431001298,643.4995431001298,643.4995431001298,643.4995431001298,643.4995431001298,643.4995431001298,643.4995431001298,643.4995431001298,643.4995431001298,643.4995431001298,643.4995431001298,34,45,24,47,47,61,1.0,2.3426378001458943,,,[],[],[],[],[],[],[],0.2,2,,,,,,,,,,,,[],[],[],[],[],[],[],,,,,None,None,648.3780654000584,650.031654200051,646.0087590001058,646.0087590001058,646.0087590001058,646.0087590001058,646.0087590001058,,,,,,,,,,,,,,,,273,f,29,2023-04-04_13h34.56.582,RL,2022.2.4,60.17538724417507,
0,0.3,0.225,0,35,35,35,,,,,,,,,,None,650.031654200051,650.031654200051,650.031654200051,650.031654200051,650.031654200051,650.031654200051,f,0.7735021999105811,650.8316211001948,650.8316211001948,650.8316211001948,650.8316211001948,650.8316211001948,650.8316211001948,651.1289121001028,651.1289121001028,652.076080000028,652.076080000028,652.076080000028,652.076080000028,652.076080000028,652.076080000028,652.076080000028,652.076080000028,652.076080000028,652.076080000028,652.076080000028,652.076080000028,652.076080000028,652.076080000028,652.076080000028,652.076080000028,652.076080000028,34,53,26,45,53,46,None,None,56,56,[-0.07592592592592592],[-0.26481481481481484],[1],[0],[0],[7.186392900068313],['tijiao'],0.6,0,,,,,,,,,,,,[],[],[],[],[],[],[],661.7949979000259,661.7949979000259,661.7949979000259,661.7949979000259,4.0,2.6774055999703705,664.4910501001868,666.3038502000272,,,,,,654.5882304001134,654.5882304001134,654.5882304001134,654.5882304001134,654.5882304001134,654.5882304001134,654.5882304001134,654.5882304001134,0.007238900056108832,654.5882304001134,,,,,,273,f,29,2023-04-04_13h34.56.582,RL,2022.2.4,60.17538724417507,
1,-0.3,-0.225,0,36,36,36,,,,,,,,,,None,666.3038502000272,666.3038502000272,666.3038502000272,666.3038502000272,666.3038502000272,666.3038502000272,i,0.7217429999727756,667.0540884002112,667.0540884002112,667.0540884002112,667.0540884002112,667.0540884002112,667.0540884002112,667.3513492001221,667.3513492001221,668.7804589001462,668.7804589001462,668.7804589001462,668.7804589001462,668.7804589001462,668.7804589001462,668.7804589001462,668.7804589001462,668.7804589001462,668.7804589001462,668.7804589001462,668.7804589001462,668.7804589001462,668.7804589001462,668.7804589001462,668.7804589001462,668.7804589001462,46,55,20,50,20,31,2.0,2.526257500052452,,,[],[],[],[],[],[],[],0.2,3,,,,,,,,,,,,[],[],[],[],[],[],[],,,,,None,None,673.8439904002007,675.6782060000114,671.2897794002201,671.2897794002201,671.2897794002201,671.2897794002201,671.2897794002201,,,,,,,,,,,,,,,,273,f,29,2023-04-04_13h34.56.582,RL,2022.2.4,60.17538724417507,
0,0.3,0.225,0,37,37,37,,,,,,,,,,None,675.6782060000114,675.6782060000114,675.6782060000114,675.6782060000114,675.6782060000114,675.6782060000114,r,0.4994169999845326,676.2115263000596,676.2115263000596,676.2115263000596,676.2115263000596,676.2115263000596,676.2115263000596,676.5096342000179,676.5096342000179,677.5734299002215,677.5734299002215,677.5734299002215,677.5734299002215,677.5734299002215,677.5734299002215,677.5734299002215,677.5734299002215,677.5734299002215,677.5734299002215,677.5734299002215,677.5734299002215,677.5734299002215,677.5734299002215,677.5734299002215,677.5734299002215,677.5734299002215,48,56,25,39,48,44,5.0,3.5579176999162883,,,[],[],[],[],[],[],[],0.2,3,,,,,,,,,,,,[],[],[],[],[],[],[],,,,,None,None,683.6675684000365,685.3187395001296,680.0818084001075,680.0818084001075,680.0818084001075,680.0818084001075,680.0818084001075,,,,,,,,,,,,,,,,273,f,29,2023-04-04_13h34.56.582,RL,2022.2.4,60.17538724417507,
1,-0.3,-0.225,0,38,38,38,,,,,,,,,,None,685.3187395001296,685.3187395001296,685.3187395001296,685.3187395001296,685.3187395001296,685.3187395001296,f,1.0359704000875354,686.3844051000196,686.3844051000196,686.3844051000196,686.3844051000196,686.3844051000196,686.3844051000196,686.68190960004,686.68190960004,687.8284885000903,687.8284885000903,687.8284885000903,687.8284885000903,687.8284885000903,687.8284885000903,687.8284885000903,687.8284885000903,687.8284885000903,687.8284885000903,687.8284885000903,687.8284885000903,687.8284885000903,687.8284885000903,687.8284885000903,687.8284885000903,687.8284885000903,42,46,33,53,46,34,None,None,,,[],[],[],[],[],[],[],0.2,1,690.3471429001074,690.3471429001074,690.3471429001074,690.3471429001074,690.3471429001074,690.3471429001074,690.3471429001074,690.3471429001074,0.006519299931824207,690.3471429001074,67,[-0.06388888888888888],[-0.3148148148148148],[1],[0],[0],[6.265013399999589],['tijiao_random_2'],696.6245408002287,696.6245408002287,696.6245408002287,696.6245408002287,4.611111111111111,2.9849377998616546,699.6285740002058,701.5409744000062,,,,,,,,,,,,,,,,,,,,,273,f,29,2023-04-04_13h34.56.582,RL,2022.2.4,60.17538724417507,
0,0.3,0.225,0,39,39,39,,,,,,,,,,None,701.5409744000062,701.5409744000062,701.5409744000062,701.5409744000062,701.5409744000062,701.5409744000062,j,0.8697531998623163,702.4414348001592,702.4414348001592,702.4414348001592,702.4414348001592,702.4414348001592,702.4414348001592,702.7380417000968,702.7380417000968,704.0509744000155,704.0509744000155,704.0677457000129,704.0677457000129,704.0677457000129,704.0677457000129,704.0677457000129,704.0677457000129,704.0677457000129,704.0677457000129,704.0677457000129,704.0677457000129,704.0677457000129,704.0677457000129,704.0677457000129,704.0677457000129,704.0677457000129,48,57,31,47,47,65,3.0,2.475832099793479,,,[],[],[],[],[],[],[],0.6,2,,,,,,,,,,,,[],[],[],[],[],[],[],,,,,None,None,709.0797831001692,710.7323693002108,706.5769170001149,706.5769170001149,706.5769170001149,706.5769170001149,706.5769170001149,,,,,,,,,,,,,,,,273,f,29,2023-04-04_13h34.56.582,RL,2022.2.4,60.17538724417507,
1,-0.3,-0.225,0,40,40,40,,,,,,,,,,None,710.7323693002108,710.7323693002108,710.7323693002108,710.7323693002108,710.7323693002108,710.7323693002108,i,0.74963239999488,711.5144943001214,711.5144943001214,711.5144943001214,711.5144943001214,711.5144943001214,711.5144943001214,711.8132719001733,711.8132719001733,712.7273004001472,712.7273004001472,712.7440480000805,712.7440480000805,712.7440480000805,712.7440480000805,712.7440480000805,712.7440480000805,712.7440480000805,712.7440480000805,712.7440480000805,712.7440480000805,712.7440480000805,712.7440480000805,712.7440480000805,712.7440480000805,712.7440480000805,50,58,33,51,33,58,None,None,66,66,[0.09074074074074075],[-0.31851851851851853],[1],[0],[0],[6.488008399959654],['tijiao'],0.2,0,,,,,,,,,,,,[],[],[],[],[],[],[],721.7648782001343,721.7648782001343,721.7648782001343,721.7648782001343,1.5555555555555558,2.4281324001494795,724.21146960021,725.7414499002043,,,,,,715.2557666001376,715.2557666001376,715.2557666001376,715.2557666001376,715.2557666001376,715.2557666001376,715.2557666001376,715.2557666001376,0.006981699960306287,715.2557666001376,,,,,,273,f,29,2023-04-04_13h34.56.582,RL,2022.2.4,60.17538724417507,
0,0.3,0.225,0,41,41,41,,,,,,,,,,None,725.7414499002043,725.7414499002043,725.7414499002043,725.7414499002043,725.7414499002043,725.7414499002043,j,1.0470086000859737,726.8070868002251,726.8070868002251,726.8070868002251,726.8070868002251,726.8070868002251,726.8070868002251,727.1045294001233,727.1045294001233,729.0160684001166,729.0160684001166,729.0160684001166,729.0160684001166,729.0160684001166,729.0160684001166,729.0160684001166,729.0160684001166,729.0160684001166,729.0160684001166,729.0160684001166,729.0160684001166,729.0160684001166,729.0160684001166,729.0160684001166,729.0160684001166,729.0160684001166,49,50,38,43,43,61,None,None,,,[],[],[],[],[],[],[],0.2,1,731.5364264000673,731.5364264000673,731.5364264000673,731.5364264000673,731.5364264000673,731.5364264000673,731.5364264000673,731.5364264000673,0.006638399790972471,731.5364264000673,76,[0.022222222222222223],[-0.2712962962962963],[1],[0],[0],[7.7093339001294225],['tijiao_random_2'],739.2586526002269,739.2586526002269,739.2586526002269,739.2586526002269,8.36111111111111,5.228955599945039,744.5059778001159,746.3520047001075,,,,,,,,,,,,,,,,,,,,,273,f,29,2023-04-04_13h34.56.582,RL,2022.2.4,60.17538724417507,
1,-0.3,-0.225,0,42,42,42,,,,,,,,,,None,746.3520047001075,746.3520047001075,746.3520047001075,746.3520047001075,746.3520047001075,746.3520047001075,j,0.5191414998844266,746.9014131000731,746.9014131000731,746.9014131000731,746.9014131000731,746.9014131000731,746.9014131000731,747.1998115000315,747.1998115000315,749.0113851001952,749.0113851001952,749.0113851001952,749.0113851001952,749.0113851001952,749.0113851001952,749.0113851001952,749.0113851001952,749.0113851001952,749.0113851001952,749.0113851001952,749.0113851001952,749.0113851001952,749.0113851001952,749.0113851001952,749.0113851001952,749.0113851001952,35,59,40,41,41,61,None,None,,,[],[],[],[],[],[],[],-0.2,1,751.5316014999989,751.5316014999989,751.5316014999989,751.5316014999989,751.5316014999989,751.5316014999989,751.5316014999989,751.5316014999989,0.006755199981853366,751.5316014999989,54,[0.14351851851851852],[-0.2759259259259259],[1],[0],[0],[9.985390200046822],['tijiao_random_2'],761.5301558000501,761.5301558000501,761.5301558000501,761.5301558000501,5.944444444444445,3.0522016999311745,764.6012096002232,766.1813353002071,,,,,,,,,,,,,,,,,,,,,273,f,29,2023-04-04_13h34.56.582,RL,2022.2.4,60.17538724417507,
0,0.3,0.225,0,43,43,43,,,,,,,,,,None,766.1813353002071,766.1813353002071,766.1813353002071,766.1813353002071,766.1813353002071,766.1813353002071,f,0.8315820000134408,767.0460733000655,767.0460733000655,767.0460733000655,767.0460733000655,767.0460733000655,767.0460733000655,767.3449342001695,767.3449342001695,768.6248658001423,768.6248658001423,768.6248658001423,768.6248658001423,768.6248658001423,768.6248658001423,768.6248658001423,768.6248658001423,768.6248658001423,768.6248658001423,768.6248658001423,768.6248658001423,768.6248658001423,768.6248658001423,768.6248658001423,768.6248658001423,768.6248658001423,42,52,35,37,52,52,5.0,2.5418314000125974,,,[],[],[],[],[],[],[],0.6,3,,,,,,,,,,,,[],[],[],[],[],[],[],,,,,None,None,773.7038663001731,775.3896015000064,771.1340639002156,771.1340639002156,771.1340639002156,771.1340639002156,771.1340639002156,,,,,,,,,,,,,,,,273,f,29,2023-04-04_13h34.56.582,RL,2022.2.4,60.17538724417507,
1,-0.3,-0.225,0,44,44,44,,,,,,,,,,None,775.3896015000064,775.3896015000064,775.3896015000064,775.3896015000064,775.3896015000064,775.3896015000064,r,0.831282600061968,776.2541275001131,776.2541275001131,776.2541275001131,776.2541275001131,776.2541275001131,776.2541275001131,776.5533508001827,776.5533508001827,778.1820522001944,778.1820522001944,778.1820522001944,778.1820522001944,778.1820522001944,778.1820522001944,778.1820522001944,778.1820522001944,778.1820522001944,778.1820522001944,778.1820522001944,778.1820522001944,778.1820522001944,778.1820522001944,778.1820522001944,778.1820522001944,778.1820522001944,39,61,41,44,39,52,None,None,,,[],[],[],[],[],[],[],0.6,1,780.7007010001689,780.7007010001689,780.7007010001689,780.7007010001689,780.7007010001689,780.7007010001689,780.7007010001689,780.7007010001689,0.007077600108459592,780.7007010001689,52,[0.08333333333333333],[-0.3101851851851852],[1],[0],[0],[4.336769399931654],['tijiao_random_2'],785.0517991001252,785.0517991001252,785.0517991001252,785.0517991001252,3.9259259259259265,2.5016155999619514,787.5717733001802,789.5341902000364,,,,,,,,,,,,,,,,,,,,,273,f,29,2023-04-04_13h34.56.582,RL,2022.2.4,60.17538724417507,
0,0.3,0.225,0,45,45,45,,,,,,,,,,None,789.5341902000364,789.5341902000364,789.5341902000364,789.5341902000364,789.5341902000364,789.5341902000364,f,1.228293800028041,790.7810904001817,790.7810904001817,790.7810904001817,790.7810904001817,790.7810904001817,790.7810904001817,791.0802243000362,791.0802243000362,792.9586546001956,792.9586546001956,792.9586546001956,792.9586546001956,792.9586546001956,792.9586546001956,792.9586546001956,792.9586546001956,792.9586546001956,792.9586546001956,792.9586546001956,792.9586546001956,792.9586546001956,792.9586546001956,792.9586546001956,792.9586546001956,792.9586546001956,37,56,35,40,56,53,6.0,1.9429331000428647,,,[],[],[],[],[],[],[],-0.2,2,,,,,,,,,,,,[],[],[],[],[],[],[],,,,,None,None,797.4366469001397,799.3406364000402,795.4672937002033,795.4672937002033,795.4672937002033,795.4672937002033,795.4672937002033,,,,,,,,,,,,,,,,273,f,29,2023-04-04_13h34.56.582,RL,2022.2.4,60.17538724417507,
1,-0.3,-0.225,0,46,46,46,,,,,,,,,,None,799.3406364000402,799.3406364000402,799.3406364000402,799.3406364000402,799.3406364000402,799.3406364000402,i,0.5988233000971377,799.9730411001947,799.9730411001947,799.9730411001947,799.9730411001947,799.9730411001947,799.9730411001947,800.2720103000756,800.2720103000756,801.6512880001683,801.6512880001683,801.6512880001683,801.6512880001683,801.6512880001683,801.6512880001683,801.6512880001683,801.6512880001683,801.6512880001683,801.6512880001683,801.6512880001683,801.6512880001683,801.6512880001683,801.6512880001683,801.6512880001683,801.6512880001683,801.6512880001683,39,51,50,36,50,57,3.0,2.608553900150582,,,[],[],[],[],[],[],[],0.6,3,,,,,,,,,,,,[],[],[],[],[],[],[],,,,,None,None,806.7979172000196,808.731547600124,804.1604691001121,804.1604691001121,804.1604691001121,804.1604691001121,804.1604691001121,,,,,,,,,,,,,,,,273,f,29,2023-04-04_13h34.56.582,RL,2022.2.4,60.17538724417507,
0,0.3,0.225,0,47,47,47,,,,,,,,,,None,808.731547600124,808.731547600124,808.731547600124,808.731547600124,808.731547600124,808.731547600124,f,0.7252682000398636,809.4824099000543,809.4824099000543,809.4824099000543,809.4824099000543,809.4824099000543,809.4824099000543,809.7794232000597,809.7794232000597,811.5579187001567,811.5579187001567,811.5579187001567,811.5579187001567,811.5579187001567,811.5579187001567,811.5579187001567,811.5579187001567,811.5579187001567,811.5579187001567,811.5579187001567,811.5579187001567,811.5579187001567,811.5579187001567,811.5579187001567,811.5579187001567,811.5579187001567,36,54,42,40,54,64,1.0,1.4118409000802785,,,[],[],[],[],[],[],[],0.6,3,,,,,,,,,,,,[],[],[],[],[],[],[],,,,,None,None,815.5048628000077,817.4413984999992,814.0669823000208,814.0669823000208,814.0669823000208,814.0669823000208,814.0669823000208,,,,,,,,,,,,,,,,273,f,29,2023-04-04_13h34.56.582,RL,2022.2.4,60.17538724417507,
1,-0.3,-0.225,0,48,48,48,,,,,,,,,,None,817.4413984999992,817.4413984999992,817.4413984999992,817.4413984999992,817.4413984999992,817.4413984999992,f,0.9725989999715239,818.4389073001221,818.4389073001221,818.4389073001221,818.4389073001221,818.4389073001221,818.4389073001221,818.7377806000877,818.7377806000877,820.3337805001065,820.3337805001065,820.3337805001065,820.3337805001065,820.3337805001065,820.3337805001065,820.3337805001065,820.3337805001065,820.3337805001065,820.3337805001065,820.3337805001065,820.3337805001065,820.3337805001065,820.3337805001065,820.3337805001065,820.3337805001065,820.3337805001065,39,57,35,42,57,64,None,None,45,45,[-0.023148148148148147],[-0.2814814814814815],[1],[0],[0],[4.196466399822384],['tijiao'],0.6,0,,,,,,,,,,,,[],[],[],[],[],[],[],827.0607067001984,827.0607067001984,827.0607067001984,827.0607067001984,2.1574074074074074,1.9130897000432014,828.9923923001625,830.8381376001053,,,,,,822.844034000067,822.844034000067,822.844034000067,822.844034000067,822.844034000067,822.844034000067,822.844034000067,822.844034000067,0.006697400007396936,822.844034000067,,,,,,273,f,29,2023-04-04_13h34.56.582,RL,2022.2.4,60.17538724417507,
0,0.3,0.225,0,49,49,49,,,,,,,,,,None,830.8381376001053,830.8381376001053,830.8381376001053,830.8381376001053,830.8381376001053,830.8381376001053,r,0.8055426999926567,831.6698565001134,831.6698565001134,831.6698565001134,831.6698565001134,831.6698565001134,831.6698565001134,831.9687803001143,831.9687803001143,833.4977395001333,833.4977395001333,833.4977395001333,833.4977395001333,833.4977395001333,833.4977395001333,833.4977395001333,833.4977395001333,833.4977395001333,833.4977395001333,833.4977395001333,833.4977395001333,833.4977395001333,833.4977395001333,833.4977395001333,833.4977395001333,833.4977395001333,45,46,38,32,45,71,None,None,,,[],[],[],[],[],[],[],0.2,1,836.016246000072,836.016246000072,836.016246000072,836.016246000072,836.016246000072,836.016246000072,836.016246000072,836.016246000072,0.006797700189054012,836.016246000072,65,[0.14907407407407408],[-0.2916666666666667],[1],[0],[0],[8.311517000198364],['tijiao_random_2'],844.3384576002136,844.3384576002136,844.3384576002136,844.3384576002136,1.9537037037037037,4.56460369983688,848.9211955000646,850.8831727001816,,,,,,,,,,,,,,,,,,,,,273,f,29,2023-04-04_13h34.56.582,RL,2022.2.4,60.17538724417507,
1,-0.3,-0.225,0,50,50,50,,,,,,,,,,None,850.8831727001816,850.8831727001816,850.8831727001816,850.8831727001816,850.8831727001816,850.8831727001816,r,1.0331761999987066,851.9488761001267,851.9488761001267,851.9488761001267,851.9488761001267,851.9488761001267,851.9488761001267,852.2465478000231,852.2465478000231,854.1580376001075,854.1580376001075,854.1580376001075,854.1580376001075,854.1580376001075,854.1580376001075,854.1580376001075,854.1580376001075,854.1580376001075,854.1580376001075,854.1580376001075,854.1580376001075,854.1580376001075,854.1580376001075,854.1580376001075,854.1580376001075,854.1580376001075,56,54,43,26,56,69,None,None,,,[],[],[],[],[],[],[],-0.2,1,856.6774691001046,856.6774691001046,856.6774691001046,856.6774691001046,856.6774691001046,856.6774691001046,856.6774691001046,856.6774691001046,0.006900799926370382,856.6774691001046,96,[-0.14907407407407408],[-0.2712962962962963],[1],[0],[0],[6.030770400073379],['tijiao_random_2'],862.7212643001694,862.7212643001694,862.7212643001694,862.7212643001694,1.0,1.90482970001176,864.6448295000009,866.424463900039,,,,,,,,,,,,,,,,,,,,,273,f,29,2023-04-04_13h34.56.582,RL,2022.2.4,60.17538724417507,
0,0.3,0.225,0,51,51,51,,,,,,,,,,None,866.424463900039,866.424463900039,866.424463900039,866.424463900039,866.424463900039,866.424463900039,f,0.8441188000142574,867.2893395000137,867.2893395000137,867.2893395000137,867.2893395000137,867.2893395000137,867.2893395000137,867.5882174000144,867.5882174000144,869.1669948000927,869.1669948000927,869.1669948000927,869.1669948000927,869.1669948000927,869.1669948000927,869.1669948000927,869.1669948000927,869.1669948000927,869.1669948000927,869.1669948000927,869.1669948000927,869.1669948000927,869.1669948000927,869.1669948000927,869.1669948000927,869.1669948000927,44,48,44,29,48,70,1.0,2.276569199981168,,,[],[],[],[],[],[],[],-0.6,3,,,,,,,,,,,,[],[],[],[],[],[],[],,,,,None,None,873.9805910000578,875.7989677002188,871.676354000112,871.676354000112,871.676354000112,871.676354000112,871.676354000112,,,,,,,,,,,,,,,,273,f,29,2023-04-04_13h34.56.582,RL,2022.2.4,60.17538724417507,
1,-0.3,-0.225,0,52,52,52,,,,,,,,,,None,875.7989677002188,875.7989677002188,875.7989677002188,875.7989677002188,875.7989677002188,875.7989677002188,j,1.0134417999070138,876.8314537000842,876.8314537000842,876.8314537000842,876.8314537000842,876.8314537000842,876.8314537000842,877.1289163001347,877.1289163001347,878.0594748000149,878.0594748000149,878.0594748000149,878.0594748000149,878.0594748000149,878.0594748000149,878.0594748000149,878.0594748000149,878.0594748000149,878.0594748000149,878.0594748000149,878.0594748000149,878.0594748000149,878.0594748000149,878.0594748000149,878.0594748000149,878.0594748000149,34,53,51,32,32,49,1.0,2.741577500011772,,,[],[],[],[],[],[],[],0.6,3,,,,,,,,,,,,[],[],[],[],[],[],[],,,,,None,None,883.3369158001151,884.8575217002071,880.5687797002029,880.5687797002029,880.5687797002029,880.5687797002029,880.5687797002029,,,,,,,,,,,,,,,,273,f,29,2023-04-04_13h34.56.582,RL,2022.2.4,60.17538724417507,
0,0.3,0.225,0,53,53,53,,,,,,,,,,None,884.8575217002071,884.8575217002071,884.8575217002071,884.8575217002071,884.8575217002071,884.8575217002071,i,0.6308737001381814,885.5080162000377,885.5080162000377,885.5080162000377,885.5080162000377,885.5080162000377,885.5080162000377,885.8052337002009,885.8052337002009,887.0517023000866,887.0517023000866,887.0517023000866,887.0517023000866,887.0517023000866,887.0517023000866,887.0517023000866,887.0517023000866,887.0517023000866,887.0517023000866,887.0517023000866,887.0517023000866,887.0517023000866,887.0517023000866,887.0517023000866,887.0517023000866,887.0517023000866,46,63,45,36,45,68,None,None,78,78,[-0.0712962962962963],[-0.2518518518518518],[1],[0],[0],[6.870692400028929],['tijiao'],0.2,0,,,,,,,,,,,,[],[],[],[],[],[],[],896.4559588001575,896.4559588001575,896.4559588001575,896.4559588001575,2.0925925925925926,1.5790000997949392,898.0536708000582,900.0322977001779,,,,,,889.5622616000473,889.5622616000473,889.5622616000473,889.5622616000473,889.5622616000473,889.5622616000473,889.5622616000473,889.5622616000473,0.006535500055179,889.5622616000473,,,,,,273,f,29,2023-04-04_13h34.56.582,RL,2022.2.4,60.17538724417507,
1,-0.3,-0.225,0,54,54,54,,,,,,,,,,None,900.0322977001779,900.0322977001779,900.0322977001779,900.0322977001779,900.0322977001779,900.0322977001779,i,1.4190767998807132,901.4805280000437,901.4805280000437,901.4805280000437,901.4805280000437,901.4805280000437,901.4805280000437,901.7782700001262,901.7782700001262,903.5230306000449,903.5230306000449,903.5230306000449,903.5230306000449,903.5230306000449,903.5230306000449,903.5230306000449,903.5230306000449,903.5230306000449,903.5230306000449,903.5230306000449,903.5230306000449,903.5230306000449,903.5230306000449,903.5230306000449,903.5230306000449,903.5230306000449,43,63,49,39,49,68,None,None,25,25,[0.08425925925925926],[-0.32407407407407407],[1],[0],[0],[6.356028399895877],['tijiao'],-0.2,0,,,,,,,,,,,,[],[],[],[],[],[],[],912.4103341000155,912.4103341000155,912.4103341000155,912.4103341000155,2.055555555555556,2.1295227000955492,914.5586197001394,916.2713995000813,,,,,,906.034450400155,906.034450400155,906.034450400155,906.034450400155,906.034450400155,906.034450400155,906.034450400155,906.034450400155,0.0067656999453902245,906.034450400155,,,,,,273,f,29,2023-04-04_13h34.56.582,RL,2022.2.4,60.17538724417507,
0,0.3,0.225,0,55,55,55,,,,,,,,,,None,916.2713995000813,916.2713995000813,916.2713995000813,916.2713995000813,916.2713995000813,916.2713995000813,r,0.686174500035122,916.986740300199,916.986740300199,916.986740300199,916.986740300199,916.986740300199,916.986740300199,917.2860598000698,917.2860598000698,918.9813416001853,918.9813416001853,918.9813416001853,918.9813416001853,918.9813416001853,918.9813416001853,918.9813416001853,918.9813416001853,918.9813416001853,918.9813416001853,918.9813416001853,918.9813416001853,918.9813416001853,918.9813416001853,918.9813416001853,918.9813416001853,918.9813416001853,31,54,47,45,31,82,1.0,2.4261168998200446,,,[],[],[],[],[],[],[],0.6,3,,,,,,,,,,,,[],[],[],[],[],[],[],,,,,None,None,923.9427272002213,925.8620907000732,921.4902068001684,921.4902068001684,921.4902068001684,921.4902068001684,921.4902068001684,,,,,,,,,,,,,,,,273,f,29,2023-04-04_13h34.56.582,RL,2022.2.4,60.17538724417507,
1,-0.3,-0.225,0,56,56,56,,,,,,,,,,None,925.8620907000732,925.8620907000732,925.8620907000732,925.8620907000732,925.8620907000732,925.8620907000732,f,0.9973725001327693,926.8792447000742,926.8792447000742,926.8792447000742,926.8792447000742,926.8792447000742,926.8792447000742,927.1756080000196,927.1756080000196,928.5717910001986,928.5717910001986,928.5717910001986,928.5717910001986,928.5717910001986,928.5717910001986,928.5717910001986,928.5717910001986,928.5717910001986,928.5717910001986,928.5717910001986,928.5717910001986,928.5717910001986,928.5717910001986,928.5717910001986,928.5717910001986,928.5717910001986,26,61,52,47,61,61,5.0,3.423193900147453,,,[],[],[],[],[],[],[],-0.2,2,,,,,,,,,,,,[],[],[],[],[],[],[],,,,,None,None,934.5316674001515,936.3502832001541,931.0809107001405,931.0809107001405,931.0809107001405,931.0809107001405,931.0809107001405,,,,,,,,,,,,,,,,273,f,29,2023-04-04_13h34.56.582,RL,2022.2.4,60.17538724417507,
0,0.3,0.225,0,57,57,57,,,,,,,,,,None,936.3502832001541,936.3502832001541,936.3502832001541,936.3502832001541,936.3502832001541,936.3502832001541,j,0.7620727999601513,937.1317146001384,937.1317146001384,937.1317146001384,937.1317146001384,937.1317146001384,937.1317146001384,937.4305569001008,937.4305569001008,938.8934308001772,938.8934308001772,938.8934308001772,938.8934308001772,938.8934308001772,938.8934308001772,938.8934308001772,938.8934308001772,938.8934308001772,938.8934308001772,938.8934308001772,938.8934308001772,938.8934308001772,938.8934308001772,938.8934308001772,938.8934308001772,938.8934308001772,37,64,46,45,45,31,5.0,1.7616794998757541,,,[],[],[],[],[],[],[],0.2,3,,,,,,,,,,,,[],[],[],[],[],[],[],,,,,None,None,943.1914454000071,944.8433842000086,941.4022452000063,941.4022452000063,941.4022452000063,941.4022452000063,941.4022452000063,,,,,,,,,,,,,,,,273,f,29,2023-04-04_13h34.56.582,RL,2022.2.4,60.17538724417507,
1,-0.3,-0.225,0,58,58,58,,,,,,,,,,None,944.8433842000086,944.8433842000086,944.8433842000086,944.8433842000086,944.8433842000086,944.8433842000086,j,0.6859583999030292,945.559717600001,945.559717600001,945.559717600001,945.559717600001,945.559717600001,945.559717600001,945.857873500092,945.857873500092,947.1543892000336,947.1543892000336,947.1543892000336,947.1543892000336,947.1543892000336,947.1543892000336,947.1543892000336,947.1543892000336,947.1543892000336,947.1543892000336,947.1543892000336,947.1543892000336,947.1543892000336,947.1543892000336,947.1543892000336,947.1543892000336,947.1543892000336,33,66,50,52,52,74,4.0,2.5753777001518756,,,[],[],[],[],[],[],[],-0.6,3,,,,,,,,,,,,[],[],[],[],[],[],[],,,,,None,None,952.266109800199,954.085304300068,949.663473200053,949.663473200053,949.663473200053,949.663473200053,949.663473200053,,,,,,,,,,,,,,,,273,f,29,2023-04-04_13h34.56.582,RL,2022.2.4,60.17538724417507,
0,0.3,0.225,0,59,59,59,,,,,,,,,,None,954.085304300068,954.085304300068,954.085304300068,954.085304300068,954.085304300068,954.085304300068,r,0.8263151999562979,954.9334253000561,954.9334253000561,954.9334253000561,954.9334253000561,954.9334253000561,954.9334253000561,955.2323068000842,955.2323068000842,956.2131887001451,956.2131887001451,956.2131887001451,956.2131887001451,956.2131887001451,956.2131887001451,956.2131887001451,956.2131887001451,956.2131887001451,956.2131887001451,956.2131887001451,956.2131887001451,956.2131887001451,956.2131887001451,956.2131887001451,956.2131887001451,956.2131887001451,30,53,51,53,30,74,None,None,,,[],[],[],[],[],[],[],-0.2,1,958.7293938000221,958.7293938000221,958.7293938000221,958.7293938000221,958.7293938000221,958.7293938000221,958.7293938000221,958.7293938000221,0.0064848000183701515,958.7293938000221,74,[0.1388888888888889],[-0.27870370370370373],[1],[0],[0],[8.195115499896929],['tijiao_random_2'],966.9385370002128,966.9385370002128,966.9385370002128,966.9385370002128,2.8796296296296293,2.1696834000758827,969.12658440019,970.922143700067,,,,,,,,,,,,,,,,,,,,,273,f,29,2023-04-04_13h34.56.582,RL,2022.2.4,60.17538724417507,
1,-0.3,-0.225,0,60,60,60,,,,,,,,,,None,970.922143700067,970.922143700067,970.922143700067,970.922143700067,970.922143700067,970.922143700067,None,,,,,,,,,,,,,,,,,,,,,,,,,,,39,59,42,50,0,**,None,None,,,[],[],[],[],[],[],[],0.6,2,,,,,,,,,,,,[],[],[],[],[],[],[],,,,,None,None,978.4681333000772,980.4463773001917,,,,,,,,,,,,,,,,972.4602044001222,978.4681333000772,,,,273,f,29,2023-04-04_13h34.56.582,RL,2022.2.4,60.17538724417507,
0,0.3,0.225,0,61,61,61,,,,,,,,,,None,980.4463773001917,980.4463773001917,980.4463773001917,980.4463773001917,980.4463773001917,980.4463773001917,r,0.4632605998776853,980.9295557001606,980.9295557001606,980.9295557001606,980.9295557001606,980.9295557001606,980.9295557001606,981.2280655000359,981.2280655000359,982.0922373000067,982.0922373000067,982.0922373000067,982.0922373000067,982.0922373000067,982.0922373000067,982.0922373000067,982.0922373000067,982.0922373000067,982.0922373000067,982.0922373000067,982.0922373000067,982.0922373000067,982.0922373000067,982.0922373000067,982.0922373000067,982.0922373000067,31,57,54,50,31,68,2.0,2.243149299873039,,,[],[],[],[],[],[],[],-0.2,2,,,,,,,,,,,,[],[],[],[],[],[],[],,,,,None,None,986.8738019000739,988.5910763000138,984.601446100045,984.601446100045,984.601446100045,984.601446100045,984.601446100045,,,,,,,,,,,,,,,,273,f,29,2023-04-04_13h34.56.582,RL,2022.2.4,60.17538724417507,
1,-0.3,-0.225,0,62,62,62,,,,,,,,,,None,988.5910763000138,988.5910763000138,988.5910763000138,988.5910763000138,988.5910763000138,988.5910763000138,i,0.6418360001407564,989.2579711000435,989.2579711000435,989.2579711000435,989.2579711000435,989.2579711000435,989.2579711000435,989.5554979001172,989.5554979001172,990.5358865000308,990.5358865000308,990.5358865000308,990.5358865000308,990.5358865000308,990.5358865000308,990.5358865000308,990.5358865000308,990.5358865000308,990.5358865000308,990.5358865000308,990.5358865000308,990.5358865000308,990.5358865000308,990.5358865000308,990.5358865000308,990.5358865000308,31,56,60,58,60,40,6.0,2.45922560011968,,,[],[],[],[],[],[],[],-0.6,3,,,,,,,,,,,,[],[],[],[],[],[],[],,,,,None,None,995.531040500151,997.5332850001287,993.0447862001602,993.0447862001602,993.0447862001602,993.0447862001602,993.0447862001602,,,,,,,,,,,,,,,,273,f,29,2023-04-04_13h34.56.582,RL,2022.2.4,60.17538724417507,
0,0.3,0.225,0,63,63,63,,,,,,,,,,None,997.5332850001287,997.5332850001287,997.5332850001287,997.5332850001287,997.5332850001287,997.5332850001287,f,1.4059188000392169,998.9642322000582,998.9642322000582,998.9642322000582,998.9642322000582,998.9642322000582,998.9642322000582,999.2621134000365,999.2621134000365,1000.8906623001676,1000.8906623001676,1000.8906623001676,1000.8906623001676,1000.8906623001676,1000.8906623001676,1000.8906623001676,1000.8906623001676,1000.8906623001676,1000.8906623001676,1000.8906623001676,1000.8906623001676,1000.8906623001676,1000.8906623001676,1000.8906623001676,1000.8906623001676,1000.8906623001676,34,59,61,61,59,38,6.0,2.3431931000668555,,,[],[],[],[],[],[],[],0.2,3,,,,,,,,,,,,[],[],[],[],[],[],[],,,,,None,None,1005.7709500000346,1007.4894595001824,1003.4002116001211,1003.4002116001211,1003.4002116001211,1003.4002116001211,1003.4002116001211,,,,,,,,,,,,,,,,273,f,29,2023-04-04_13h34.56.582,RL,2022.2.4,60.17538724417507,
1,-0.3,-0.225,0,64,64,64,,,,,,,,,,None,1007.4894595001824,1007.4894595001824,1007.4894595001824,1007.4894595001824,1007.4894595001824,1007.4894595001824,j,0.5011232998222113,1008.0238437000662,1008.0238437000662,1008.0238437000662,1008.0238437000662,1008.0238437000662,1008.0238437000662,1008.3208425000776,1008.3208425000776,1009.7172778001986,1009.7172778001986,1009.7172778001986,1009.7172778001986,1009.7172778001986,1009.7172778001986,1009.7172778001986,1009.7172778001986,1009.7172778001986,1009.7172778001986,1009.7172778001986,1009.7172778001986,1009.7172778001986,1009.7172778001986,1009.7172778001986,1009.7172778001986,1009.7172778001986,29,50,62,55,55,80,None,None,69,69,"[0.25277777777777777, 0.14907407407407408]","[-0.262037037037037, -0.2962962962962963]","[1, 1]","[0, 0]","[0, 0]","[4.3450501000043005, 4.827247400069609]",['tijiao'],-0.2,0,,,,,,,,,,,,[],[],[],[],[],[],[],1017.0756115000695,1017.0756115000695,1017.0756115000695,1017.0756115000695,2.0462962962962963,4.772250599926338,1021.8660174000543,1023.4957457000855,,,,,,1012.2274428000674,1012.2274428000674,1012.2274428000674,1012.2274428000674,1012.2274428000674,1012.2274428000674,1012.2274428000674,1012.2274428000674,0.0065789001528173685,1012.2274428000674,,,,,,273,f,29,2023-04-04_13h34.56.582,RL,2022.2.4,60.17538724417507,
0,0.3,0.225,0,65,65,65,,,,,,,,,,None,1023.4957457000855,1023.4957457000855,1023.4957457000855,1023.4957457000855,1023.4957457000855,1023.4957457000855,i,0.9763797000050545,1024.4937389001716,1024.4937389001716,1024.4937389001716,1024.4937389001716,1024.4937389001716,1024.4937389001716,1024.792311000172,1024.792311000172,1026.3548097000457,1026.3548097000457,1026.3548097000457,1026.3548097000457,1026.3548097000457,1026.3548097000457,1026.3548097000457,1026.3548097000457,1026.3548097000457,1026.3548097000457,1026.3548097000457,1026.3548097000457,1026.3548097000457,1026.3548097000457,1026.3548097000457,1026.3548097000457,1026.3548097000457,23,60,62,58,62,72,None,None,70,70,[-0.04537037037037037],[-0.3148148148148148],[1],[0],[0],[4.67596590006724],['tijiao'],0.2,0,,,,,,,,,,,,[],[],[],[],[],[],[],1033.562107700156,1033.562107700156,1033.562107700156,1033.562107700156,1.2037037037037037,2.080551999853924,1035.661490400089,1037.5240573000629,,,,,,1028.8663801001385,1028.8663801001385,1028.8663801001385,1028.8663801001385,1028.8663801001385,1028.8663801001385,1028.8663801001385,1028.8663801001385,0.007231200113892555,1028.8663801001385,,,,,,273,f,29,2023-04-04_13h34.56.582,RL,2022.2.4,60.17538724417507,
1,-0.3,-0.225,0,66,66,66,,,,,,,,,,None,1037.5240573000629,1037.5240573000629,1037.5240573000629,1037.5240573000629,1037.5240573000629,1037.5240573000629,f,0.6911857998929918,1038.239020000212,1038.239020000212,1038.239020000212,1038.239020000212,1038.239020000212,1038.239020000212,1038.5380367001053,1038.5380367001053,1039.8678796000313,1039.8678796000313,1039.8678796000313,1039.8678796000313,1039.8678796000313,1039.8678796000313,1039.8678796000313,1039.8678796000313,1039.8678796000313,1039.8678796000313,1039.8678796000313,1039.8678796000313,1039.8678796000313,1039.8678796000313,1039.8678796000313,1039.8678796000313,1039.8678796000313,25,61,66,58,61,69,None,None,,,[],[],[],[],[],[],[],0.6,1,1042.3867157001514,1042.3867157001514,1042.3867157001514,1042.3867157001514,1042.3867157001514,1042.3867157001514,1042.3867157001514,1042.3867157001514,0.007028300082311034,1042.3867157001514,76,[-0.16574074074074074],[-0.3037037037037037],[1],[0],[0],[5.633548300014809],['tijiao_random_2'],1048.0336980000138,1048.0336980000138,1048.0336980000138,1048.0336980000138,1.3148148148148149,2.2690057998988777,1050.3214661001693,1052.2336584001314,,,,,,,,,,,,,,,,,,,,,273,f,29,2023-04-04_13h34.56.582,RL,2022.2.4,60.17538724417507,
0,0.3,0.225,0,67,67,67,,,,,,,,,,None,1052.2336584001314,1052.2336584001314,1052.2336584001314,1052.2336584001314,1052.2336584001314,1052.2336584001314,i,0.6317657998297364,1052.884223600151,1052.884223600151,1052.884223600151,1052.884223600151,1052.884223600151,1052.884223600151,1053.1813853001222,1053.1813853001222,1054.2788419001736,1054.2788419001736,1054.2788419001736,1054.2788419001736,1054.2788419001736,1054.2788419001736,1054.2788419001736,1054.2788419001736,1054.2788419001736,1054.2788419001736,1054.2788419001736,1054.2788419001736,1054.2788419001736,1054.2788419001736,1054.2788419001736,1054.2788419001736,1054.2788419001736,25,58,64,50,64,38,None,None,45,45,[-0.09259259259259259],[-0.29074074074074074],[1],[0],[0],[5.076362899970263],['tijiao'],-0.6,0,,,,,,,,,,,,[],[],[],[],[],[],[],1061.8886134000495,1061.8886134000495,1061.8886134000495,1061.8886134000495,2.3240740740740744,2.5095960998442024,1064.41654450004,1065.9964620000683,,,,,,1056.789284300059,1056.789284300059,1056.789284300059,1056.789284300059,1056.789284300059,1056.789284300059,1056.789284300059,1056.789284300059,0.007060999982059002,1056.789284300059,,,,,,273,f,29,2023-04-04_13h34.56.582,RL,2022.2.4,60.17538724417507,
1,-0.3,-0.225,0,68,68,68,,,,,,,,,,None,1065.9964620000683,1065.9964620000683,1065.9964620000683,1065.9964620000683,1065.9964620000683,1065.9964620000683,r,0.9563033999875188,1066.9788891000208,1066.9788891000208,1066.9788891000208,1066.9788891000208,1066.9788891000208,1066.9788891000208,1067.2766008002218,1067.2766008002218,1068.2405260000378,1068.2405260000378,1068.2405260000378,1068.2405260000378,1068.2405260000378,1068.2405260000378,1068.2405260000378,1068.2405260000378,1068.2405260000378,1068.2405260000378,1068.2405260000378,1068.2405260000378,1068.2405260000378,1068.2405260000378,1068.2405260000378,1068.2405260000378,1068.2405260000378,31,61,69,56,31,66,None,None,22,22,[-0.049074074074074076],[-0.2611111111111111],[1],[0],[0],[4.360964599996805],['tijiao'],0.6,0,,,,,,,,,,,,[],[],[],[],[],[],[],1075.1341869002208,1075.1341869002208,1075.1341869002208,1075.1341869002208,1.0185185185185182,1.6627849000506103,1076.815932100173,1078.778329800116,,,,,,1070.7522902002092,1070.7522902002092,1070.7522902002092,1070.7522902002092,1070.7522902002092,1070.7522902002092,1070.7522902002092,1070.7522902002092,0.007483299821615219,1070.7522902002092,,,,,,273,f,29,2023-04-04_13h34.56.582,RL,2022.2.4,60.17538724417507,
0,0.3,0.225,0,69,69,69,,,,,,,,,,None,1078.778329800116,1078.778329800116,1078.778329800116,1078.778329800116,1078.778329800116,1078.778329800116,f,0.6472911001183093,1079.4447021000087,1079.4447021000087,1079.4447021000087,1079.4447021000087,1079.4447021000087,1079.4447021000087,1079.7426834001672,1079.7426834001672,1081.3875931000803,1081.3875931000803,1081.3875931000803,1081.3875931000803,1081.3875931000803,1081.3875931000803,1081.3875931000803,1081.3875931000803,1081.3875931000803,1081.3875931000803,1081.3875931000803,1081.3875931000803,1081.3875931000803,1081.3875931000803,1081.3875931000803,1081.3875931000803,1081.3875931000803,29,54,71,57,54,44,4.0,3.8054158999584615,,,[],[],[],[],[],[],[],-0.2,3,,,,,,,,,,,,[],[],[],[],[],[],[],,,,,None,None,1087.7309408001602,1089.2665396002121,1083.8967651000712,1083.8967651000712,1083.8967651000712,1083.8967651000712,1083.8967651000712,,,,,,,,,,,,,,,,273,f,29,2023-04-04_13h34.56.582,RL,2022.2.4,60.17538724417507,
1,-0.3,-0.225,0,70,70,70,,,,,,,,,,None,1089.2665396002121,1089.2665396002121,1089.2665396002121,1089.2665396002121,1089.2665396002121,1089.2665396002121,j,0.8904872999992222,1090.1822041000705,1090.1822041000705,1090.1822041000705,1090.1822041000705,1090.1822041000705,1090.1822041000705,1090.479915900156,1090.479915900156,1092.4578122000676,1092.4578122000676,1092.4578122000676,1092.4578122000676,1092.4578122000676,1092.4578122000676,1092.4578122000676,1092.4578122000676,1092.4578122000676,1092.4578122000676,1092.4578122000676,1092.4578122000676,1092.4578122000676,1092.4578122000676,1092.4578122000676,1092.4578122000676,1092.4578122000676,33,60,55,59,59,23,None,None,87,87,[0.1],[-0.3388888888888889],[1],[0],[0],[3.7107893999200314],['tijiao'],-0.6,0,,,,,,,,,,,,[],[],[],[],[],[],[],1098.7015293000732,1098.7015293000732,1098.7015293000732,1098.7015293000732,4.638888888888889,5.237680400023237,1103.9586458001286,1105.70482120011,,,,,,1094.9704048000276,1094.9704048000276,1094.9704048000276,1094.9704048000276,1094.9704048000276,1094.9704048000276,1094.9704048000276,1094.9704048000276,0.00848080008290708,1094.9704048000276,,,,,,273,f,29,2023-04-04_13h34.56.582,RL,2022.2.4,60.17538724417507,
0,0.3,0.225,0,71,71,71,,,,,,,,,,None,1105.70482120011,1105.70482120011,1105.70482120011,1105.70482120011,1105.70482120011,1105.70482120011,i,0.5674316000659019,1106.3038630001247,1106.3038630001247,1106.3038630001247,1106.3038630001247,1106.3038630001247,1106.3038630001247,1106.6025268000085,1106.6025268000085,1107.882560300175,1107.882560300175,1107.882560300175,1107.882560300175,1107.882560300175,1107.882560300175,1107.882560300175,1107.882560300175,1107.882560300175,1107.882560300175,1107.882560300175,1107.882560300175,1107.882560300175,1107.882560300175,1107.882560300175,1107.882560300175,1107.882560300175,24,64,68,51,68,67,5.0,2.2932126000523567,,,[],[],[],[],[],[],[],-0.6,3,,,,,,,,,,,,[],[],[],[],[],[],[],,,,,None,None,1112.7132465001196,1114.7134125002194,1110.3915591000114,1110.3915591000114,1110.3915591000114,1110.3915591000114,1110.3915591000114,,,,,,,,,,,,,,,,273,f,29,2023-04-04_13h34.56.582,RL,2022.2.4,60.17538724417507,
1,-0.3,-0.225,0,72,72,72,,,,,,,,,,None,1114.7134125002194,1114.7134125002194,1114.7134125002194,1114.7134125002194,1114.7134125002194,1114.7134125002194,j,0.5612889002077281,1115.2964850000571,1115.2964850000571,1115.2964850000571,1115.2964850000571,1115.2964850000571,1115.2964850000571,1115.594649700215,1115.594649700215,1117.1902837001253,1117.1902837001253,1117.1902837001253,1117.1902837001253,1117.1902837001253,1117.1902837001253,1117.1902837001253,1117.1902837001253,1117.1902837001253,1117.1902837001253,1117.1902837001253,1117.1902837001253,1117.1902837001253,1117.1902837001253,1117.1902837001253,1117.1902837001253,1117.1902837001253,34,59,64,51,51,69,None,None,,,[],[],[],[],[],[],[],0.6,1,1119.7102388001513,1119.7102388001513,1119.7102388001513,1119.7102388001513,1119.7102388001513,1119.7102388001513,1119.7102388001513,1119.7102388001513,0.008853800129145384,1119.7102388001513,69,[-0.000925925925925926],[-0.2851851851851852],[1],[0],[0],[9.289024000056088],['tijiao_random_2'],1129.0134427000303,1129.0134427000303,1129.0134427000303,1129.0134427000303,1.833333333333333,4.579368900042027,1133.6109691001475,1135.4236933002248,,,,,,,,,,,,,,,,,,,,,273,f,29,2023-04-04_13h34.56.582,RL,2022.2.4,60.17538724417507,
0,0.3,0.225,0,73,73,73,,,,,,,,,,None,1135.4236933002248,1135.4236933002248,1135.4236933002248,1135.4236933002248,1135.4236933002248,1135.4236933002248,f,0.7186666000634432,1136.1736573001835,1136.1736573001835,1136.1736573001835,1136.1736573001835,1136.1736573001835,1136.1736573001835,1136.4711954002269,1136.4711954002269,1137.9498872000258,1137.9498872000258,1137.9670739001594,1137.9670739001594,1137.9670739001594,1137.9670739001594,1137.9670739001594,1137.9670739001594,1137.9670739001594,1137.9670739001594,1137.9670739001594,1137.9670739001594,1137.9670739001594,1137.9670739001594,1137.9670739001594,1137.9670739001594,1137.9670739001594,27,55,61,48,55,68,None,None,,,[],[],[],[],[],[],[],0.6,1,1140.4855713001452,1140.4855713001452,1140.4855713001452,1140.4855713001452,1140.4855713001452,1140.4855713001452,1140.4855713001452,1140.4855713001452,0.006914600031450391,1140.4855713001452,45,[0.14722222222222223],[-0.3194444444444444],[1],[0],[0],[5.133333599893376],['tijiao_random_2'],1145.633019000059,1145.633019000059,1145.633019000059,1145.633019000059,1.3333333333333333,1.805881999898702,1147.4564524001908,1149.3520190001,,,,,,,,,,,,,,,,,,,,,273,f,29,2023-04-04_13h34.56.582,RL,2022.2.4,60.17538724417507,
1,-0.3,-0.225,0,74,74,74,,,,,,,,,,None,1149.3520190001,1149.3520190001,1149.3520190001,1149.3520190001,1149.3520190001,1149.3520190001,r,0.7574964000377804,1150.1351777000818,1150.1351777000818,1150.1351777000818,1150.1351777000818,1150.1351777000818,1150.1351777000818,1150.4331260002218,1150.4331260002218,1151.3468279000372,1151.3468279000372,1151.3468279000372,1151.3468279000372,1151.3468279000372,1151.3468279000372,1151.3468279000372,1151.3468279000372,1151.3468279000372,1151.3468279000372,1151.3468279000372,1151.3468279000372,1151.3468279000372,1151.3468279000372,1151.3468279000372,1151.3468279000372,1151.3468279000372,26,47,67,47,26,72,1.0,2.5420470000244677,,,[],[],[],[],[],[],[],0.6,3,,,,,,,,,,,,[],[],[],[],[],[],[],,,,,None,None,1156.4241283000447,1158.04501240002,1153.8560520000756,1153.8560520000756,1153.8560520000756,1153.8560520000756,1153.8560520000756,,,,,,,,,,,,,,,,273,f,29,2023-04-04_13h34.56.582,RL,2022.2.4,60.17538724417507,
0,0.3,0.225,0,75,75,75,,,,,,,,,,q,1752.4943049000576,1752.4943049000576,1752.4943049000576,1752.4943049000576,1752.4943049000576,1752.4943049000576,f,0.8651736001484096,1753.3894055001438,1753.3894055001438,1753.3894055001438,1753.3894055001438,1753.3894055001438,1753.3894055001438,1753.6868086000904,1753.6868086000904,1754.6007269001566,1754.6007269001566,1754.6174745000899,1754.6174745000899,1754.6174745000899,1754.6174745000899,1754.6174745000899,1754.6174745000899,1754.6174745000899,1754.6174745000899,1754.6174745000899,1754.6174745000899,1754.6174745000899,1754.6174745000899,1754.6174745000899,1754.6174745000899,1754.6174745000899,33,53,62,58,53,14,6.0,2.8584219999611378,,,[],[],[],[],[],[],[],-0.2,3,,,,,,,,,,,,[],[],[],[],[],[],[],,,,,None,None,1760.0107600002084,1761.5481963001657,1757.126685500145,1757.126685500145,1757.126685500145,1757.126685500145,1757.126685500145,,,,,,,,,,,,,1158.04501240002,1158.04501240002,594.4141519998666,273,f,29,2023-04-04_13h34.56.582,RL,2022.2.4,60.17538724417507,
1,-0.3,-0.225,0,76,76,76,,,,,,,,,,None,1761.5481963001657,1761.5481963001657,1761.5481963001657,1761.5481963001657,1761.5481963001657,1761.5481963001657,r,0.4222797001712024,1761.9982557001058,1761.9982557001058,1761.9982557001058,1761.9982557001058,1761.9982557001058,1761.9982557001058,1762.2967130001634,1762.2967130001634,1764.1415843002032,1764.1415843002032,1764.1415843002032,1764.1415843002032,1764.1415843002032,1764.1415843002032,1764.1415843002032,1764.1415843002032,1764.1415843002032,1764.1415843002032,1764.1415843002032,1764.1415843002032,1764.1415843002032,1764.1415843002032,1764.1415843002032,1764.1415843002032,1764.1415843002032,37,48,53,59,37,69,None,None,45,45,[0.07407407407407407],[-0.2935185185185185],[1],[0],[0],[16.279052700148895],['tijiao'],-0.2,0,,,,,,,,,,,,[],[],[],[],[],[],[],1782.9519644000102,1782.9519644000102,1782.9519644000102,1782.9519644000102,6.953703703703703,4.821774200070649,1787.7923252000473,1789.3390475001652,,,,,,1766.652297800174,1766.652297800174,1766.652297800174,1766.652297800174,1766.652297800174,1766.652297800174,1766.652297800174,1766.652297800174,0.0066044998820871115,1766.652297800174,,,,,,273,f,29,2023-04-04_13h34.56.582,RL,2022.2.4,60.17538724417507,
0,0.3,0.225,0,77,77,77,,,,,,,,,,None,1789.3390475001652,1789.3390475001652,1789.3390475001652,1789.3390475001652,1789.3390475001652,1789.3390475001652,j,0.9434861999470741,1790.305750100175,1790.305750100175,1790.305750100175,1790.305750100175,1790.305750100175,1790.305750100175,1790.6027565000113,1790.6027565000113,1791.4502397000324,1791.4502397000324,1791.467045900179,1791.467045900179,1791.467045900179,1791.467045900179,1791.467045900179,1791.467045900179,1791.467045900179,1791.467045900179,1791.467045900179,1791.467045900179,1791.467045900179,1791.467045900179,1791.467045900179,1791.467045900179,1791.467045900179,33,45,62,57,57,47,None,None,78,78,[0.001851851851851852],[-0.3148148148148148],[1],[0],[0],[4.312611300032586],['tijiao'],0.6,0,,,,,,,,,,,,[],[],[],[],[],[],[],1798.3097378001548,1798.3097378001548,1798.3097378001548,1798.3097378001548,7.962962962962963,1.5973827000707388,1799.9259260001127,1801.6386728000361,,,,,,1793.977381600067,1793.977381600067,1793.977381600067,1793.977381600067,1793.977381600067,1793.977381600067,1793.977381600067,1793.977381600067,0.005739100044593215,1793.977381600067,,,,,,273,f,29,2023-04-04_13h34.56.582,RL,2022.2.4,60.17538724417507,
1,-0.3,-0.225,0,78,78,78,,,,,,,,,,None,1801.6386728000361,1801.6386728000361,1801.6386728000361,1801.6386728000361,1801.6386728000361,1801.6386728000361,j,0.6274697999469936,1802.2899743001908,1802.2899743001908,1802.2899743001908,1802.2899743001908,1802.2899743001908,1802.2899743001908,1802.586740600178,1802.586740600178,1804.1656115001533,1804.1656115001533,1804.1822789001744,1804.1822789001744,1804.1822789001744,1804.1822789001744,1804.1822789001744,1804.1822789001744,1804.1822789001744,1804.1822789001744,1804.1822789001744,1804.1822789001744,1804.1822789001744,1804.1822789001744,1804.1822789001744,1804.1822789001744,1804.1822789001744,35,52,56,56,56,66,None,None,78,78,[-0.023148148148148147],[-0.3101851851851852],[1],[0],[0],[4.594820899888873],['tijiao'],0.6,0,,,,,,,,,,,,[],[],[],[],[],[],[],1811.3075965000317,1811.3075965000317,1811.3075965000317,1811.3075965000317,9.074074074074073,2.1126879998482764,1813.4389334002044,1815.1189045000356,,,,,,1806.6923253000714,1806.6923253000714,1806.6923253000714,1806.6923253000714,1806.6923253000714,1806.6923253000714,1806.6923253000714,1806.6923253000714,0.006161800120025873,1806.6923253000714,,,,,,273,f,29,2023-04-04_13h34.56.582,RL,2022.2.4,60.17538724417507,
0,0.3,0.225,0,79,79,79,,,,,,,,,,None,1815.1189045000356,1815.1189045000356,1815.1189045000356,1815.1189045000356,1815.1189045000356,1815.1189045000356,j,0.6286295999307185,1815.7673894001637,1815.7673894001637,1815.7673894001637,1815.7673894001637,1815.7673894001637,1815.7673894001637,1816.0666643001605,1816.0666643001605,1817.5789988001343,1817.5789988001343,1817.5789988001343,1817.5789988001343,1817.5789988001343,1817.5789988001343,1817.5789988001343,1817.5789988001343,1817.5789988001343,1817.5789988001343,1817.5789988001343,1817.5789988001343,1817.5789988001343,1817.5789988001343,1817.5789988001343,1817.5789988001343,1817.5789988001343,43,47,65,61,61,65,None,None,,,[],[],[],[],[],[],[],-0.6,1,1820.0964444000274,1820.0964444000274,1820.0964444000274,1820.0964444000274,1820.0964444000274,1820.0964444000274,1820.0964444000274,1820.0964444000274,0.005948500009253621,1820.0964444000274,35,"[0.2, 0.018518518518518517]","[-0.33055555555555555, -0.2722222222222222]","[1, 1]","[0, 0]","[0, 0]","[7.612237199908122, 9.174640899989754]",['tijiao_random_2'],1829.2860692001414,1829.2860692001414,1829.2860692001414,1829.2860692001414,8.49074074074074,2.9672115000430495,1832.2712449000683,1833.9673412002157,,,,,,,,,,,,,,,,,,,,,273,f,29,2023-04-04_13h34.56.582,RL,2022.2.4,60.17538724417507,
1,-0.3,-0.225,0,80,80,80,,,,,,,,,,None,1833.9673412002157,1833.9673412002157,1833.9673412002157,1833.9673412002157,1833.9673412002157,1833.9673412002157,f,0.5674666999839246,1834.5669460000936,1834.5669460000936,1834.5669460000936,1834.5669460000936,1834.5669460000936,1834.5669460000936,1834.8649260001257,1834.8649260001257,1836.1448911000043,1836.1448911000043,1836.1448911000043,1836.1448911000043,1836.1448911000043,1836.1448911000043,1836.1448911000043,1836.1448911000043,1836.1448911000043,1836.1448911000043,1836.1448911000043,1836.1448911000043,1836.1448911000043,1836.1448911000043,1836.1448911000043,1836.1448911000043,1836.1448911000043,44,49,69,61,49,55,4.0,4.3867874999996275,,,[],[],[],[],[],[],[],0.2,3,,,,,,,,,,,,[],[],[],[],[],[],[],,,,,None,None,1843.068208700046,1844.8544893001672,1838.6537415001076,1838.6537415001076,1838.6537415001076,1838.6537415001076,1838.6537415001076,,,,,,,,,,,,,,,,273,f,29,2023-04-04_13h34.56.582,RL,2022.2.4,60.17538724417507,
0,0.3,0.225,0,81,81,81,,,,,,,,,,None,1844.8544893001672,1844.8544893001672,1844.8544893001672,1844.8544893001672,1844.8544893001672,1844.8544893001672,i,0.3557105998042971,1845.2380944001488,1845.2380944001488,1845.2380944001488,1845.2380944001488,1845.2380944001488,1845.2380944001488,1845.5361719001085,1845.5361719001085,1846.7161372001283,1846.7161372001283,1846.7161372001283,1846.7161372001283,1846.7161372001283,1846.7161372001283,1846.7161372001283,1846.7161372001283,1846.7161372001283,1846.7161372001283,1846.7161372001283,1846.7161372001283,1846.7161372001283,1846.7161372001283,1846.7161372001283,1846.7161372001283,1846.7161372001283,38,57,62,59,62,41,5.0,2.1604210999794304,,,[],[],[],[],[],[],[],0.2,3,,,,,,,,,,,,[],[],[],[],[],[],[],,,,,None,None,1851.411890000105,1853.364576100139,1849.2251029000618,1849.2251029000618,1849.2251029000618,1849.2251029000618,1849.2251029000618,,,,,,,,,,,,,,,,273,f,29,2023-04-04_13h34.56.582,RL,2022.2.4,60.17538724417507,
1,-0.3,-0.225,0,82,82,82,,,,,,,,,,None,1853.364576100139,1853.364576100139,1853.364576100139,1853.364576100139,1853.364576100139,1853.364576100139,j,0.38202630006708205,1853.7653618000913,1853.7653618000913,1853.7653618000913,1853.7653618000913,1853.7653618000913,1853.7653618000913,1854.0628927000798,1854.0628927000798,1855.5419234000146,1855.5419234000146,1855.558914600173,1855.558914600173,1855.558914600173,1855.558914600173,1855.558914600173,1855.558914600173,1855.558914600173,1855.558914600173,1855.558914600173,1855.558914600173,1855.558914600173,1855.558914600173,1855.558914600173,1855.558914600173,1855.558914600173,54,47,62,53,53,71,None,None,,,[],[],[],[],[],[],[],-0.6,1,1858.0782942001242,1858.0782942001242,1858.0782942001242,1858.0782942001242,1858.0782942001242,1858.0782942001242,1858.0782942001242,1858.0782942001242,0.006762300152331591,1858.0782942001242,23,[0.053703703703703705],[-0.337037037037037],[1],[0],[0],[4.6021538998465985],['tijiao_random_2'],1862.693424800178,1862.693424800178,1862.693424800178,1862.693424800178,6.87037037037037,3.9487984001170844,1866.6608465001918,1868.6394629001152,,,,,,,,,,,,,,,,,,,,,273,f,29,2023-04-04_13h34.56.582,RL,2022.2.4,60.17538724417507,
0,0.3,0.225,0,83,83,83,,,,,,,,,,None,1868.6394629001152,1868.6394629001152,1868.6394629001152,1868.6394629001152,1868.6394629001152,1868.6394629001152,i,0.7574832001700997,1869.4235324000474,1869.4235324000474,1869.4235324000474,1869.4235324000474,1869.4235324000474,1869.4235324000474,1869.7198293001857,1869.7198293001857,1870.7503854001407,1870.7503854001407,1870.7503854001407,1870.7503854001407,1870.7503854001407,1870.7503854001407,1870.7503854001407,1870.7503854001407,1870.7503854001407,1870.7503854001407,1870.7503854001407,1870.7503854001407,1870.7503854001407,1870.7503854001407,1870.7503854001407,1870.7503854001407,1870.7503854001407,51,54,62,51,62,32,6.0,2.093731400091201,,,[],[],[],[],[],[],[],-0.2,2,,,,,,,,,,,,[],[],[],[],[],[],[],,,,,None,None,1875.379898500163,1877.1827294002287,1873.2598416002002,1873.2598416002002,1873.2598416002002,1873.2598416002002,1873.2598416002002,,,,,,,,,,,,,,,,273,f,29,2023-04-04_13h34.56.582,RL,2022.2.4,60.17538724417507,
1,-0.3,-0.225,0,84,84,84,,,,,,,,,,None,1877.1827294002287,1877.1827294002287,1877.1827294002287,1877.1827294002287,1877.1827294002287,1877.1827294002287,i,0.5412661998998374,1877.749102700036,1877.749102700036,1877.749102700036,1877.749102700036,1877.749102700036,1877.749102700036,1878.047338400036,1878.047338400036,1880.0087959000375,1880.0087959000375,1880.0087959000375,1880.0087959000375,1880.0087959000375,1880.0087959000375,1880.0087959000375,1880.0087959000375,1880.0087959000375,1880.0087959000375,1880.0087959000375,1880.0087959000375,1880.0087959000375,1880.0087959000375,1880.0087959000375,1880.0087959000375,1880.0087959000375,46,44,62,54,62,38,7.0,1.6943636001087725,,,[],[],[],[],[],[],[],-0.6,3,,,,,,,,,,,,[],[],[],[],[],[],[],,,,,None,None,1884.2411181000061,1885.975539300125,1882.5178526001982,1882.5178526001982,1882.5178526001982,1882.5178526001982,1882.5178526001982,,,,,,,,,,,,,,,,273,f,29,2023-04-04_13h34.56.582,RL,2022.2.4,60.17538724417507,
0,0.3,0.225,0,85,85,85,,,,,,,,,,None,1885.975539300125,1885.975539300125,1885.975539300125,1885.975539300125,1885.975539300125,1885.975539300125,f,0.7904995998833328,1886.791606000159,1886.791606000159,1886.791606000159,1886.791606000159,1886.791606000159,1886.791606000159,1887.0890465001576,1887.0890465001576,1889.0670052000787,1889.0670052000787,1889.0670052000787,1889.0670052000787,1889.0670052000787,1889.0670052000787,1889.0670052000787,1889.0670052000787,1889.0670052000787,1889.0670052000787,1889.0670052000787,1889.0670052000787,1889.0670052000787,1889.0670052000787,1889.0670052000787,1889.0670052000787,1889.0670052000787,47,50,64,53,50,59,None,None,,,[],[],[],[],[],[],[],0.2,1,1891.5863679000176,1891.5863679000176,1891.5863679000176,1891.5863679000176,1891.5863679000176,1891.5863679000176,1891.5863679000176,1891.5863679000176,0.006621400127187371,1891.5863679000176,78,[-0.10833333333333334],[-0.27314814814814814],[1],[0],[0],[4.5693578000646085],['tijiao_random_2'],1896.1699737000745,1896.1699737000745,1896.1699737000745,1896.1699737000745,8.462962962962962,2.185598999960348,1898.3738613000605,1899.9541070000269,,,,,,,,,,,,,,,,,,,,,273,f,29,2023-04-04_13h34.56.582,RL,2022.2.4,60.17538724417507,
1,-0.3,-0.225,0,86,86,86,,,,,,,,,,None,1899.9541070000269,1899.9541070000269,1899.9541070000269,1899.9541070000269,1899.9541070000269,1899.9541070000269,i,0.7036339000333101,1900.6881661000662,1900.6881661000662,1900.6881661000662,1900.6881661000662,1900.6881661000662,1900.6881661000662,1900.9847703000996,1900.9847703000996,1901.8490588001441,1901.8490588001441,1901.8490588001441,1901.8490588001441,1901.8490588001441,1901.8490588001441,1901.8490588001441,1901.8490588001441,1901.8490588001441,1901.8490588001441,1901.8490588001441,1901.8490588001441,1901.8490588001441,1901.8490588001441,1901.8490588001441,1901.8490588001441,1901.8490588001441,40,46,52,51,52,28,6.0,2.525526199955493,,,[],[],[],[],[],[],[],0.2,2,,,,,,,,,,,,[],[],[],[],[],[],[],,,,,None,None,1906.9100044001825,1908.8793407001067,1904.3582112002186,1904.3582112002186,1904.3582112002186,1904.3582112002186,1904.3582112002186,,,,,,,,,,,,,,,,273,f,29,2023-04-04_13h34.56.582,RL,2022.2.4,60.17538724417507,
0,0.3,0.225,0,87,87,87,,,,,,,,,,None,1908.8793407001067,1908.8793407001067,1908.8793407001067,1908.8793407001067,1908.8793407001067,1908.8793407001067,i,0.491015600040555,1909.3959193001501,1909.3959193001501,1909.3959193001501,1909.3959193001501,1909.3959193001501,1909.3959193001501,1909.6943460002076,1909.6943460002076,1911.4227723001968,1911.4227723001968,1911.4227723001968,1911.4227723001968,1911.4227723001968,1911.4227723001968,1911.4227723001968,1911.4227723001968,1911.4227723001968,1911.4227723001968,1911.4227723001968,1911.4227723001968,1911.4227723001968,1911.4227723001968,1911.4227723001968,1911.4227723001968,1911.4227723001968,37,43,50,52,50,55,None,None,,,[],[],[],[],[],[],[],0.2,1,1913.9431148001458,1913.9431148001458,1913.9431148001458,1913.9431148001458,1913.9431148001458,1913.9431148001458,1913.9431148001458,1913.9431148001458,0.00690089981071651,1913.9431148001458,77,[0.12037037037037036],[-0.3055555555555556],[1],[0],[0],[4.3690779998432845],['tijiao_random_2'],1918.3253885000013,1918.3253885000013,1918.3253885000013,1918.3253885000013,7.425925925925926,1.4552212001290172,1919.7987552999984,1921.4619854001794,,,,,,,,,,,,,,,,,,,,,273,f,29,2023-04-04_13h34.56.582,RL,2022.2.4,60.17538724417507,
1,-0.3,-0.225,0,88,88,88,,,,,,,,,,None,1921.4619854001794,1921.4619854001794,1921.4619854001794,1921.4619854001794,1921.4619854001794,1921.4619854001794,j,1.3746982000302523,1922.858645600034,1922.858645600034,1922.858645600034,1922.858645600034,1922.858645600034,1922.858645600034,1923.1577049000189,1923.1577049000189,1924.8030572000425,1924.8030572000425,1924.8030572000425,1924.8030572000425,1924.8030572000425,1924.8030572000425,1924.8030572000425,1924.8030572000425,1924.8030572000425,1924.8030572000425,1924.8030572000425,1924.8030572000425,1924.8030572000425,1924.8030572000425,1924.8030572000425,1924.8030572000425,1924.8030572000425,42,44,59,55,55,52,6.0,2.078214299865067,,,[],[],[],[],[],[],[],0.2,3,,,,,,,,,,,,[],[],[],[],[],[],[],,,,,None,None,1929.4157319001388,1931.401546300156,1927.3119670001324,1927.3119670001324,1927.3119670001324,1927.3119670001324,1927.3119670001324,,,,,,,,,,,,,,,,273,f,29,2023-04-04_13h34.56.582,RL,2022.2.4,60.17538724417507,
0,0.3,0.225,0,89,89,89,,,,,,,,,,None,1931.401546300156,1931.401546300156,1931.401546300156,1931.401546300156,1931.401546300156,1931.401546300156,i,0.8080132000613958,1932.2337988000363,1932.2337988000363,1932.2337988000363,1932.2337988000363,1932.2337988000363,1932.2337988000363,1932.5316505001392,1932.5316505001392,1933.662205700064,1933.662205700064,1933.662205700064,1933.662205700064,1933.662205700064,1933.662205700064,1933.662205700064,1933.662205700064,1933.662205700064,1933.662205700064,1933.662205700064,1933.662205700064,1933.662205700064,1933.662205700064,1933.662205700064,1933.662205700064,1933.662205700064,39,45,49,54,49,57,None,None,,,[],[],[],[],[],[],[],-0.6,1,1936.1825255001895,1936.1825255001895,1936.1825255001895,1936.1825255001895,1936.1825255001895,1936.1825255001895,1936.1825255001895,1936.1825255001895,0.006734800059348345,1936.1825255001895,49,[0.13240740740740742],[-0.3212962962962963],[1],[0],[0],[3.8190874999854714],['tijiao_random_2'],1940.0167092001066,1940.0167092001066,1940.0167092001066,1940.0167092001066,9.935185185185187,3.5825702999718487,1943.6172933001071,1945.1971303001046,,,,,,,,,,,,,,,,,,,,,273,f,29,2023-04-04_13h34.56.582,RL,2022.2.4,60.17538724417507,
1,-0.3,-0.225,0,90,90,90,,,,,,,,,,None,1945.1971303001046,1945.1971303001046,1945.1971303001046,1945.1971303001046,1945.1971303001046,1945.1971303001046,i,0.8190903998911381,1946.0481388000771,1946.0481388000771,1946.0481388000771,1946.0481388000771,1946.0481388000771,1946.0481388000771,1946.3444174001925,1946.3444174001925,1948.2222283000592,1948.2222283000592,1948.2388744000345,1948.2388744000345,1948.2388744000345,1948.2388744000345,1948.2388744000345,1948.2388744000345,1948.2388744000345,1948.2388744000345,1948.2388744000345,1948.2388744000345,1948.2388744000345,1948.2388744000345,1948.2388744000345,1948.2388744000345,1948.2388744000345,43,54,50,52,50,37,None,None,,,[],[],[],[],[],[],[],-0.2,1,1950.7590803001076,1950.7590803001076,1950.7590803001076,1950.7590803001076,1950.7590803001076,1950.7590803001076,1950.7590803001076,1950.7590803001076,0.006960900034755468,1950.7590803001076,34,[-0.026851851851851852],[-0.30833333333333335],[1],[0],[0],[6.811164000071585],['tijiao_random_2'],1957.5834367000498,1957.5834367000498,1957.5834367000498,1957.5834367000498,9.712962962962962,2.0214062000159174,1959.6237961000297,1961.1370217001531,,,,,,,,,,,,,,,,,,,,,273,f,29,2023-04-04_13h34.56.582,RL,2022.2.4,60.17538724417507,
0,0.3,0.225,0,91,91,91,,,,,,,,,,None,1961.1370217001531,1961.1370217001531,1961.1370217001531,1961.1370217001531,1961.1370217001531,1961.1370217001531,j,0.8641256999690086,1962.0183610001113,1962.0183610001113,1962.0183610001113,1962.0183610001113,1962.0183610001113,1962.0183610001113,1962.3171601002105,1962.3171601002105,1963.2813914001454,1963.2813914001454,1963.2813914001454,1963.2813914001454,1963.2813914001454,1963.2813914001454,1963.2813914001454,1963.2813914001454,1963.2813914001454,1963.2813914001454,1963.2813914001454,1963.2813914001454,1963.2813914001454,1963.2813914001454,1963.2813914001454,1963.2813914001454,1963.2813914001454,51,47,54,56,56,57,6.0,1.4954311999026686,,,[],[],[],[],[],[],[],-0.6,2,,,,,,,,,,,,[],[],[],[],[],[],[],,,,,None,None,1967.3135479001794,1969.1483604002278,1965.7904134001583,1965.7904134001583,1965.7904134001583,1965.7904134001583,1965.7904134001583,,,,,,,,,,,,,,,,273,f,29,2023-04-04_13h34.56.582,RL,2022.2.4,60.17538724417507,
