bandit0,black_x_pos_random,black_y_pos_random,trials.thisRepN,trials.thisTrialN,trials.thisN,trials.thisIndex,instru_img1.started,instru_resp.started,instru_resp.keys,instru_resp.rt,instru_img2.started,instru_resp2.started,instru_resp2.keys,instru_resp2.rt,fixbefore_2.started,rest_response.keys,red.started,green.started,yellow.started,blue.started,choose_bandit.started,Fixation.started,choose_bandit.keys,choose_bandit.rt,black.started,red_2.started,green_2.started,yellow_2.started,blue_2.started,fixation_2.started,docs.started,wait_playerB.started,docs.stopped,wait_playerB.stopped,black.stopped,red_2.stopped,green_2.stopped,yellow_2.stopped,blue_2.stopped,fixation_2.stopped,black_com.started,reward_sub.started,palyerb.started,reward__sub.started,compare.started,red_compare.started,green_com.started,yellow_com.started,blue_com.started,rewardyellow,rewardred,rewardblue,rewardgreen,subchoose,playerb,slider.response,slider.rt,expectself.started,expect_self_black.started,expect_self.started,expect_self_red.started,expect_self_green.started,expect_self_yellow.started,expect_self_blue.started,tijiao.started,tijiao_click.started,check.started,expectself.text,value_expect_self,tijiao_click.x,tijiao_click.y,tijiao_click.leftButton,tijiao_click.midButton,tijiao_click.rightButton,tijiao_click.time,tijiao_click.clicked_name,random_whicharm,whether_ask,expect_random_3.text,tijiao_random.x,tijiao_random.y,tijiao_random.leftButton,tijiao_random.midButton,tijiao_random.rightButton,tijiao_random.time,tijiao_random.clicked_name,slider_2.started,image_7.started,confi.started,notconfi.started,slider_2.response,slider_2.rt,intertrialfix.started,intertrialfix.stopped,jiantou_random.started,expect_red.started,expect_green.started,expect_yellow.started,expect_blue.started,expect_random_2.started,expect_random_3.started,tijiao_random_2.started,tijiao_random.started,check_2.started,image_3.started,slider.started,text.started,image_4.started,image_5.started,bigx.started,bigx.stopped,rest_image.started,rest_response.started,rest_response.rt,participant,Gender,Age,date,expName,psychopyVersion,frameRate,
,,,,,,,35.57550753000032,35.57550753000032,space,46.239253884999926,,,,,,,,,,,,,,,,,,,,,,,,,,,,,,,,,,,,,,,,,,,,,,,,,,,,,,,,,,,,,,,,,,,,,,,,,,,,,,,,,,,,,,,,,,,,,,,,,,,,,,,,,274,f,23,2023-04-04_13h34.49.425,RL,2022.2.4,60.15972575580295,
,,,,,,,,,,,81.8609019710002,81.8609019710002,s,67.68379218600057,,,,,,,,,,,,,,,,,,,,,,,,,,,,,,,,,,,,,,,,,,,,,,,,,,,,,,,,,,,,,,,,,,,,,,,,,,,,,,,,,,,,,,,,,,,,,,,,,,,,,274,f,23,2023-04-04_13h34.49.425,RL,2022.2.4,60.15972575580295,
1,-0.3,-0.225,0,0,0,0,,,,,,,,,149.58841677199962,None,150.62665723300051,150.62665723300051,150.62665723300051,150.62665723300051,150.62665723300051,150.62665723300051,i,0.52018355600012,151.22616315300002,151.22616315300002,151.22616315300002,151.22616315300002,151.22616315300002,151.22616315300002,151.4795192970014,151.4795192970014,153.02346576400123,153.02346576400123,153.09015325099972,153.09015325099972,153.09015325099972,153.09015325099972,153.09015325099972,153.09015325099972,153.09015325099972,153.09015325099972,153.09015325099972,153.09015325099972,153.09015325099972,153.09015325099972,153.09015325099972,153.09015325099972,153.09015325099972,64,38,29,55,29,48,None,None,155.62611613599984,155.62611613599984,155.62611613599984,155.62611613599984,155.62611613599984,155.62611613599984,155.62611613599984,155.62611613599984,0.012304537000090932,155.62611613599984,30,30,[-0.055],[-0.28125],[1],[0],[0],[34.83109841500118],['tijiao'],0.2,0,,[],[],[],[],[],[],[],190.66722901600042,190.66722901600042,190.66722901600042,190.66722901600042,1,10.663917452999158,201.33806324800025,202.87859646499965,,,,,,,,,,,,,,,,,,,,,274,f,23,2023-04-04_13h34.49.425,RL,2022.2.4,60.15972575580295,
0,0.3,0.225,0,1,1,1,,,,,,,,,,None,202.87859646499965,202.87859646499965,202.87859646499965,202.87859646499965,202.87859646499965,202.87859646499965,i,0.6553716350008472,203.59012477200122,203.59012477200122,203.59012477200122,203.59012477200122,203.59012477200122,203.59012477200122,203.85098926400133,203.85098926400133,205.50865828600035,205.50865828600035,205.55133363000095,205.55133363000095,205.55133363000095,205.55133363000095,205.55133363000095,205.55133363000095,205.55133363000095,205.55133363000095,205.55133363000095,205.55133363000095,205.55133363000095,205.55133363000095,205.55133363000095,205.55133363000095,205.55133363000095,69,36,28,50,28,41,None,None,,,,,,,,,,,,,[],[],[],[],[],[],[],-0.2,1,50,[-0.1425],[-0.34],[1],[0],[0],[16.294203106999703],['tijiao_random_2'],224.39432644100089,224.39432644100089,224.39432644100089,224.39432644100089,1.0124999999999997,5.5251255680013855,229.93775205600105,231.92530022500068,208.08419856100045,208.08419856100045,208.08419856100045,208.08419856100045,208.08419856100045,208.08419856100045,208.08419856100045,208.08419856100045,0.011233039998842287,208.08419856100045,,,,,,,,,,,274,f,23,2023-04-04_13h34.49.425,RL,2022.2.4,60.15972575580295,
1,-0.3,-0.225,0,2,2,2,,,,,,,,,,None,231.92530022500068,231.92530022500068,231.92530022500068,231.92530022500068,231.92530022500068,231.92530022500068,f,0.4444691700009571,232.42091645500113,232.42091645500113,232.42091645500113,232.42091645500113,232.42091645500113,232.42091645500113,232.68146784500095,232.68146784500095,234.27202659400064,234.27202659400064,234.31268443800036,234.31268443800036,234.31268443800036,234.31268443800036,234.31268443800036,234.31268443800036,234.31268443800036,234.31268443800036,234.31268443800036,234.31268443800036,234.31268443800036,234.31268443800036,234.31268443800036,234.31268443800036,234.31268443800036,76,29,27,68,29,40,None,None,,,,,,,,,,,,,[],[],[],[],[],[],[],-0.6,1,28,[-0.09875],[-0.30375],[1],[0],[0],[20.61093319399879],['tijiao_random_2'],257.47844909000014,257.47844909000014,257.47844909000014,257.47844909000014,1.9749999999999996,6.981398588999582,264.4803034590004,266.30804119800086,236.84880446900024,236.84880446900024,236.84880446900024,236.84880446900024,236.84880446900024,236.84880446900024,236.84880446900024,236.84880446900024,0.009803994998947019,236.84880446900024,,,,,,,,,,,274,f,23,2023-04-04_13h34.49.425,RL,2022.2.4,60.15972575580295,
0,0.3,0.225,0,3,3,3,,,,,,,,,,None,266.30804119800086,266.30804119800086,266.30804119800086,266.30804119800086,266.30804119800086,266.30804119800086,r,0.4467392179994931,266.7970653550001,266.7970653550001,266.7970653550001,266.7970653550001,266.7970653550001,266.7970653550001,267.06509769399963,267.06509769399963,268.4477776929998,268.4477776929998,268.49488029799977,268.49488029799977,268.49488029799977,268.49488029799977,268.49488029799977,268.49488029799977,268.49488029799977,268.49488029799977,268.49488029799977,268.49488029799977,268.49488029799977,268.49488029799977,268.49488029799977,268.49488029799977,268.49488029799977,72,41,30,45,72,56,7.0,7.601956361000703,,,,,,,,,,,,,[],[],[],[],[],[],[],-0.6,2,,[],[],[],[],[],[],[],,,,,None,None,278.64382980700066,280.1820407480009,,,,,,,,,,,270.9856528190012,270.9856528190012,270.9856528190012,270.9856528190012,270.9856528190012,,,,,,274,f,23,2023-04-04_13h34.49.425,RL,2022.2.4,60.15972575580295,
1,-0.3,-0.225,0,4,4,4,,,,,,,,,,None,280.1820407480009,280.1820407480009,280.1820407480009,280.1820407480009,280.1820407480009,280.1820407480009,i,0.9585282299995015,281.18644366900116,281.18644366900116,281.18644366900116,281.18644366900116,281.18644366900116,281.18644366900116,281.4555685280011,281.4555685280011,283.16856485100107,283.16856485100107,283.21033044700016,283.21033044700016,283.21033044700016,283.21033044700016,283.21033044700016,283.21033044700016,283.21033044700016,283.21033044700016,283.21033044700016,283.21033044700016,283.21033044700016,283.21033044700016,283.21033044700016,283.21033044700016,283.21033044700016,65,32,25,60,25,59,None,None,,,,,,,,,,,,,[],[],[],[],[],[],[],0.2,1,25,[0.105],[-0.28625],[1],[0],[0],[12.84823800599952],['tijiao_random_2'],298.61448906700025,298.61448906700025,298.61448906700025,298.61448906700025,10.9375,2.0075843579998036,300.64422442700015,302.3423389470008,285.75169691799965,285.75169691799965,285.75169691799965,285.75169691799965,285.75169691799965,285.75169691799965,285.75169691799965,285.75169691799965,0.01076494399967487,285.75169691799965,,,,,,,,,,,274,f,23,2023-04-04_13h34.49.425,RL,2022.2.4,60.15972575580295,
0,0.3,0.225,0,5,5,5,,,,,,,,,,None,302.3423389470008,302.3423389470008,302.3423389470008,302.3423389470008,302.3423389470008,302.3423389470008,i,0.8702121680016717,303.2528283850006,303.2528283850006,303.2528283850006,303.2528283850006,303.2528283850006,303.2528283850006,303.53152423600113,303.53152423600113,305.17240946899983,305.17240946899983,305.19655441600116,305.19655441600116,305.19655441600116,305.19655441600116,305.19655441600116,305.19655441600116,305.19655441600116,305.19655441600116,305.19655441600116,305.19655441600116,305.19655441600116,305.19655441600116,305.19655441600116,305.19655441600116,305.19655441600116,64,42,24,58,24,38,4.0,3.3656004599997686,,,,,,,,,,,,,[],[],[],[],[],[],[],-0.6,3,,[],[],[],[],[],[],[],,,,,None,None,311.1162923310003,313.01402284600044,,,,,,,,,,,307.7047033279996,307.7047033279996,307.7047033279996,307.7047033279996,307.7047033279996,,,,,,274,f,23,2023-04-04_13h34.49.425,RL,2022.2.4,60.15972575580295,
1,-0.3,-0.225,0,6,6,6,,,,,,,,,,None,313.01402284600044,313.01402284600044,313.01402284600044,313.01402284600044,313.01402284600044,313.01402284600044,f,0.9758463950001897,314.0346515800011,314.0346515800011,314.0346515800011,314.0346515800011,314.0346515800011,314.0346515800011,314.3027473530001,314.3027473530001,315.95422672099994,315.95422672099994,315.99333628299973,315.99333628299973,315.99333628299973,315.99333628299973,315.99333628299973,315.99333628299973,315.99333628299973,315.99333628299973,315.99333628299973,315.99333628299973,315.99333628299973,315.99333628299973,315.99333628299973,315.99333628299973,315.99333628299973,61,49,15,67,49,55,None,None,318.50841792600113,318.50841792600113,318.50841792600113,318.50841792600113,318.50841792600113,318.50841792600113,318.50841792600113,318.50841792600113,0.008459912998660002,318.50841792600113,60,60,[0.01875],[-0.2675],[1],[0],[0],[13.3415093349995],['tijiao'],-0.6,0,,[],[],[],[],[],[],[],331.88225740300004,331.88225740300004,331.88225740300004,331.88225740300004,2.0125,19.18674292599826,351.0867786630006,352.6157863460012,,,,,,,,,,,,,,,,,,,,,274,f,23,2023-04-04_13h34.49.425,RL,2022.2.4,60.15972575580295,
0,0.3,0.225,0,7,7,7,,,,,,,,,,None,352.6157863460012,352.6157863460012,352.6157863460012,352.6157863460012,352.6157863460012,352.6157863460012,f,0.48142629100038903,353.1378219970011,353.1378219970011,353.1378219970011,353.1378219970011,353.1378219970011,353.1378219970011,353.40533254100046,353.40533254100046,354.4414164360005,354.4414164360005,354.4828946680009,354.4828946680009,354.4828946680009,354.4828946680009,354.4828946680009,354.4828946680009,354.4828946680009,354.4828946680009,354.4828946680009,354.4828946680009,354.4828946680009,354.4828946680009,354.4828946680009,354.4828946680009,354.4828946680009,53,48,21,54,48,53,None,None,,,,,,,,,,,,,[],[],[],[],[],[],[],0.6,1,58,[-0.05625],[-0.3125],[1],[0],[0],[22.589734301000135],['tijiao_random_2'],379.6150392640011,379.6150392640011,379.6150392640011,379.6150392640011,8.9625,1.9842168880004465,381.61856188800084,383.4139937550008,357.00625930299975,357.00625930299975,357.00625930299975,357.00625930299975,357.00625930299975,357.00625930299975,357.00625930299975,357.00625930299975,0.009804887000427698,357.00625930299975,,,,,,,,,,,274,f,23,2023-04-04_13h34.49.425,RL,2022.2.4,60.15972575580295,
1,-0.3,-0.225,0,8,8,8,,,,,,,,,,None,383.4139937550008,383.4139937550008,383.4139937550008,383.4139937550008,383.4139937550008,383.4139937550008,j,0.5257416309996188,383.98551611699986,383.98551611699986,383.98551611699986,383.98551611699986,383.98551611699986,383.98551611699986,384.2533794110004,384.2533794110004,385.5403383330013,385.5403383330013,385.57962291200056,385.57962291200056,385.57962291200056,385.57962291200056,385.57962291200056,385.57962291200056,385.57962291200056,385.57962291200056,385.57962291200056,385.57962291200056,385.57962291200056,385.57962291200056,385.57962291200056,385.57962291200056,385.57962291200056,60,50,19,64,64,30,6.0,7.950111710999408,,,,,,,,,,,,,[],[],[],[],[],[],[],-0.6,2,,[],[],[],[],[],[],[],,,,,None,None,396.0898565589996,397.80425105500035,,,,,,,,,,,388.0961445089997,388.0961445089997,388.0961445089997,388.0961445089997,388.0961445089997,,,,,,274,f,23,2023-04-04_13h34.49.425,RL,2022.2.4,60.15972575580295,
0,0.3,0.225,0,9,9,9,,,,,,,,,,None,397.80425105500035,397.80425105500035,397.80425105500035,397.80425105500035,397.80425105500035,397.80425105500035,r,0.6319074049988558,398.4927409210013,398.4927409210013,398.4927409210013,398.4927409210013,398.4927409210013,398.4927409210013,398.7608746679998,398.7608746679998,400.49699716600117,400.49699716600117,400.53784743800134,400.53784743800134,400.53784743800134,400.53784743800134,400.53784743800134,400.53784743800134,400.53784743800134,400.53784743800134,400.53784743800134,400.53784743800134,400.53784743800134,400.53784743800134,400.53784743800134,400.53784743800134,400.53784743800134,57,47,26,56,57,34,None,None,,,,,,,,,,,,,[],[],[],[],[],[],[],-0.2,1,34,[0.03625],[-0.31],[1],[0],[0],[26.51590161599961],['tijiao_random_2'],429.5982406990006,429.5982406990006,429.5982406990006,429.5982406990006,9.025,13.451577957001064,443.06966797099994,444.5924498149998,403.0680257820004,403.0680257820004,403.0680257820004,403.0680257820004,403.0680257820004,403.0680257820004,403.0680257820004,403.0680257820004,0.009908996000376646,403.0680257820004,,,,,,,,,,,274,f,23,2023-04-04_13h34.49.425,RL,2022.2.4,60.15972575580295,
1,-0.3,-0.225,0,10,10,10,,,,,,,,,,None,444.5924498149998,444.5924498149998,444.5924498149998,444.5924498149998,444.5924498149998,444.5924498149998,i,0.7072010089996184,445.34774656800073,445.34774656800073,445.34774656800073,445.34774656800073,445.34774656800073,445.34774656800073,445.61722560199996,445.61722560199996,447.58723349200045,447.58723349200045,447.6269096899996,447.6269096899996,447.6269096899996,447.6269096899996,447.6269096899996,447.6269096899996,447.6269096899996,447.6269096899996,447.6269096899996,447.6269096899996,447.6269096899996,447.6269096899996,447.6269096899996,447.6269096899996,447.6269096899996,57,43,26,67,26,55,4.0,3.68222219999916,,,,,,,,,,,,,[],[],[],[],[],[],[],-0.6,2,,[],[],[],[],[],[],[],,,,,None,None,453.85039976700136,455.8313742730006,,,,,,,,,,,450.12255232999996,450.12255232999996,450.12255232999996,450.12255232999996,450.12255232999996,,,,,,274,f,23,2023-04-04_13h34.49.425,RL,2022.2.4,60.15972575580295,
0,0.3,0.225,0,11,11,11,,,,,,,,,,None,455.8313742730006,455.8313742730006,455.8313742730006,455.8313742730006,455.8313742730006,455.8313742730006,j,0.3587614339994616,456.2368989330007,456.2368989330007,456.2368989330007,456.2368989330007,456.2368989330007,456.2368989330007,456.50617041700025,456.50617041700025,457.413954484,457.413954484,457.45225013100026,457.45225013100026,457.45225013100026,457.45225013100026,457.45225013100026,457.45225013100026,457.45225013100026,457.45225013100026,457.45225013100026,457.45225013100026,457.45225013100026,457.45225013100026,457.45225013100026,457.45225013100026,457.45225013100026,53,45,13,68,68,61,None,None,,,,,,,,,,,,,[],[],[],[],[],[],[],-0.6,1,70,[0.00625],[-0.2875],[1],[0],[0],[10.003331918000185],['tijiao_random_2'],470.0057159000007,470.0057159000007,470.0057159000007,470.0057159000007,10.037500000000001,6.653512929000499,476.6758491170003,478.42598010300026,459.98440931200093,459.98440931200093,459.98440931200093,459.98440931200093,459.98440931200093,459.98440931200093,459.98440931200093,459.98440931200093,0.010049753000203054,459.98440931200093,,,,,,,,,,,274,f,23,2023-04-04_13h34.49.425,RL,2022.2.4,60.15972575580295,
1,-0.3,-0.225,0,12,12,12,,,,,,,,,,None,478.42598010300026,478.42598010300026,478.42598010300026,478.42598010300026,478.42598010300026,478.42598010300026,r,0.39868504399964877,478.88090577,478.88090577,478.88090577,478.88090577,478.88090577,478.88090577,479.1492846100009,479.1492846100009,481.1221969899998,481.1221969899998,481.15943649899964,481.15943649899964,481.15943649899964,481.15943649899964,481.15943649899964,481.15943649899964,481.15943649899964,481.15943649899964,481.15943649899964,481.15943649899964,481.15943649899964,481.15943649899964,481.15943649899964,481.15943649899964,481.15943649899964,42,39,17,66,42,60,None,None,,,,,,,,,,,,,[],[],[],[],[],[],[],-0.6,1,42,[0.0025],[-0.33],[1],[0],[0],[8.659752659999867],['tijiao_random_2'],492.37524353700064,492.37524353700064,492.37524353700064,492.37524353700064,11.0,5.064121897001314,497.45891480000137,499.2527666320002,483.6986072489999,483.6986072489999,483.6986072489999,483.6986072489999,483.6986072489999,483.6986072489999,483.6986072489999,483.6986072489999,0.010235944999294588,483.6986072489999,,,,,,,,,,,274,f,23,2023-04-04_13h34.49.425,RL,2022.2.4,60.15972575580295,
0,0.3,0.225,0,13,13,13,,,,,,,,,,None,499.2527666320002,499.2527666320002,499.2527666320002,499.2527666320002,499.2527666320002,499.2527666320002,j,0.41156941400004143,499.7126061380004,499.7126061380004,499.7126061380004,499.7126061380004,499.7126061380004,499.7126061380004,499.99229543100046,499.99229543100046,501.67787853200025,501.67787853200025,501.7026766199997,501.7026766199997,501.7026766199997,501.7026766199997,501.7026766199997,501.7026766199997,501.7026766199997,501.7026766199997,501.7026766199997,501.7026766199997,501.7026766199997,501.7026766199997,501.7026766199997,501.7026766199997,501.7026766199997,42,48,26,61,61,50,None,None,504.22322566,504.22322566,504.22322566,504.22322566,504.22322566,504.22322566,504.22322566,504.22322566,0.009816275998673518,504.22322566,55,55,[0.05125],[-0.285],[1],[0],[0],[15.519535944999006],['tijiao'],-0.2,0,,[],[],[],[],[],[],[],519.7722427150002,519.7722427150002,519.7722427150002,519.7722427150002,6.9624999999999995,10.955984988999262,530.7466166539998,532.6667147650005,,,,,,,,,,,,,,,,,,,,,274,f,23,2023-04-04_13h34.49.425,RL,2022.2.4,60.15972575580295,
1,-0.3,-0.225,0,14,14,14,,,,,,,,,,None,532.6667147650005,532.6667147650005,532.6667147650005,532.6667147650005,532.6667147650005,532.6667147650005,j,0.44856387700019695,533.1541474080004,533.1541474080004,533.1541474080004,533.1541474080004,533.1541474080004,533.1541474080004,533.4242571470004,533.4242571470004,534.684588129001,534.684588129001,534.7052403910002,534.7052403910002,534.7052403910002,534.7052403910002,534.7052403910002,534.7052403910002,534.7052403910002,534.7052403910002,534.7052403910002,534.7052403910002,534.7052403910002,534.7052403910002,534.7052403910002,534.7052403910002,534.7052403910002,47,51,24,64,64,32,None,None,,,,,,,,,,,,,[],[],[],[],[],[],[],-0.6,1,40,[0.00625],[-0.295],[1],[0],[0],[11.570474146999914],['tijiao_random_2'],548.8275642160006,548.8275642160006,548.8275642160006,548.8275642160006,7.975,9.617611212999691,558.4671464069997,560.4149218720013,537.2420751200007,537.2420751200007,537.2420751200007,537.2420751200007,537.2420751200007,537.2420751200007,537.2420751200007,537.2420751200007,0.009876690000965027,537.2420751200007,,,,,,,,,,,274,f,23,2023-04-04_13h34.49.425,RL,2022.2.4,60.15972575580295,
0,0.3,0.225,0,15,15,15,,,,,,,,,,None,560.4149218720013,560.4149218720013,560.4149218720013,560.4149218720013,560.4149218720013,560.4149218720013,j,0.5625431159987784,561.0187579980011,561.0187579980011,561.0187579980011,561.0187579980011,561.0187579980011,561.0187579980011,561.2887638499997,561.2887638499997,562.5034915169999,562.5034915169999,562.5273924250014,562.5273924250014,562.5273924250014,562.5273924250014,562.5273924250014,562.5273924250014,562.5273924250014,562.5273924250014,562.5273924250014,562.5273924250014,562.5273924250014,562.5273924250014,562.5273924250014,562.5273924250014,562.5273924250014,42,41,26,61,61,29,5.0,7.486080173999653,,,,,,,,,,,,,[],[],[],[],[],[],[],0.2,2,,[],[],[],[],[],[],[],,,,,None,None,572.5577034760008,574.0711748009999,,,,,,,,,,,565.0261282179999,565.0261282179999,565.0261282179999,565.0261282179999,565.0261282179999,,,,,,274,f,23,2023-04-04_13h34.49.425,RL,2022.2.4,60.15972575580295,
1,-0.3,-0.225,0,16,16,16,,,,,,,,,,None,574.0711748009999,574.0711748009999,574.0711748009999,574.0711748009999,574.0711748009999,574.0711748009999,r,0.6026016380001238,574.7270315700007,574.7270315700007,574.7270315700007,574.7270315700007,574.7270315700007,574.7270315700007,574.9946571130004,574.9946571130004,576.3985367980004,576.3985367980004,576.4401228070001,576.4401228070001,576.4401228070001,576.4401228070001,576.4401228070001,576.4401228070001,576.4401228070001,576.4401228070001,576.4401228070001,576.4401228070001,576.4401228070001,576.4401228070001,576.4401228070001,576.4401228070001,576.4401228070001,41,44,21,68,41,53,None,None,578.9504162150006,578.9504162150006,578.9504162150006,578.9504162150006,578.9504162150006,578.9504162150006,578.9504162150006,578.9504162150006,0.008770053998887306,578.9504162150006,45,45,[0.00375],[-0.3075],[1],[0],[0],[8.29936007499964],['tijiao'],0.6,0,,[],[],[],[],[],[],[],587.2800343689996,587.2800343689996,587.2800343689996,587.2800343689996,8.9875,10.641096774999824,597.9407017020003,599.5830963710014,,,,,,,,,,,,,,,,,,,,,274,f,23,2023-04-04_13h34.49.425,RL,2022.2.4,60.15972575580295,
0,0.3,0.225,0,17,17,17,,,,,,,,,,None,599.5830963710014,599.5830963710014,599.5830963710014,599.5830963710014,599.5830963710014,599.5830963710014,j,0.45963230399866006,600.0931728590003,600.0931728590003,600.0931728590003,600.0931728590003,600.0931728590003,600.0931728590003,600.3564791300014,600.3564791300014,601.4245535770006,601.4245535770006,601.4630101620005,601.4630101620005,601.4630101620005,601.4630101620005,601.4630101620005,601.4630101620005,601.4630101620005,601.4630101620005,601.4630101620005,601.4630101620005,601.4630101620005,601.4630101620005,601.4630101620005,601.4630101620005,601.4630101620005,48,38,18,62,62,63,None,None,603.9852732190011,603.9852732190011,603.9852732190011,603.9852732190011,603.9852732190011,603.9852732190011,603.9852732190011,603.9852732190011,0.009292329001254984,603.9852732190011,60,60,[0.0275],[-0.30875],[1],[0],[0],[21.10240913400048],['tijiao'],-0.6,0,,[],[],[],[],[],[],[],625.1152751259997,625.1152751259997,625.1152751259997,625.1152751259997,6.012499999999999,11.832292656999925,636.9678771440012,638.6188671290001,,,,,,,,,,,,,,,,,,,,,274,f,23,2023-04-04_13h34.49.425,RL,2022.2.4,60.15972575580295,
1,-0.3,-0.225,0,18,18,18,,,,,,,,,,None,638.6188671290001,638.6188671290001,638.6188671290001,638.6188671290001,638.6188671290001,638.6188671290001,r,0.45090539699958754,639.111978375,639.111978375,639.111978375,639.111978375,639.111978375,639.111978375,639.3791057950002,639.3791057950002,640.6297693100005,640.6297693100005,640.6689322340007,640.6689322340007,640.6689322340007,640.6689322340007,640.6689322340007,640.6689322340007,640.6689322340007,640.6689322340007,640.6689322340007,640.6689322340007,640.6689322340007,640.6689322340007,640.6689322340007,640.6689322340007,640.6689322340007,52,48,16,63,52,60,5.0,7.669242211000892,,,,,,,,,,,,,[],[],[],[],[],[],[],-0.2,2,,[],[],[],[],[],[],[],,,,,None,None,650.8912340019997,652.5915340020001,,,,,,,,,,,643.1775198600008,643.1775198600008,643.1775198600008,643.1775198600008,643.1775198600008,,,,,,274,f,23,2023-04-04_13h34.49.425,RL,2022.2.4,60.15972575580295,
0,0.3,0.225,0,19,19,19,,,,,,,,,,None,652.5915340020001,652.5915340020001,652.5915340020001,652.5915340020001,652.5915340020001,652.5915340020001,f,0.526361590000306,653.1641439260002,653.1641439260002,653.1641439260002,653.1641439260002,653.1641439260002,653.1641439260002,653.4302731970001,653.4302731970001,654.3639416200003,654.3639416200003,654.4047740980004,654.4047740980004,654.4047740980004,654.4047740980004,654.4047740980004,654.4047740980004,654.4047740980004,654.4047740980004,654.4047740980004,654.4047740980004,654.4047740980004,654.4047740980004,654.4047740980004,654.4047740980004,654.4047740980004,45,53,12,52,53,57,None,None,656.9260083099998,656.9260083099998,656.9260083099998,656.9260083099998,656.9260083099998,656.9260083099998,656.9260083099998,656.9260083099998,0.009018699998705415,656.9260083099998,55,55,[0.03125],[-0.3075],[1],[0],[0],[9.646885570999075],['tijiao'],-0.2,0,,[],[],[],[],[],[],[],666.6041495509999,666.6041495509999,666.6041495509999,666.6041495509999,6.9624999999999995,9.838504908000687,676.4609986960004,678.0364301810005,,,,,,,,,,,,,,,,,,,,,274,f,23,2023-04-04_13h34.49.425,RL,2022.2.4,60.15972575580295,
1,-0.3,-0.225,0,20,20,20,,,,,,,,,,None,678.0364301810005,678.0364301810005,678.0364301810005,678.0364301810005,678.0364301810005,678.0364301810005,f,0.37172510500022327,678.4606812370002,678.4606812370002,678.4606812370002,678.4606812370002,678.4606812370002,678.4606812370002,678.7264462490002,678.7264462490002,679.6495774160012,679.6495774160012,679.6903888460001,679.6903888460001,679.6903888460001,679.6903888460001,679.6903888460001,679.6903888460001,679.6903888460001,679.6903888460001,679.6903888460001,679.6903888460001,679.6903888460001,679.6903888460001,679.6903888460001,679.6903888460001,679.6903888460001,55,38,22,64,38,62,None,None,,,,,,,,,,,,,[],[],[],[],[],[],[],0.2,1,55,[0.03875],[-0.33875],[1],[0],[0],[27.300099752999813],['tijiao_random_2'],709.5473466020012,709.5473466020012,709.5473466020012,709.5473466020012,3.3875,15.720471585000269,725.285608436001,727.0760677970011,682.2295331300011,682.2295331300011,682.2295331300011,682.2295331300011,682.2295331300011,682.2295331300011,682.2295331300011,682.2295331300011,0.009833407999394694,682.2295331300011,,,,,,,,,,,274,f,23,2023-04-04_13h34.49.425,RL,2022.2.4,60.15972575580295,
0,0.3,0.225,0,21,21,21,,,,,,,,,,None,727.0760677970011,727.0760677970011,727.0760677970011,727.0760677970011,727.0760677970011,727.0760677970011,j,0.5534696729991992,727.6812240290001,727.6812240290001,727.6812240290001,727.6812240290001,727.6812240290001,727.6812240290001,727.9495347360007,727.9495347360007,728.8025223380009,728.8025223380009,728.8402442130009,728.8402442130009,728.8402442130009,728.8402442130009,728.8402442130009,728.8402442130009,728.8402442130009,728.8402442130009,728.8402442130009,728.8402442130009,728.8402442130009,728.8402442130009,728.8402442130009,728.8402442130009,728.8402442130009,50,33,23,66,66,58,5.0,4.715289155999926,,,,,,,,,,,,,[],[],[],[],[],[],[],0.6,2,,[],[],[],[],[],[],[],,,,,None,None,736.0984353940003,737.9807283629998,,,,,,,,,,,731.3395297030002,731.3395297030002,731.3395297030002,731.3395297030002,731.3395297030002,,,,,,274,f,23,2023-04-04_13h34.49.425,RL,2022.2.4,60.15972575580295,
1,-0.3,-0.225,0,22,22,22,,,,,,,,,,None,737.9807283629998,737.9807283629998,737.9807283629998,737.9807283629998,737.9807283629998,737.9807283629998,j,0.700301301001673,738.7395183259996,738.7395183259996,738.7395183259996,738.7395183259996,738.7395183259996,738.7395183259996,739.0050230950001,739.0050230950001,740.6493927950014,740.6493927950014,740.6865842839998,740.6865842839998,740.6865842839998,740.6865842839998,740.6865842839998,740.6865842839998,740.6865842839998,740.6865842839998,740.6865842839998,740.6865842839998,740.6865842839998,740.6865842839998,740.6865842839998,740.6865842839998,740.6865842839998,62,36,9,67,67,60,6.0,4.013862824000171,,,,,,,,,,,,,[],[],[],[],[],[],[],0.6,3,,[],[],[],[],[],[],[],,,,,None,None,747.2568460460006,748.8699411550006,,,,,,,,,,,743.2000722040011,743.2000722040011,743.2000722040011,743.2000722040011,743.2000722040011,,,,,,274,f,23,2023-04-04_13h34.49.425,RL,2022.2.4,60.15972575580295,
0,0.3,0.225,0,23,23,23,,,,,,,,,,None,748.8699411550006,748.8699411550006,748.8699411550006,748.8699411550006,748.8699411550006,748.8699411550006,j,0.8705000800000562,749.7927738239996,749.7927738239996,749.7927738239996,749.7927738239996,749.7927738239996,749.7927738239996,750.0608492660012,750.0608492660012,751.8488478060008,751.8488478060008,751.8882997670007,751.8882997670007,751.8882997670007,751.8882997670007,751.8882997670007,751.8882997670007,751.8882997670007,751.8882997670007,751.8882997670007,751.8882997670007,751.8882997670007,751.8882997670007,751.8882997670007,751.8882997670007,751.8882997670007,52,47,20,66,66,36,7.0,4.832630933000473,,,,,,,,,,,,,[],[],[],[],[],[],[],-0.2,3,,[],[],[],[],[],[],[],,,,,None,None,759.2759305420004,760.9260314080002,,,,,,,,,,,754.3985496559999,754.3985496559999,754.3985496559999,754.3985496559999,754.3985496559999,,,,,,274,f,23,2023-04-04_13h34.49.425,RL,2022.2.4,60.15972575580295,
1,-0.3,-0.225,0,24,24,24,,,,,,,,,,None,760.9260314080002,760.9260314080002,760.9260314080002,760.9260314080002,760.9260314080002,760.9260314080002,i,0.5468309550014965,761.5137314889998,761.5137314889998,761.5137314889998,761.5137314889998,761.5137314889998,761.5137314889998,761.7833466600005,761.7833466600005,762.6053698530013,762.6053698530013,762.6452486110011,762.6452486110011,762.6452486110011,762.6452486110011,762.6452486110011,762.6452486110011,762.6452486110011,762.6452486110011,762.6452486110011,762.6452486110011,762.6452486110011,762.6452486110011,762.6452486110011,762.6452486110011,762.6452486110011,52,53,22,61,22,46,None,None,765.1638229990003,765.1638229990003,765.1638229990003,765.1638229990003,765.1638229990003,765.1638229990003,765.1638229990003,765.1638229990003,0.009637512001063442,765.1638229990003,30,30,"[0.26125, 0.115]","[-0.28375, -0.30625]","[1, 1]","[0, 0]","[0, 0]","[9.436243488999025, 11.22411658099918]",['tijiao'],0.2,0,,[],[],[],[],[],[],[],776.4147104590011,776.4147104590011,776.4147104590011,776.4147104590011,7.0375,6.2652194350012,782.6983375330001,784.5536407920008,,,,,,,,,,,,,,,,,,,,,274,f,23,2023-04-04_13h34.49.425,RL,2022.2.4,60.15972575580295,
0,0.3,0.225,0,25,25,25,,,,,,,,,,None,784.5536407920008,784.5536407920008,784.5536407920008,784.5536407920008,784.5536407920008,784.5536407920008,j,0.3262574330001371,784.9318734019998,784.9318734019998,784.9318734019998,784.9318734019998,784.9318734019998,784.9318734019998,785.2077026650004,785.2077026650004,787.0265640270009,787.0265640270009,787.0503612030006,787.0503612030006,787.0503612030006,787.0503612030006,787.0503612030006,787.0503612030006,787.0503612030006,787.0503612030006,787.0503612030006,787.0503612030006,787.0503612030006,787.0503612030006,787.0503612030006,787.0503612030006,787.0503612030006,55,46,18,61,61,57,5.0,7.8759004730000015,,,,,,,,,,,,,[],[],[],[],[],[],[],0.6,3,,[],[],[],[],[],[],[],,,,,None,None,797.4860835660002,799.4393569570002,,,,,,,,,,,789.5576984590007,789.5576984590007,789.5576984590007,789.5576984590007,789.5576984590007,,,,,,274,f,23,2023-04-04_13h34.49.425,RL,2022.2.4,60.15972575580295,
1,-0.3,-0.225,0,26,26,26,,,,,,,,,,None,799.4393569570002,799.4393569570002,799.4393569570002,799.4393569570002,799.4393569570002,799.4393569570002,r,0.3829816870002105,799.865573336001,799.865573336001,799.865573336001,799.865573336001,799.865573336001,799.865573336001,800.1360797939997,800.1360797939997,801.0010551539999,801.0010551539999,801.0433039360014,801.0433039360014,801.0433039360014,801.0433039360014,801.0433039360014,801.0433039360014,801.0433039360014,801.0433039360014,801.0433039360014,801.0433039360014,801.0433039360014,801.0433039360014,801.0433039360014,801.0433039360014,801.0433039360014,57,47,16,72,57,37,None,None,803.5733553910013,803.5733553910013,803.5733553910013,803.5733553910013,803.5733553910013,803.5733553910013,803.5733553910013,803.5733553910013,0.00857464799992158,803.5733553910013,56,56,[0.02375],[-0.275],[1],[0],[0],[10.596826478000366],['tijiao'],0.2,0,,[],[],[],[],[],[],[],814.198594929001,814.198594929001,814.198594929001,814.198594929001,7.025,12.179043365000325,826.3958768190005,828.2566972170007,,,,,,,,,,,,,,,,,,,,,274,f,23,2023-04-04_13h34.49.425,RL,2022.2.4,60.15972575580295,
0,0.3,0.225,0,27,27,27,,,,,,,,,,None,828.2566972170007,828.2566972170007,828.2566972170007,828.2566972170007,828.2566972170007,828.2566972170007,r,0.3975733190000028,828.6974071140012,828.6974071140012,828.6974071140012,828.6974071140012,828.6974071140012,828.6974071140012,828.966149752001,828.966149752001,829.9035658680004,829.9035658680004,829.9418972100011,829.9418972100011,829.9418972100011,829.9418972100011,829.9418972100011,829.9418972100011,829.9418972100011,829.9418972100011,829.9418972100011,829.9418972100011,829.9418972100011,829.9418972100011,829.9418972100011,829.9418972100011,829.9418972100011,59,45,16,61,59,51,4.0,4.018825420000212,,,,,,,,,,,,,[],[],[],[],[],[],[],0.2,2,,[],[],[],[],[],[],[],,,,,None,None,836.5157764340001,838.3626323280005,,,,,,,,,,,832.4527518190007,832.4527518190007,832.4527518190007,832.4527518190007,832.4527518190007,,,,,,274,f,23,2023-04-04_13h34.49.425,RL,2022.2.4,60.15972575580295,
1,-0.3,-0.225,0,28,28,28,,,,,,,,,,None,838.3626323280005,838.3626323280005,838.3626323280005,838.3626323280005,838.3626323280005,838.3626323280005,j,0.6048719209993578,839.0191435750003,839.0191435750003,839.0191435750003,839.0191435750003,839.0191435750003,839.0191435750003,839.2848288309997,839.2848288309997,840.4054177060007,840.4054177060007,840.4454878470005,840.4454878470005,840.4454878470005,840.4454878470005,840.4454878470005,840.4454878470005,840.4454878470005,840.4454878470005,840.4454878470005,840.4454878470005,840.4454878470005,840.4454878470005,840.4454878470005,840.4454878470005,840.4454878470005,54,44,21,66,66,39,None,None,842.9617953100005,842.9617953100005,842.9617953100005,842.9617953100005,842.9617953100005,842.9617953100005,842.9617953100005,842.9617953100005,0.009685670000180835,842.9617953100005,66,66,[0.03125],[-0.32],[1],[0],[0],[19.204106216000582],['tijiao'],0.6,0,,[],[],[],[],[],[],[],862.1967514509997,862.1967514509997,862.1967514509997,862.1967514509997,9.9625,4.104308563000814,866.3205474790011,868.0277869000001,,,,,,,,,,,,,,,,,,,,,274,f,23,2023-04-04_13h34.49.425,RL,2022.2.4,60.15972575580295,
0,0.3,0.225,0,29,29,29,,,,,,,,,,None,868.0277869000001,868.0277869000001,868.0277869000001,868.0277869000001,868.0277869000001,868.0277869000001,j,0.786597211001208,868.8655523920006,868.8655523920006,868.8655523920006,868.8655523920006,868.8655523920006,868.8655523920006,869.1321021530002,869.1321021530002,870.1236507480007,870.1236507480007,870.1626442720008,870.1626442720008,870.1626442720008,870.1626442720008,870.1626442720008,870.1626442720008,870.1626442720008,870.1626442720008,870.1626442720008,870.1626442720008,870.1626442720008,870.1626442720008,870.1626442720008,870.1626442720008,870.1626442720008,55,56,11,55,55,32,None,None,872.681693120001,872.681693120001,872.681693120001,872.681693120001,872.681693120001,872.681693120001,872.681693120001,872.681693120001,0.009134609999819077,872.681693120001,56,56,[0.02125],[-0.3175],[1],[0],[0],[24.24784304700006],['tijiao'],0.2,0,,[],[],[],[],[],[],[],896.9609451200013,896.9609451200013,896.9609451200013,896.9609451200013,1.9749999999999996,19.063918617001036,916.0427133869998,917.6508257450005,,,,,,,,,,,,,,,,,,,,,274,f,23,2023-04-04_13h34.49.425,RL,2022.2.4,60.15972575580295,
1,-0.3,-0.225,0,30,30,30,,,,,,,,,,None,917.6508257450005,917.6508257450005,917.6508257450005,917.6508257450005,917.6508257450005,917.6508257450005,j,0.6500599280007009,918.3555259290006,918.3555259290006,918.3555259290006,918.3555259290006,918.3555259290006,918.3555259290006,918.6252012330006,918.6252012330006,920.3516012580003,920.3516012580003,920.3915828270001,920.3915828270001,920.3915828270001,920.3915828270001,920.3915828270001,920.3915828270001,920.3915828270001,920.3915828270001,920.3915828270001,920.3915828270001,920.3915828270001,920.3915828270001,920.3915828270001,920.3915828270001,920.3915828270001,55,54,11,61,61,42,None,None,922.9153899650009,922.9153899650009,922.9153899650009,922.9153899650009,922.9153899650009,922.9153899650009,922.9153899650009,922.9153899650009,0.008809138998913113,922.9153899650009,63,63,[0.0],[-0.34125],[1],[0],[0],[19.280475973000648],['tijiao'],-0.2,0,,[],[],[],[],[],[],[],942.2261215460003,942.2261215460003,942.2261215460003,942.2261215460003,5.987500000000001,4.271789386999444,946.5171538089999,948.2302930320002,,,,,,,,,,,,,,,,,,,,,274,f,23,2023-04-04_13h34.49.425,RL,2022.2.4,60.15972575580295,
0,0.3,0.225,0,31,31,31,,,,,,,,,,None,948.2302930320002,948.2302930320002,948.2302930320002,948.2302930320002,948.2302930320002,948.2302930320002,j,0.4266512310005055,948.7040440199999,948.7040440199999,948.7040440199999,948.7040440199999,948.7040440199999,948.7040440199999,948.97037241,948.97037241,950.4419976160007,950.4419976160007,950.4781071819998,950.4781071819998,950.4781071819998,950.4781071819998,950.4781071819998,950.4781071819998,950.4781071819998,950.4781071819998,950.4781071819998,950.4781071819998,950.4781071819998,950.4781071819998,950.4781071819998,950.4781071819998,950.4781071819998,52,47,17,52,52,32,None,None,,,,,,,,,,,,,[],[],[],[],[],[],[],-0.2,1,40,[0.02125],[-0.30375],[1],[0],[0],[8.145404744998814],['tijiao_random_2'],961.1772624280002,961.1772624280002,961.1772624280002,961.1772624280002,1,5.0309502569998585,966.2284416340008,967.9573937990008,953.0174001240011,953.0174001240011,953.0174001240011,953.0174001240011,953.0174001240011,953.0174001240011,953.0174001240011,953.0174001240011,0.00981186399985745,953.0174001240011,,,,,,,,,,,274,f,23,2023-04-04_13h34.49.425,RL,2022.2.4,60.15972575580295,
1,-0.3,-0.225,0,32,32,32,,,,,,,,,,None,967.9573937990008,967.9573937990008,967.9573937990008,967.9573937990008,967.9573937990008,967.9573937990008,j,0.48084247999941,968.4950791020001,968.4950791020001,968.4950791020001,968.4950791020001,968.4950791020001,968.4950791020001,968.7643733780005,968.7643733780005,970.0008488189997,970.0008488189997,970.0406327070014,970.0406327070014,970.0406327070014,970.0406327070014,970.0406327070014,970.0406327070014,970.0406327070014,970.0406327070014,970.0406327070014,970.0406327070014,970.0406327070014,970.0406327070014,970.0406327070014,970.0406327070014,970.0406327070014,51,57,12,73,73,53,7.0,3.374119611999049,,,,,,,,,,,,,[],[],[],[],[],[],[],-0.2,2,,[],[],[],[],[],[],[],,,,,None,None,975.9631585010011,977.7628473920013,,,,,,,,,,,972.5449212479998,972.5449212479998,972.5449212479998,972.5449212479998,972.5449212479998,,,,,,274,f,23,2023-04-04_13h34.49.425,RL,2022.2.4,60.15972575580295,
0,0.3,0.225,0,33,33,33,,,,,,,,,,None,977.7628473920013,977.7628473920013,977.7628473920013,977.7628473920013,977.7628473920013,977.7628473920013,j,0.42850785400150926,978.2397779780003,978.2397779780003,978.2397779780003,978.2397779780003,978.2397779780003,978.2397779780003,978.5021639820006,978.5021639820006,979.5036984480012,979.5036984480012,979.540813302001,979.540813302001,979.540813302001,979.540813302001,979.540813302001,979.540813302001,979.540813302001,979.540813302001,979.540813302001,979.540813302001,979.540813302001,979.540813302001,979.540813302001,979.540813302001,979.540813302001,49,58,16,68,68,44,None,None,,,,,,,,,,,,,[],[],[],[],[],[],[],-0.2,1,44,[0.065],[-0.3225],[1],[0],[0],[5.757019975999356],['tijiao_random_2'],987.8559673150012,987.8559673150012,987.8559673150012,987.8559673150012,5.975,5.624831514000107,993.5053779139998,995.0354514900009,982.0833332319999,982.0833332319999,982.0833332319999,982.0833332319999,982.0833332319999,982.0833332319999,982.0833332319999,982.0833332319999,0.011407146001147339,982.0833332319999,,,,,,,,,,,274,f,23,2023-04-04_13h34.49.425,RL,2022.2.4,60.15972575580295,
1,-0.3,-0.225,0,34,34,34,,,,,,,,,,None,995.0354514900009,995.0354514900009,995.0354514900009,995.0354514900009,995.0354514900009,995.0354514900009,j,0.4823477259997162,995.5599749840003,995.5599749840003,995.5599749840003,995.5599749840003,995.5599749840003,995.5599749840003,995.828536680001,995.828536680001,997.7288815130014,997.7288815130014,997.771333486,997.771333486,997.771333486,997.771333486,997.771333486,997.771333486,997.771333486,997.771333486,997.771333486,997.771333486,997.771333486,997.771333486,997.771333486,997.771333486,997.771333486,47,68,12,61,61,38,None,None,,,,,,,,,,,,,[],[],[],[],[],[],[],0.6,1,61,[0.09],[-0.29125],[1],[0],[0],[7.3996797269992385],['tijiao_random_2'],1007.7135900190005,1007.7135900190005,1007.7135900190005,1007.7135900190005,10.975000000000001,1.7056516009997722,1009.4382387490004,1011.2120095900009,1000.2975188300006,1000.2975188300006,1000.2975188300006,1000.2975188300006,1000.2975188300006,1000.2975188300006,1000.2975188300006,1000.2975188300006,0.0100301929996931,1000.2975188300006,,,,,,,,,,,274,f,23,2023-04-04_13h34.49.425,RL,2022.2.4,60.15972575580295,
0,0.3,0.225,0,35,35,35,,,,,,,,,,None,1011.2120095900009,1011.2120095900009,1011.2120095900009,1011.2120095900009,1011.2120095900009,1011.2120095900009,None,,,,,,,,,,,,,,,,,,,,,,,,,,,52,60,11,54,0,**,None,None,,,,,,,,,,,,,[],[],[],[],[],[],[],-0.2,3,,[],[],[],[],[],[],[],,,,,None,None,1018.7957239269999,1020.6830209890013,,,,,,,,,,,,,,,,1012.7818287760001,1018.7957239269999,,,,274,f,23,2023-04-04_13h34.49.425,RL,2022.2.4,60.15972575580295,
1,-0.3,-0.225,0,36,36,36,,,,,,,,,,None,1020.6830209890013,1020.6830209890013,1020.6830209890013,1020.6830209890013,1020.6830209890013,1020.6830209890013,j,0.884917770001266,1021.620981823,1021.620981823,1021.620981823,1021.620981823,1021.620981823,1021.620981823,1021.889086055,1021.889086055,1023.6770356920006,1023.6770356920006,1023.7170619740009,1023.7170619740009,1023.7170619740009,1023.7170619740009,1023.7170619740009,1023.7170619740009,1023.7170619740009,1023.7170619740009,1023.7170619740009,1023.7170619740009,1023.7170619740009,1023.7170619740009,1023.7170619740009,1023.7170619740009,1023.7170619740009,61,63,11,58,58,47,None,None,1026.244302074001,1026.244302074001,1026.244302074001,1026.244302074001,1026.244302074001,1026.244302074001,1026.244302074001,1026.244302074001,0.008738182999877608,1026.244302074001,60,60,[0.185],[-0.30625],[1],[0],[0],[9.035307772001033],['tijiao'],-0.2,0,,[],[],[],[],[],[],[],1035.3088137209998,1035.3088137209998,1035.3088137209998,1035.3088137209998,6.0375000000000005,10.14118949099975,1045.4674541990007,1047.2124521180012,,,,,,,,,,,,,,,,,,,,,274,f,23,2023-04-04_13h34.49.425,RL,2022.2.4,60.15972575580295,
0,0.3,0.225,0,37,37,37,,,,,,,,,,None,1047.2124521180012,1047.2124521180012,1047.2124521180012,1047.2124521180012,1047.2124521180012,1047.2124521180012,j,0.26997310499973537,1047.534166106001,1047.534166106001,1047.534166106001,1047.534166106001,1047.534166106001,1047.534166106001,1047.8033149250004,1047.8033149250004,1049.7248663120008,1049.7248663120008,1049.7646618510007,1049.7646618510007,1049.7646618510007,1049.7646618510007,1049.7646618510007,1049.7646618510007,1049.7646618510007,1049.7646618510007,1049.7646618510007,1049.7646618510007,1049.7646618510007,1049.7646618510007,1049.7646618510007,1049.7646618510007,1049.7646618510007,59,55,12,57,57,44,4.0,3.198321086998476,,,,,,,,,,,,,[],[],[],[],[],[],[],0.2,3,,[],[],[],[],[],[],[],,,,,None,None,1055.5022764470013,1057.2001115570001,,,,,,,,,,,1052.2622454860011,1052.2622454860011,1052.2622454860011,1052.2622454860011,1052.2622454860011,,,,,,274,f,23,2023-04-04_13h34.49.425,RL,2022.2.4,60.15972575580295,
1,-0.3,-0.225,0,38,38,38,,,,,,,,,,None,1057.2001115570001,1057.2001115570001,1057.2001115570001,1057.2001115570001,1057.2001115570001,1057.2001115570001,r,0.42963447799957066,1057.6765901790004,1057.6765901790004,1057.6765901790004,1057.6765901790004,1057.6765901790004,1057.6765901790004,1057.9412093480005,1057.9412093480005,1058.7857096139996,1058.7857096139996,1058.823807707,1058.823807707,1058.823807707,1058.823807707,1058.823807707,1058.823807707,1058.823807707,1058.823807707,1058.823807707,1058.823807707,1058.823807707,1058.823807707,1058.823807707,1058.823807707,1058.823807707,52,59,12,61,52,50,None,None,1061.3389010890005,1061.3389010890005,1061.3389010890005,1061.3389010890005,1061.3389010890005,1061.3389010890005,1061.3389010890005,1061.3389010890005,0.009220386999004404,1061.3389010890005,50,50,[-0.0275],[-0.28875],[1],[0],[0],[6.165774810000585],['tijiao'],-0.2,0,,[],[],[],[],[],[],[],1067.5320684510007,1067.5320684510007,1067.5320684510007,1067.5320684510007,1.0374999999999996,15.96816267900067,1083.5171842170002,1085.1136840199997,,,,,,,,,,,,,,,,,,,,,274,f,23,2023-04-04_13h34.49.425,RL,2022.2.4,60.15972575580295,
0,0.3,0.225,0,39,39,39,,,,,,,,,,None,1085.1136840199997,1085.1136840199997,1085.1136840199997,1085.1136840199997,1085.1136840199997,1085.1136840199997,j,0.332907690999491,1085.5030683510013,1085.5030683510013,1085.5030683510013,1085.5030683510013,1085.5030683510013,1085.5030683510013,1085.770825470001,1085.770825470001,1087.6056931599996,1087.6056931599996,1087.6461687210012,1087.6461687210012,1087.6461687210012,1087.6461687210012,1087.6461687210012,1087.6461687210012,1087.6461687210012,1087.6461687210012,1087.6461687210012,1087.6461687210012,1087.6461687210012,1087.6461687210012,1087.6461687210012,1087.6461687210012,1087.6461687210012,60,54,18,68,68,49,5.0,3.3732206500008033,,,,,,,,,,,,,[],[],[],[],[],[],[],0.6,2,,[],[],[],[],[],[],[],,,,,None,None,1093.5722056520008,1095.3016667210013,,,,,,,,,,,1090.1542050300013,1090.1542050300013,1090.1542050300013,1090.1542050300013,1090.1542050300013,,,,,,274,f,23,2023-04-04_13h34.49.425,RL,2022.2.4,60.15972575580295,
1,-0.3,-0.225,0,40,40,40,,,,,,,,,,None,1095.3016667210013,1095.3016667210013,1095.3016667210013,1095.3016667210013,1095.3016667210013,1095.3016667210013,j,0.5072427799987054,1095.853749707001,1095.853749707001,1095.853749707001,1095.853749707001,1095.853749707001,1095.853749707001,1096.1259336920011,1096.1259336920011,1097.7454869150006,1097.7454869150006,1097.784728378001,1097.784728378001,1097.784728378001,1097.784728378001,1097.784728378001,1097.784728378001,1097.784728378001,1097.784728378001,1097.784728378001,1097.784728378001,1097.784728378001,1097.784728378001,1097.784728378001,1097.784728378001,1097.784728378001,65,56,21,56,56,51,4.0,4.433411215999513,,,,,,,,,,,,,[],[],[],[],[],[],[],0.6,2,,[],[],[],[],[],[],[],,,,,None,None,1104.7594330890006,1106.2727545039997,,,,,,,,,,,1100.2815036869997,1100.2815036869997,1100.2815036869997,1100.2815036869997,1100.2815036869997,,,,,,274,f,23,2023-04-04_13h34.49.425,RL,2022.2.4,60.15972575580295,
0,0.3,0.225,0,41,41,41,,,,,,,,,,None,1106.2727545039997,1106.2727545039997,1106.2727545039997,1106.2727545039997,1106.2727545039997,1106.2727545039997,r,0.3905016499993508,1106.7132294790008,1106.7132294790008,1106.7132294790008,1106.7132294790008,1106.7132294790008,1106.7132294790008,1106.9806795650002,1106.9806795650002,1108.097074225001,1108.097074225001,1108.1370712570006,1108.1370712570006,1108.1370712570006,1108.1370712570006,1108.1370712570006,1108.1370712570006,1108.1370712570006,1108.1370712570006,1108.1370712570006,1108.1370712570006,1108.1370712570006,1108.1370712570006,1108.1370712570006,1108.1370712570006,1108.1370712570006,69,47,19,52,69,58,None,None,1110.6519275650007,1110.6519275650007,1110.6519275650007,1110.6519275650007,1110.6519275650007,1110.6519275650007,1110.6519275650007,1110.6519275650007,0.008524954000677099,1110.6519275650007,60,60,[0.02125],[-0.285],[1],[0],[0],[19.360926728999402],['tijiao'],0.6,0,,[],[],[],[],[],[],[],1130.043530375,1130.043530375,1130.043530375,1130.043530375,2.0375,7.273667219000345,1137.3337063800009,1139.3223364620007,,,,,,,,,,,,,,,,,,,,,274,f,23,2023-04-04_13h34.49.425,RL,2022.2.4,60.15972575580295,
1,-0.3,-0.225,0,42,42,42,,,,,,,,,,None,1139.3223364620007,1139.3223364620007,1139.3223364620007,1139.3223364620007,1139.3223364620007,1139.3223364620007,j,0.3025595749986678,1139.677524832001,1139.677524832001,1139.677524832001,1139.677524832001,1139.677524832001,1139.677524832001,1139.9453702170013,1139.9453702170013,1141.3654305750006,1141.3654305750006,1141.4044593830004,1141.4044593830004,1141.4044593830004,1141.4044593830004,1141.4044593830004,1141.4044593830004,1141.4044593830004,1141.4044593830004,1141.4044593830004,1141.4044593830004,1141.4044593830004,1141.4044593830004,1141.4044593830004,1141.4044593830004,1141.4044593830004,62,63,19,53,53,54,None,None,,,,,,,,,,,,,[],[],[],[],[],[],[],-0.6,1,54,[0.01875],[-0.305],[1],[0],[0],[5.271097397000631],['tijiao_random_2'],1149.2177045139997,1149.2177045139997,1149.2177045139997,1149.2177045139997,6.0,5.526968690999638,1154.766562404,1156.629935129,1143.9328037819996,1143.9328037819996,1143.9328037819996,1143.9328037819996,1143.9328037819996,1143.9328037819996,1143.9328037819996,1143.9328037819996,0.00982414499958395,1143.9328037819996,,,,,,,,,,,274,f,23,2023-04-04_13h34.49.425,RL,2022.2.4,60.15972575580295,
0,0.3,0.225,0,43,43,43,,,,,,,,,,None,1156.629935129,1156.629935129,1156.629935129,1156.629935129,1156.629935129,1156.629935129,r,0.2868167110009381,1156.9713062280007,1156.9713062280007,1156.9713062280007,1156.9713062280007,1156.9713062280007,1156.9713062280007,1157.2389549279997,1157.2389549279997,1158.352686229,1158.352686229,1158.3939744170002,1158.3939744170002,1158.3939744170002,1158.3939744170002,1158.3939744170002,1158.3939744170002,1158.3939744170002,1158.3939744170002,1158.3939744170002,1158.3939744170002,1158.3939744170002,1158.3939744170002,1158.3939744170002,1158.3939744170002,1158.3939744170002,68,54,17,53,68,42,None,None,1160.9214927550001,1160.9214927550001,1160.9214927550001,1160.9214927550001,1160.9214927550001,1160.9214927550001,1160.9214927550001,1160.9214927550001,0.008692420000443235,1160.9214927550001,68,68,[0.1025],[-0.33],[1],[0],[0],[6.4094843809998565],['tijiao'],0.6,0,,[],[],[],[],[],[],[],1167.362708052,1167.362708052,1167.362708052,1167.362708052,10.025,5.212956802999543,1172.5929280569999,1174.6039770589996,,,,,,,,,,,,,,,,,,,,,274,f,23,2023-04-04_13h34.49.425,RL,2022.2.4,60.15972575580295,
1,-0.3,-0.225,0,44,44,44,,,,,,,,,,None,1174.6039770589996,1174.6039770589996,1174.6039770589996,1174.6039770589996,1174.6039770589996,1174.6039770589996,r,0.4304063350009528,1175.0773034150006,1175.0773034150006,1175.0773034150006,1175.0773034150006,1175.0773034150006,1175.0773034150006,1175.3452088289996,1175.3452088289996,1176.429328614,1176.429328614,1176.455589004001,1176.455589004001,1176.455589004001,1176.455589004001,1176.455589004001,1176.455589004001,1176.455589004001,1176.455589004001,1176.455589004001,1176.455589004001,1176.455589004001,1176.455589004001,1176.455589004001,1176.455589004001,1176.455589004001,69,53,25,43,69,50,7.0,3.0268433279998135,,,,,,,,,,,,,[],[],[],[],[],[],[],0.2,2,,[],[],[],[],[],[],[],,,,,None,None,1182.0277917050007,1183.8931359220005,,,,,,,,,,,1178.9555541580012,1178.9555541580012,1178.9555541580012,1178.9555541580012,1178.9555541580012,,,,,,274,f,23,2023-04-04_13h34.49.425,RL,2022.2.4,60.15972575580295,
0,0.3,0.225,0,45,45,45,,,,,,,,,,None,1183.8931359220005,1183.8931359220005,1183.8931359220005,1183.8931359220005,1183.8931359220005,1183.8931359220005,r,0.3324231280003005,1184.2697001859997,1184.2697001859997,1184.2697001859997,1184.2697001859997,1184.2697001859997,1184.2697001859997,1184.535166279,1184.535166279,1186.3901279029997,1186.3901279029997,1186.427577929,1186.427577929,1186.427577929,1186.427577929,1186.427577929,1186.427577929,1186.427577929,1186.427577929,1186.427577929,1186.427577929,1186.427577929,1186.427577929,1186.427577929,1186.427577929,1186.427577929,71,39,15,47,71,50,None,None,1188.9563400450006,1188.9563400450006,1188.9563400450006,1188.9563400450006,1188.9563400450006,1188.9563400450006,1188.9563400450006,1188.9563400450006,0.00897538400022313,1188.9563400450006,68,68,[0.1225],[-0.27],[1],[0],[0],[6.882743903001028],['tijiao'],-0.6,0,,[],[],[],[],[],[],[],1195.8689728360005,1195.8689728360005,1195.8689728360005,1195.8689728360005,8.0375,2.902838210000482,1198.7909562570003,1200.7855080030004,,,,,,,,,,,,,,,,,,,,,274,f,23,2023-04-04_13h34.49.425,RL,2022.2.4,60.15972575580295,
1,-0.3,-0.225,0,46,46,46,,,,,,,,,,None,1200.7855080030004,1200.7855080030004,1200.7855080030004,1200.7855080030004,1200.7855080030004,1200.7855080030004,r,0.30113384099968243,1201.1393878939998,1201.1393878939998,1201.1393878939998,1201.1393878939998,1201.1393878939998,1201.1393878939998,1201.4070646279997,1201.4070646279997,1203.0402897960012,1203.0402897960012,1203.0640785690011,1203.0640785690011,1203.0640785690011,1203.0640785690011,1203.0640785690011,1203.0640785690011,1203.0640785690011,1203.0640785690011,1203.0640785690011,1203.0640785690011,1203.0640785690011,1203.0640785690011,1203.0640785690011,1203.0640785690011,1203.0640785690011,77,48,26,43,77,41,None,None,,,,,,,,,,,,,[],[],[],[],[],[],[],-0.6,1,77,[0.03125],[-0.31625],[1],[0],[0],[4.807085508000455],['tijiao_random_2'],1210.4223064779999,1210.4223064779999,1210.4223064779999,1210.4223064779999,11,1.1872189269997762,1211.6301765999997,1213.3403268910006,1205.5980990380012,1205.5980990380012,1205.5980990380012,1205.5980990380012,1205.5980990380012,1205.5980990380012,1205.5980990380012,1205.5980990380012,0.011561596000319696,1205.5980990380012,,,,,,,,,,,274,f,23,2023-04-04_13h34.49.425,RL,2022.2.4,60.15972575580295,
0,0.3,0.225,0,47,47,47,,,,,,,,,,None,1213.3403268910006,1213.3403268910006,1213.3403268910006,1213.3403268910006,1213.3403268910006,1213.3403268910006,r,0.406875176999165,1213.7916799080012,1213.7916799080012,1213.7916799080012,1213.7916799080012,1213.7916799080012,1213.7916799080012,1214.0636097140014,1214.0636097140014,1216.0054572990011,1216.0054572990011,1216.0446846169998,1216.0446846169998,1216.0446846169998,1216.0446846169998,1216.0446846169998,1216.0446846169998,1216.0446846169998,1216.0446846169998,1216.0446846169998,1216.0446846169998,1216.0446846169998,1216.0446846169998,1216.0446846169998,1216.0446846169998,1216.0446846169998,70,52,29,45,70,64,6.0,4.057916402000046,,,,,,,,,,,,,[],[],[],[],[],[],[],0.6,2,,[],[],[],[],[],[],[],,,,,None,None,1222.649233637001,1224.6129882000005,,,,,,,,,,,1218.5446082360013,1218.5446082360013,1218.5446082360013,1218.5446082360013,1218.5446082360013,,,,,,274,f,23,2023-04-04_13h34.49.425,RL,2022.2.4,60.15972575580295,
1,-0.3,-0.225,0,48,48,48,,,,,,,,,,None,1224.6129882000005,1224.6129882000005,1224.6129882000005,1224.6129882000005,1224.6129882000005,1224.6129882000005,j,0.3757440469998983,1225.0399717990003,1225.0399717990003,1225.0399717990003,1225.0399717990003,1225.0399717990003,1225.0399717990003,1225.3181868150004,1225.3181868150004,1226.756596442001,1226.756596442001,1226.7807186610007,1226.7807186610007,1226.7807186610007,1226.7807186610007,1226.7807186610007,1226.7807186610007,1226.7807186610007,1226.7807186610007,1226.7807186610007,1226.7807186610007,1226.7807186610007,1226.7807186610007,1226.7807186610007,1226.7807186610007,1226.7807186610007,57,50,32,47,47,35,5.0,7.970459231000859,,,,,,,,,,,,,[],[],[],[],[],[],[],0.2,3,,[],[],[],[],[],[],[],,,,,None,None,1237.3050693140012,1239.0198957419998,,,,,,,,,,,1229.2896356790006,1229.2896356790006,1229.2896356790006,1229.2896356790006,1229.2896356790006,,,,,,274,f,23,2023-04-04_13h34.49.425,RL,2022.2.4,60.15972575580295,
0,0.3,0.225,0,49,49,49,,,,,,,,,,None,1239.0198957419998,1239.0198957419998,1239.0198957419998,1239.0198957419998,1239.0198957419998,1239.0198957419998,r,0.43080582000038703,1239.5074088250003,1239.5074088250003,1239.5074088250003,1239.5074088250003,1239.5074088250003,1239.5074088250003,1239.7766749010007,1239.7766749010007,1240.863747966001,1240.863747966001,1240.9041237279998,1240.9041237279998,1240.9041237279998,1240.9041237279998,1240.9041237279998,1240.9041237279998,1240.9041237279998,1240.9041237279998,1240.9041237279998,1240.9041237279998,1240.9041237279998,1240.9041237279998,1240.9041237279998,1240.9041237279998,1240.9041237279998,62,56,31,53,62,62,None,None,1243.4299994089997,1243.4299994089997,1243.4299994089997,1243.4299994089997,1243.4299994089997,1243.4299994089997,1243.4299994089997,1243.4299994089997,0.008915833001083229,1243.4299994089997,60,60,[0.06],[-0.25875],[1],[0],[0],[17.249788524000905],['tijiao'],0.6,0,,[],[],[],[],[],[],[],1260.709711073001,1260.709711073001,1260.709711073001,1260.709711073001,7.0375,4.596009386001242,1265.324713588001,1267.2657486500011,,,,,,,,,,,,,,,,,,,,,274,f,23,2023-04-04_13h34.49.425,RL,2022.2.4,60.15972575580295,
1,-0.3,-0.225,0,50,50,50,,,,,,,,,,None,1267.2657486500011,1267.2657486500011,1267.2657486500011,1267.2657486500011,1267.2657486500011,1267.2657486500011,r,0.5459388349991059,1267.8535577700004,1267.8535577700004,1267.8535577700004,1267.8535577700004,1267.8535577700004,1267.8535577700004,1268.1229021870004,1268.1229021870004,1269.992799474001,1269.992799474001,1270.0338045560002,1270.0338045560002,1270.0338045560002,1270.0338045560002,1270.0338045560002,1270.0338045560002,1270.0338045560002,1270.0338045560002,1270.0338045560002,1270.0338045560002,1270.0338045560002,1270.0338045560002,1270.0338045560002,1270.0338045560002,1270.0338045560002,57,60,22,51,57,61,None,None,1272.5620450320002,1272.5620450320002,1272.5620450320002,1272.5620450320002,1272.5620450320002,1272.5620450320002,1272.5620450320002,1272.5620450320002,0.008847744000377133,1272.5620450320002,55,55,[0.06375],[-0.29125],[1],[0],[0],[4.125620079999862],['tijiao'],0.6,0,,[],[],[],[],[],[],[],1276.7169830929997,1276.7169830929997,1276.7169830929997,1276.7169830929997,6.9750000000000005,2.2612911780015565,1278.9971990570011,1280.6057718949996,,,,,,,,,,,,,,,,,,,,,274,f,23,2023-04-04_13h34.49.425,RL,2022.2.4,60.15972575580295,
0,0.3,0.225,0,51,51,51,,,,,,,,,,None,1280.6057718949996,1280.6057718949996,1280.6057718949996,1280.6057718949996,1280.6057718949996,1280.6057718949996,j,0.40387532800014014,1281.0615593969997,1281.0615593969997,1281.0615593969997,1281.0615593969997,1281.0615593969997,1281.0615593969997,1281.329466878,1281.329466878,1282.7665979209996,1282.7665979209996,1282.8060394269996,1282.8060394269996,1282.8060394269996,1282.8060394269996,1282.8060394269996,1282.8060394269996,1282.8060394269996,1282.8060394269996,1282.8060394269996,1282.8060394269996,1282.8060394269996,1282.8060394269996,1282.8060394269996,1282.8060394269996,1282.8060394269996,63,57,17,55,55,34,4.0,2.0555350209997414,,,,,,,,,,,,,[],[],[],[],[],[],[],-0.6,2,,[],[],[],[],[],[],[],,,,,None,None,1287.4112771140008,1289.058619083,,,,,,,,,,,1285.311935003001,1285.311935003001,1285.311935003001,1285.311935003001,1285.311935003001,,,,,,274,f,23,2023-04-04_13h34.49.425,RL,2022.2.4,60.15972575580295,
1,-0.3,-0.225,0,52,52,52,,,,,,,,,,None,1289.058619083,1289.058619083,1289.058619083,1289.058619083,1289.058619083,1289.058619083,r,0.8009746679999807,1289.915746605,1289.915746605,1289.915746605,1289.915746605,1289.915746605,1289.915746605,1290.1835117130013,1290.1835117130013,1291.0659645020005,1291.0659645020005,1291.1059579920002,1291.1059579920002,1291.1059579920002,1291.1059579920002,1291.1059579920002,1291.1059579920002,1291.1059579920002,1291.1059579920002,1291.1059579920002,1291.1059579920002,1291.1059579920002,1291.1059579920002,1291.1059579920002,1291.1059579920002,1291.1059579920002,60,67,17,57,60,56,4.0,5.858721463999245,,,,,,,,,,,,,[],[],[],[],[],[],[],0.6,2,,[],[],[],[],[],[],[],,,,,None,None,1299.5178524250005,1301.399549783,,,,,,,,,,,1293.615354638001,1293.615354638001,1293.615354638001,1293.615354638001,1293.615354638001,,,,,,274,f,23,2023-04-04_13h34.49.425,RL,2022.2.4,60.15972575580295,
0,0.3,0.225,0,53,53,53,,,,,,,,,,None,1301.399549783,1301.399549783,1301.399549783,1301.399549783,1301.399549783,1301.399549783,f,0.35108703799960495,1301.7925264920013,1301.7925264920013,1301.7925264920013,1301.7925264920013,1301.7925264920013,1301.7925264920013,1302.0544303820006,1302.0544303820006,1303.8747189530004,1303.8747189530004,1303.915016858,1303.915016858,1303.915016858,1303.915016858,1303.915016858,1303.915016858,1303.915016858,1303.915016858,1303.915016858,1303.915016858,1303.915016858,1303.915016858,1303.915016858,1303.915016858,1303.915016858,70,60,19,56,60,49,None,None,1306.4342270020006,1306.4342270020006,1306.4342270020006,1306.4342270020006,1306.4342270020006,1306.4342270020006,1306.4342270020006,1306.4342270020006,0.00924335399940901,1306.4342270020006,55,55,[0.075],[-0.2975],[1],[0],[0],[4.100359337000555],['tijiao'],-0.2,0,,[],[],[],[],[],[],[],1310.5624975730007,1310.5624975730007,1310.5624975730007,1310.5624975730007,5.987500000000001,6.523031769000227,1317.103344735,1318.8560082610002,,,,,,,,,,,,,,,,,,,,,274,f,23,2023-04-04_13h34.49.425,RL,2022.2.4,60.15972575580295,
1,-0.3,-0.225,0,54,54,54,,,,,,,,,,None,1318.8560082610002,1318.8560082610002,1318.8560082610002,1318.8560082610002,1318.8560082610002,1318.8560082610002,f,0.40752584599977126,1319.311626228,1319.311626228,1319.311626228,1319.311626228,1319.311626228,1319.311626228,1319.581066699,1319.581066699,1321.266246639001,1321.266246639001,1321.3064432829997,1321.3064432829997,1321.3064432829997,1321.3064432829997,1321.3064432829997,1321.3064432829997,1321.3064432829997,1321.3064432829997,1321.3064432829997,1321.3064432829997,1321.3064432829997,1321.3064432829997,1321.3064432829997,1321.3064432829997,1321.3064432829997,61,63,8,66,63,51,None,None,,,,,,,,,,,,,[],[],[],[],[],[],[],-0.2,1,63,[0.04875],[-0.3275],[1],[0],[0],[7.66097059599997],['tijiao_random_2'],1331.5285125810005,1331.5285125810005,1331.5285125810005,1331.5285125810005,11,1.083540613999503,1332.6326053150005,1334.5318254680005,1323.849862344001,1323.849862344001,1323.849862344001,1323.849862344001,1323.849862344001,1323.849862344001,1323.849862344001,1323.849862344001,0.010460436998982914,1323.849862344001,,,,,,,,,,,274,f,23,2023-04-04_13h34.49.425,RL,2022.2.4,60.15972575580295,
0,0.3,0.225,0,55,55,55,,,,,,,,,,None,1334.5318254680005,1334.5318254680005,1334.5318254680005,1334.5318254680005,1334.5318254680005,1334.5318254680005,i,0.37547781499961275,1334.960163478001,1334.960163478001,1334.960163478001,1334.960163478001,1334.960163478001,1334.960163478001,1335.2335104390004,1335.2335104390004,1336.6106422550001,1336.6106422550001,1336.635424991,1336.635424991,1336.635424991,1336.635424991,1336.635424991,1336.635424991,1336.635424991,1336.635424991,1336.635424991,1336.635424991,1336.635424991,1336.635424991,1336.635424991,1336.635424991,1336.635424991,66,65,12,71,12,43,3.0,3.6807019839998247,,,,,,,,,,,,,[],[],[],[],[],[],[],-0.6,2,,[],[],[],[],[],[],[],,,,,None,None,1342.8541570650013,1344.769671256001,,,,,,,,,,,1339.1285134080008,1339.1285134080008,1339.1285134080008,1339.1285134080008,1339.1285134080008,,,,,,274,f,23,2023-04-04_13h34.49.425,RL,2022.2.4,60.15972575580295,
1,-0.3,-0.225,0,56,56,56,,,,,,,,,,None,1344.769671256001,1344.769671256001,1344.769671256001,1344.769671256001,1344.769671256001,1344.769671256001,j,0.4316308939996816,1345.2461639720004,1345.2461639720004,1345.2461639720004,1345.2461639720004,1345.2461639720004,1345.2461639720004,1345.5087118190004,1345.5087118190004,1347.4715242450002,1347.4715242450002,1347.5293463500002,1347.5293463500002,1347.5293463500002,1347.5293463500002,1347.5293463500002,1347.5293463500002,1347.5293463500002,1347.5293463500002,1347.5293463500002,1347.5293463500002,1347.5293463500002,1347.5293463500002,1347.5293463500002,1347.5293463500002,1347.5293463500002,68,59,10,70,70,55,None,None,,,,,,,,,,,,,[],[],[],[],[],[],[],0.2,1,55,[0.035],[-0.32875],[1],[0],[0],[13.322135698999773],['tijiao_random_2'],1363.3993479270011,1363.3993479270011,1363.3993479270011,1363.3993479270011,1.0374999999999996,4.289470728001106,1367.7099819480009,1369.3145201670013,1350.0652309400011,1350.0652309400011,1350.0652309400011,1350.0652309400011,1350.0652309400011,1350.0652309400011,1350.0652309400011,1350.0652309400011,0.009899821001454256,1350.0652309400011,,,,,,,,,,,274,f,23,2023-04-04_13h34.49.425,RL,2022.2.4,60.15972575580295,
0,0.3,0.225,0,57,57,57,,,,,,,,,,None,1369.3145201670013,1369.3145201670013,1369.3145201670013,1369.3145201670013,1369.3145201670013,1369.3145201670013,r,0.4437764510003035,1369.798596773,1369.798596773,1369.798596773,1369.798596773,1369.798596773,1369.798596773,1370.0716912690004,1370.0716912690004,1371.9415156900013,1371.9415156900013,1371.981567578001,1371.981567578001,1371.981567578001,1371.981567578001,1371.981567578001,1371.981567578001,1371.981567578001,1371.981567578001,1371.981567578001,1371.981567578001,1371.981567578001,1371.981567578001,1371.981567578001,1371.981567578001,1371.981567578001,67,63,17,70,67,59,None,None,1374.502678236,1374.502678236,1374.502678236,1374.502678236,1374.502678236,1374.502678236,1374.502678236,1374.502678236,0.009479363001446472,1374.502678236,60,60,[-0.12],[-0.33625],[1],[0],[0],[9.047894897999868],['tijiao'],-0.2,0,,[],[],[],[],[],[],[],1383.578028123,1383.578028123,1383.578028123,1383.578028123,2.925,4.3436193029992864,1387.9431455070007,1389.6245818300013,,,,,,,,,,,,,,,,,,,,,274,f,23,2023-04-04_13h34.49.425,RL,2022.2.4,60.15972575580295,
1,-0.3,-0.225,0,58,58,58,,,,,,,,,,None,1389.6245818300013,1389.6245818300013,1389.6245818300013,1389.6245818300013,1389.6245818300013,1389.6245818300013,j,0.508891980000044,1390.182480939,1390.182480939,1390.182480939,1390.182480939,1390.182480939,1390.182480939,1390.4468223679996,1390.4468223679996,1391.898755446,1391.898755446,1391.9400319160013,1391.9400319160013,1391.9400319160013,1391.9400319160013,1391.9400319160013,1391.9400319160013,1391.9400319160013,1391.9400319160013,1391.9400319160013,1391.9400319160013,1391.9400319160013,1391.9400319160013,1391.9400319160013,1391.9400319160013,1391.9400319160013,60,58,19,67,67,58,None,None,1394.4547034890002,1394.4547034890002,1394.4547034890002,1394.4547034890002,1394.4547034890002,1394.4547034890002,1394.4547034890002,1394.4547034890002,0.008686787999977241,1394.4547034890002,70,70,[0.0275],[-0.33],[1],[0],[0],[8.824891768999805],['tijiao'],0.2,0,,[],[],[],[],[],[],[],1403.3155717940008,1403.3155717940008,1403.3155717940008,1403.3155717940008,6.0375000000000005,5.314883461000136,1408.6428024390007,1410.5831747869997,,,,,,,,,,,,,,,,,,,,,274,f,23,2023-04-04_13h34.49.425,RL,2022.2.4,60.15972575580295,
0,0.3,0.225,0,59,59,59,,,,,,,,,,None,1410.5831747869997,1410.5831747869997,1410.5831747869997,1410.5831747869997,1410.5831747869997,1410.5831747869997,j,0.33749062400056573,1410.973952847,1410.973952847,1410.973952847,1410.973952847,1410.973952847,1410.973952847,1411.2417976289998,1411.2417976289998,1412.42280724,1412.42280724,1412.4637694760004,1412.4637694760004,1412.4637694760004,1412.4637694760004,1412.4637694760004,1412.4637694760004,1412.4637694760004,1412.4637694760004,1412.4637694760004,1412.4637694760004,1412.4637694760004,1412.4637694760004,1412.4637694760004,1412.4637694760004,1412.4637694760004,70,60,13,71,71,64,None,None,1414.9770240800008,1414.9770240800008,1414.9770240800008,1414.9770240800008,1414.9770240800008,1414.9770240800008,1414.9770240800008,1414.9770240800008,0.008829215001242119,1414.9770240800008,73,73,"[0.0825, 0.10375]","[-0.2375, -0.3225]","[1, 1]","[0, 0]","[0, 0]","[10.006905102000019, 12.047722314999191]",['tijiao'],-0.6,0,,[],[],[],[],[],[],[],1427.0600512279998,1427.0600512279998,1427.0600512279998,1427.0600512279998,7.05,8.442679677000342,1435.5186264940003,1437.4312164000003,,,,,,,,,,,,,,,,,,,,,274,f,23,2023-04-04_13h34.49.425,RL,2022.2.4,60.15972575580295,
1,-0.3,-0.225,0,60,60,60,,,,,,,,,,None,1437.4312164000003,1437.4312164000003,1437.4312164000003,1437.4312164000003,1437.4312164000003,1437.4312164000003,j,0.6369927570012806,1438.1230266130005,1438.1230266130005,1438.1230266130005,1438.1230266130005,1438.1230266130005,1438.1230266130005,1438.3927311530006,1438.3927311530006,1440.316543088,1440.316543088,1440.3580088159997,1440.3580088159997,1440.3580088159997,1440.3580088159997,1440.3580088159997,1440.3580088159997,1440.3580088159997,1440.3580088159997,1440.3580088159997,1440.3580088159997,1440.3580088159997,1440.3580088159997,1440.3580088159997,1440.3580088159997,1440.3580088159997,61,59,25,70,70,54,None,None,1442.8940166740013,1442.8940166740013,1442.8940166740013,1442.8940166740013,1442.8940166740013,1442.8940166740013,1442.8940166740013,1442.8940166740013,0.012153432999184588,1442.8940166740013,68,68,"[0.03625, 0.0375]","[-0.36625, -0.2725]","[1, 1]","[0, 0]","[0, 0]","[9.521895320998738, 10.187090962999719]",['tijiao'],-0.2,0,,[],[],[],[],[],[],[],1453.110294043001,1453.110294043001,1453.110294043001,1453.110294043001,6.012499999999999,3.844250023001223,1456.969249398,1458.6904969380012,,,,,,,,,,,,,,,,,,,,,274,f,23,2023-04-04_13h34.49.425,RL,2022.2.4,60.15972575580295,
0,0.3,0.225,0,61,61,61,,,,,,,,,,None,1458.6904969380012,1458.6904969380012,1458.6904969380012,1458.6904969380012,1458.6904969380012,1458.6904969380012,j,0.2714143570010492,1459.0086566179998,1459.0086566179998,1459.0086566179998,1459.0086566179998,1459.0086566179998,1459.0086566179998,1459.279582897001,1459.279582897001,1461.2610742710003,1461.2610742710003,1461.3017815519997,1461.3017815519997,1461.3017815519997,1461.3017815519997,1461.3017815519997,1461.3017815519997,1461.3017815519997,1461.3017815519997,1461.3017815519997,1461.3017815519997,1461.3017815519997,1461.3017815519997,1461.3017815519997,1461.3017815519997,1461.3017815519997,64,56,19,73,73,59,7.0,3.224235958999998,,,,,,,,,,,,,[],[],[],[],[],[],[],-0.2,3,,[],[],[],[],[],[],[],,,,,None,None,1467.080606331001,1468.7793297509998,,,,,,,,,,,1463.8119612240007,1463.8119612240007,1463.8119612240007,1463.8119612240007,1463.8119612240007,,,,,,274,f,23,2023-04-04_13h34.49.425,RL,2022.2.4,60.15972575580295,
1,-0.3,-0.225,0,62,62,62,,,,,,,,,,None,1468.7793297509998,1468.7793297509998,1468.7793297509998,1468.7793297509998,1468.7793297509998,1468.7793297509998,j,0.47560123699986434,1469.3008680800012,1469.3008680800012,1469.3008680800012,1469.3008680800012,1469.3008680800012,1469.3008680800012,1469.5670765710001,1469.5670765710001,1471.154887232,1471.154887232,1471.1946038810001,1471.1946038810001,1471.1946038810001,1471.1946038810001,1471.1946038810001,1471.1946038810001,1471.1946038810001,1471.1946038810001,1471.1946038810001,1471.1946038810001,1471.1946038810001,1471.1946038810001,1471.1946038810001,1471.1946038810001,1471.1946038810001,61,50,29,58,58,63,None,None,,,,,,,,,,,,,[],[],[],[],[],[],[],-0.2,1,63,[0.06875],[-0.29375],[1],[0],[0],[13.474890410001535],['tijiao_random_2'],1487.2161025500009,1487.2161025500009,1487.2161025500009,1487.2161025500009,1.9999999999999998,14.864305852001053,1502.1001588630006,1503.8274850159996,1473.725699046001,1473.725699046001,1473.725699046001,1473.725699046001,1473.725699046001,1473.725699046001,1473.725699046001,1473.725699046001,0.011651384998913272,1473.725699046001,,,,,,,,,,,274,f,23,2023-04-04_13h34.49.425,RL,2022.2.4,60.15972575580295,
0,0.3,0.225,0,63,63,63,,,,,,,,,,None,1503.8274850159996,1503.8274850159996,1503.8274850159996,1503.8274850159996,1503.8274850159996,1503.8274850159996,j,0.3349124260003009,1504.216748586001,1504.216748586001,1504.216748586001,1504.216748586001,1504.216748586001,1504.216748586001,1504.4913531479997,1504.4913531479997,1505.5353225800009,1505.5353225800009,1505.5564099900002,1505.5564099900002,1505.5564099900002,1505.5564099900002,1505.5564099900002,1505.5564099900002,1505.5564099900002,1505.5564099900002,1505.5564099900002,1505.5564099900002,1505.5564099900002,1505.5564099900002,1505.5564099900002,1505.5564099900002,1505.5564099900002,53,48,34,56,56,61,3.0,4.31344638399969,,,,,,,,,,,,,[],[],[],[],[],[],[],-0.6,3,,[],[],[],[],[],[],[],,,,,None,None,1512.4180291930006,1514.0332986209996,,,,,,,,,,,1508.0589931470004,1508.0589931470004,1508.0589931470004,1508.0589931470004,1508.0589931470004,,,,,,274,f,23,2023-04-04_13h34.49.425,RL,2022.2.4,60.15972575580295,
1,-0.3,-0.225,0,64,64,64,,,,,,,,,,None,1514.0332986209996,1514.0332986209996,1514.0332986209996,1514.0332986209996,1514.0332986209996,1514.0332986209996,f,0.36907565299952694,1514.4542730850008,1514.4542730850008,1514.4542730850008,1514.4542730850008,1514.4542730850008,1514.4542730850008,1514.7178225070002,1514.7178225070002,1515.5424529379998,1515.5424529379998,1515.5783076959997,1515.5783076959997,1515.5783076959997,1515.5783076959997,1515.5783076959997,1515.5783076959997,1515.5783076959997,1515.5783076959997,1515.5783076959997,1515.5783076959997,1515.5783076959997,1515.5783076959997,1515.5783076959997,1515.5783076959997,1515.5783076959997,54,52,38,54,52,54,3.0,7.2846697910008515,,,,,,,,,,,,,[],[],[],[],[],[],[],0.2,2,,[],[],[],[],[],[],[],,,,,None,None,1525.407595441,1527.2723677550002,,,,,,,,,,,1518.078815459001,1518.078815459001,1518.078815459001,1518.078815459001,1518.078815459001,,,,,,274,f,23,2023-04-04_13h34.49.425,RL,2022.2.4,60.15972575580295,
0,0.3,0.225,0,65,65,65,,,,,,,,,,None,1527.2723677550002,1527.2723677550002,1527.2723677550002,1527.2723677550002,1527.2723677550002,1527.2723677550002,r,0.6655893009992724,1527.999461108,1527.999461108,1527.999461108,1527.999461108,1527.999461108,1527.999461108,1528.2616982150012,1528.2616982150012,1529.7167464570011,1529.7167464570011,1529.772950775001,1529.772950775001,1529.772950775001,1529.772950775001,1529.772950775001,1529.772950775001,1529.772950775001,1529.772950775001,1529.772950775001,1529.772950775001,1529.772950775001,1529.772950775001,1529.772950775001,1529.772950775001,1529.772950775001,50,40,36,71,50,35,4.0,6.798002814999563,,,,,,,,,,,,,[],[],[],[],[],[],[],0.2,3,,[],[],[],[],[],[],[],,,,,None,None,1539.1161424000002,1540.695464366001,,,,,,,,,,,1532.2746104100006,1532.2746104100006,1532.2746104100006,1532.2746104100006,1532.2746104100006,,,,,,274,f,23,2023-04-04_13h34.49.425,RL,2022.2.4,60.15972575580295,
1,-0.3,-0.225,0,66,66,66,,,,,,,,,,None,1540.695464366001,1540.695464366001,1540.695464366001,1540.695464366001,1540.695464366001,1540.695464366001,j,0.3818466789998638,1541.1337783800009,1541.1337783800009,1541.1337783800009,1541.1337783800009,1541.1337783800009,1541.1337783800009,1541.4020673190007,1541.4020673190007,1543.237600859,1543.237600859,1543.261859237,1543.261859237,1543.261859237,1543.261859237,1543.261859237,1543.261859237,1543.261859237,1543.261859237,1543.261859237,1543.261859237,1543.261859237,1543.261859237,1543.261859237,1543.261859237,1543.261859237,46,53,37,69,69,61,4.0,8.918824364000102,,,,,,,,,,,,,[],[],[],[],[],[],[],-0.6,3,,[],[],[],[],[],[],[],,,,,None,None,1554.7212579810002,1556.47087241,,,,,,,,,,,1545.7573442430003,1545.7573442430003,1545.7573442430003,1545.7573442430003,1545.7573442430003,,,,,,274,f,23,2023-04-04_13h34.49.425,RL,2022.2.4,60.15972575580295,
0,0.3,0.225,0,67,67,67,,,,,,,,,,None,1556.47087241,1556.47087241,1556.47087241,1556.47087241,1556.47087241,1556.47087241,j,0.6526387699996121,1557.1639001849999,1557.1639001849999,1557.1639001849999,1557.1639001849999,1557.1639001849999,1557.1639001849999,1557.4275250280007,1557.4275250280007,1558.5210232480003,1558.5210232480003,1558.5645358170004,1558.5645358170004,1558.5645358170004,1558.5645358170004,1558.5645358170004,1558.5645358170004,1558.5645358170004,1558.5645358170004,1558.5645358170004,1558.5645358170004,1558.5645358170004,1558.5645358170004,1558.5645358170004,1558.5645358170004,1558.5645358170004,50,62,35,64,64,43,3.0,10.333475964998797,,,,,,,,,,,,,[],[],[],[],[],[],[],0.2,3,,[],[],[],[],[],[],[],,,,,None,None,1571.4362413730014,1573.295153504001,,,,,,,,,,,1561.0594872399997,1561.0594872399997,1561.0594872399997,1561.0594872399997,1561.0594872399997,,,,,,274,f,23,2023-04-04_13h34.49.425,RL,2022.2.4,60.15972575580295,
1,-0.3,-0.225,0,68,68,68,,,,,,,,,,None,1573.295153504001,1573.295153504001,1573.295153504001,1573.295153504001,1573.295153504001,1573.295153504001,j,0.518243235999762,1573.864641233,1573.864641233,1573.864641233,1573.864641233,1573.864641233,1573.864641233,1574.1338340790007,1574.1338340790007,1575.9776316400003,1575.9776316400003,1575.997777607001,1575.997777607001,1575.997777607001,1575.997777607001,1575.997777607001,1575.997777607001,1575.997777607001,1575.997777607001,1575.997777607001,1575.997777607001,1575.997777607001,1575.997777607001,1575.997777607001,1575.997777607001,1575.997777607001,51,58,42,63,63,46,None,None,,,,,,,,,,,,,[],[],[],[],[],[],[],0.2,1,46,[-0.00625],[-0.32],[1],[0],[0],[6.154005812999458],['tijiao_random_2'],1584.7093717220014,1584.7093717220014,1584.7093717220014,1584.7093717220014,8.0625,1.9499577520000457,1586.6776879560002,1588.6693793390004,1578.5401425119999,1578.5401425119999,1578.5401425119999,1578.5401425119999,1578.5401425119999,1578.5401425119999,1578.5401425119999,1578.5401425119999,0.009858638999503455,1578.5401425119999,,,,,,,,,,,274,f,23,2023-04-04_13h34.49.425,RL,2022.2.4,60.15972575580295,
0,0.3,0.225,0,69,69,69,,,,,,,,,,None,1588.6693793390004,1588.6693793390004,1588.6693793390004,1588.6693793390004,1588.6693793390004,1588.6693793390004,r,0.3795757190000586,1589.088494345,1589.088494345,1589.088494345,1589.088494345,1589.088494345,1589.088494345,1589.3591922550004,1589.3591922550004,1591.1123460060007,1591.1123460060007,1591.1523324600003,1591.1523324600003,1591.1523324600003,1591.1523324600003,1591.1523324600003,1591.1523324600003,1591.1523324600003,1591.1523324600003,1591.1523324600003,1591.1523324600003,1591.1523324600003,1591.1523324600003,1591.1523324600003,1591.1523324600003,1591.1523324600003,60,45,50,66,60,57,4.0,2.730810940000083,,,,,,,,,,,,,[],[],[],[],[],[],[],-0.2,2,,[],[],[],[],[],[],[],,,,,None,None,1596.4224806640013,1598.306919128001,,,,,,,,,,,1593.64822053,1593.64822053,1593.64822053,1593.64822053,1593.64822053,,,,,,274,f,23,2023-04-04_13h34.49.425,RL,2022.2.4,60.15972575580295,
1,-0.3,-0.225,0,70,70,70,,,,,,,,,,None,1598.306919128001,1598.306919128001,1598.306919128001,1598.306919128001,1598.306919128001,1598.306919128001,j,0.6071881589996337,1598.967681137001,1598.967681137001,1598.967681137001,1598.967681137001,1598.967681137001,1598.967681137001,1599.246485171001,1599.246485171001,1601.2265617850007,1601.2265617850007,1601.2474840220002,1601.2474840220002,1601.2474840220002,1601.2474840220002,1601.2474840220002,1601.2474840220002,1601.2474840220002,1601.2474840220002,1601.2474840220002,1601.2474840220002,1601.2474840220002,1601.2474840220002,1601.2474840220002,1601.2474840220002,1601.2474840220002,60,47,46,63,63,39,5.0,3.451778160999311,,,,,,,,,,,,,[],[],[],[],[],[],[],-0.2,3,,[],[],[],[],[],[],[],,,,,None,None,1607.2474243779998,1608.894697044001,,,,,,,,,,,1603.751290219001,1603.751290219001,1603.751290219001,1603.751290219001,1603.751290219001,,,,,,274,f,23,2023-04-04_13h34.49.425,RL,2022.2.4,60.15972575580295,
0,0.3,0.225,0,71,71,71,,,,,,,,,,None,1608.894697044001,1608.894697044001,1608.894697044001,1608.894697044001,1608.894697044001,1608.894697044001,j,0.4546999309986859,1609.3997528279997,1609.3997528279997,1609.3997528279997,1609.3997528279997,1609.3997528279997,1609.3997528279997,1609.6665898730007,1609.6665898730007,1610.804034703,1610.804034703,1610.8442512010006,1610.8442512010006,1610.8442512010006,1610.8442512010006,1610.8442512010006,1610.8442512010006,1610.8442512010006,1610.8442512010006,1610.8442512010006,1610.8442512010006,1610.8442512010006,1610.8442512010006,1610.8442512010006,1610.8442512010006,1610.8442512010006,52,56,45,56,56,39,6.0,3.7793434569994133,,,,,,,,,,,,,[],[],[],[],[],[],[],0.6,2,,[],[],[],[],[],[],[],,,,,None,None,1617.1689794680005,1619.0831160500002,,,,,,,,,,,1613.3461552219997,1613.3461552219997,1613.3461552219997,1613.3461552219997,1613.3461552219997,,,,,,274,f,23,2023-04-04_13h34.49.425,RL,2022.2.4,60.15972575580295,
1,-0.3,-0.225,0,72,72,72,,,,,,,,,,None,1619.0831160500002,1619.0831160500002,1619.0831160500002,1619.0831160500002,1619.0831160500002,1619.0831160500002,r,0.3679090330006147,1619.492774208,1619.492774208,1619.492774208,1619.492774208,1619.492774208,1619.492774208,1619.7574228459998,1619.7574228459998,1620.9788641530013,1620.9788641530013,1621.018531695001,1621.018531695001,1621.018531695001,1621.018531695001,1621.018531695001,1621.018531695001,1621.018531695001,1621.018531695001,1621.018531695001,1621.018531695001,1621.018531695001,1621.018531695001,1621.018531695001,1621.018531695001,1621.018531695001,57,47,60,62,57,43,5.0,3.7966193200009,,,,,,,,,,,,,[],[],[],[],[],[],[],-0.6,2,,[],[],[],[],[],[],[],,,,,None,None,1627.3725248890005,1629.3715918050002,,,,,,,,,,,1623.527441626,1623.527441626,1623.527441626,1623.527441626,1623.527441626,,,,,,274,f,23,2023-04-04_13h34.49.425,RL,2022.2.4,60.15972575580295,
0,0.3,0.225,0,73,73,73,,,,,,,,,,None,1629.3715918050002,1629.3715918050002,1629.3715918050002,1629.3715918050002,1629.3715918050002,1629.3715918050002,r,0.3916251570008171,1629.8144867640003,1629.8144867640003,1629.8144867640003,1629.8144867640003,1629.8144867640003,1629.8144867640003,1630.079562148001,1630.079562148001,1631.3299209190009,1631.3299209190009,1631.3683206550013,1631.3683206550013,1631.3683206550013,1631.3683206550013,1631.3683206550013,1631.3683206550013,1631.3683206550013,1631.3683206550013,1631.3683206550013,1631.3683206550013,1631.3683206550013,1631.3683206550013,1631.3683206550013,1631.3683206550013,1631.3683206550013,63,41,47,55,63,44,4.0,2.881485176998467,,,,,,,,,,,,,[],[],[],[],[],[],[],-0.2,3,,[],[],[],[],[],[],[],,,,,None,None,1636.8088918940011,1638.6925178290003,,,,,,,,,,,1633.8795060270004,1633.8795060270004,1633.8795060270004,1633.8795060270004,1633.8795060270004,,,,,,274,f,23,2023-04-04_13h34.49.425,RL,2022.2.4,60.15972575580295,
1,-0.3,-0.225,0,74,74,74,,,,,,,,,,None,1638.6925178290003,1638.6925178290003,1638.6925178290003,1638.6925178290003,1638.6925178290003,1638.6925178290003,j,0.3748353920000227,1639.11578061,1639.11578061,1639.11578061,1639.11578061,1639.11578061,1639.11578061,1639.3815436910008,1639.3815436910008,1640.8011894560004,1640.8011894560004,1640.8549523849997,1640.8549523849997,1640.8549523849997,1640.8549523849997,1640.8549523849997,1640.8549523849997,1640.8549523849997,1640.8549523849997,1640.8549523849997,1640.8549523849997,1640.8549523849997,1640.8549523849997,1640.8549523849997,1640.8549523849997,1640.8549523849997,60,42,50,56,56,59,4.0,5.385200971000813,,,,,,,,,,,,,[],[],[],[],[],[],[],-0.2,3,,[],[],[],[],[],[],[],,,,,None,None,1648.7973712430012,1650.478669516,,,,,,,,,,,1643.3694878690003,1643.3694878690003,1643.3694878690003,1643.3694878690003,1643.3694878690003,,,,,,274,f,23,2023-04-04_13h34.49.425,RL,2022.2.4,60.15972575580295,
0,0.3,0.225,0,75,75,75,,,,,,,,,,q,1719.4569561860008,1719.4569561860008,1719.4569561860008,1719.4569561860008,1719.4569561860008,1719.4569561860008,j,0.5423814240002685,1720.0519143450001,1720.0519143450001,1720.0519143450001,1720.0519143450001,1720.0519143450001,1720.0519143450001,1720.3190436309997,1720.3190436309997,1722.17306852,1722.17306852,1722.2105607009998,1722.2105607009998,1722.2105607009998,1722.2105607009998,1722.2105607009998,1722.2105607009998,1722.2105607009998,1722.2105607009998,1722.2105607009998,1722.2105607009998,1722.2105607009998,1722.2105607009998,1722.2105607009998,1722.2105607009998,1722.2105607009998,63,48,46,58,58,28,None,None,,,,,,,,,,,,,[],[],[],[],[],[],[],-0.2,1,28,"[-0.01875, 0.105]","[-0.2475, -0.29125]","[1, 1]","[0, 0]","[0, 0]","[7.282918393999353, 9.918328391999239]",['tijiao_random_2'],1734.6761963610006,1734.6761963610006,1734.6761963610006,1734.6761963610006,8.025,2.268446660000336,1736.9658406350009,1738.7397512240004,1724.7407676340008,1724.7407676340008,1724.7407676340008,1724.7407676340008,1724.7407676340008,1724.7407676340008,1724.7407676340008,1724.7407676340008,0.009959900999092497,1724.7407676340008,,,,,,,,1650.478669516,1650.478669516,68.93884876599986,274,f,23,2023-04-04_13h34.49.425,RL,2022.2.4,60.15972575580295,
1,-0.3,-0.225,0,76,76,76,,,,,,,,,,None,1738.7397512240004,1738.7397512240004,1738.7397512240004,1738.7397512240004,1738.7397512240004,1738.7397512240004,r,0.29769828999997117,1739.0802110050008,1739.0802110050008,1739.0802110050008,1739.0802110050008,1739.0802110050008,1739.0802110050008,1739.3455695840003,1739.3455695840003,1740.382599988001,1740.382599988001,1740.4226746860004,1740.4226746860004,1740.4226746860004,1740.4226746860004,1740.4226746860004,1740.4226746860004,1740.4226746860004,1740.4226746860004,1740.4226746860004,1740.4226746860004,1740.4226746860004,1740.4226746860004,1740.4226746860004,1740.4226746860004,1740.4226746860004,63,59,47,47,63,64,4.0,2.2308327040009317,,,,,,,,,,,,,[],[],[],[],[],[],[],0.2,2,,[],[],[],[],[],[],[],,,,,None,None,1745.1963467020014,1746.9610779289997,,,,,,,,,,,1742.9213176850008,1742.9213176850008,1742.9213176850008,1742.9213176850008,1742.9213176850008,,,,,,274,f,23,2023-04-04_13h34.49.425,RL,2022.2.4,60.15972575580295,
0,0.3,0.225,0,77,77,77,,,,,,,,,,None,1746.9610779289997,1746.9610779289997,1746.9610779289997,1746.9610779289997,1746.9610779289997,1746.9610779289997,f,0.7327240609993169,1747.7503327080012,1747.7503327080012,1747.7503327080012,1747.7503327080012,1747.7503327080012,1747.7503327080012,1748.0158021690004,1748.0158021690004,1749.57615316,1749.57615316,1749.6141668250002,1749.6141668250002,1749.6141668250002,1749.6141668250002,1749.6141668250002,1749.6141668250002,1749.6141668250002,1749.6141668250002,1749.6141668250002,1749.6141668250002,1749.6141668250002,1749.6141668250002,1749.6141668250002,1749.6141668250002,1749.6141668250002,63,51,55,47,51,54,None,None,1752.1451918519997,1752.1451918519997,1752.1451918519997,1752.1451918519997,1752.1451918519997,1752.1451918519997,1752.1451918519997,1752.1451918519997,0.009141217000433244,1752.1451918519997,50,50,[0.07],[-0.335],[1],[0],[0],[3.7313997019991803],['tijiao'],0.6,0,,[],[],[],[],[],[],[],1755.904348592001,1755.904348592001,1755.904348592001,1755.904348592001,1.0,2.2387075210008334,1758.159960336001,1759.9988469850014,,,,,,,,,,,,,,,,,,,,,274,f,23,2023-04-04_13h34.49.425,RL,2022.2.4,60.15972575580295,
1,-0.3,-0.225,0,78,78,78,,,,,,,,,,None,1759.9988469850014,1759.9988469850014,1759.9988469850014,1759.9988469850014,1759.9988469850014,1759.9988469850014,f,0.6034361790007097,1760.6552717890008,1760.6552717890008,1760.6552717890008,1760.6552717890008,1760.6552717890008,1760.6552717890008,1760.9219781339998,1760.9219781339998,1762.0622815309998,1762.0622815309998,1762.103442517,1762.103442517,1762.103442517,1762.103442517,1762.103442517,1762.103442517,1762.103442517,1762.103442517,1762.103442517,1762.103442517,1762.103442517,1762.103442517,1762.103442517,1762.103442517,1762.103442517,62,48,56,52,48,63,3.0,2.817777506999846,,,,,,,,,,,,,[],[],[],[],[],[],[],-0.2,3,,[],[],[],[],[],[],[],,,,,None,None,1767.473411416,1769.136797766001,,,,,,,,,,,1764.6104383000002,1764.6104383000002,1764.6104383000002,1764.6104383000002,1764.6104383000002,,,,,,274,f,23,2023-04-04_13h34.49.425,RL,2022.2.4,60.15972575580295,
0,0.3,0.225,0,79,79,79,,,,,,,,,,None,1769.136797766001,1769.136797766001,1769.136797766001,1769.136797766001,1769.136797766001,1769.136797766001,r,0.3382246410001244,1769.524608613001,1769.524608613001,1769.524608613001,1769.524608613001,1769.524608613001,1769.524608613001,1769.7939260029998,1769.7939260029998,1771.6469691300008,1771.6469691300008,1771.6712238870005,1771.6712238870005,1771.6712238870005,1771.6712238870005,1771.6712238870005,1771.6712238870005,1771.6712238870005,1771.6712238870005,1771.6712238870005,1771.6712238870005,1771.6712238870005,1771.6712238870005,1771.6712238870005,1771.6712238870005,1771.6712238870005,58,46,57,54,58,11,6.0,3.3999724949990195,,,,,,,,,,,,,[],[],[],[],[],[],[],-0.6,3,,[],[],[],[],[],[],[],,,,,None,None,1777.6145510450006,1779.4591510990012,,,,,,,,,,,1774.1689351040004,1774.1689351040004,1774.1689351040004,1774.1689351040004,1774.1689351040004,,,,,,274,f,23,2023-04-04_13h34.49.425,RL,2022.2.4,60.15972575580295,
1,-0.3,-0.225,0,80,80,80,,,,,,,,,,None,1779.4591510990012,1779.4591510990012,1779.4591510990012,1779.4591510990012,1779.4591510990012,1779.4591510990012,j,0.4061187699990114,1779.918166083,1779.918166083,1779.918166083,1779.918166083,1779.918166083,1779.918166083,1780.1823056560006,1780.1823056560006,1781.5458954710011,1781.5458954710011,1781.5869504450002,1781.5869504450002,1781.5869504450002,1781.5869504450002,1781.5869504450002,1781.5869504450002,1781.5869504450002,1781.5869504450002,1781.5869504450002,1781.5869504450002,1781.5869504450002,1781.5869504450002,1781.5869504450002,1781.5869504450002,1781.5869504450002,68,41,58,49,49,64,3.0,2.898732886000289,,,,,,,,,,,,,[],[],[],[],[],[],[],0.2,3,,[],[],[],[],[],[],[],,,,,None,None,1787.031923601,1788.8469618850013,,,,,,,,,,,1784.0878450680011,1784.0878450680011,1784.0878450680011,1784.0878450680011,1784.0878450680011,,,,,,274,f,23,2023-04-04_13h34.49.425,RL,2022.2.4,60.15972575580295,
0,0.3,0.225,0,81,81,81,,,,,,,,,,None,1788.8469618850013,1788.8469618850013,1788.8469618850013,1788.8469618850013,1788.8469618850013,1788.8469618850013,j,0.32185939500050154,1789.218352549,1789.218352549,1789.218352549,1789.218352549,1789.218352549,1789.218352549,1789.4850403590008,1789.4850403590008,1790.3593572770005,1790.3593572770005,1790.3986908630013,1790.3986908630013,1790.3986908630013,1790.3986908630013,1790.3986908630013,1790.3986908630013,1790.3986908630013,1790.3986908630013,1790.3986908630013,1790.3986908630013,1790.3986908630013,1790.3986908630013,1790.3986908630013,1790.3986908630013,1790.3986908630013,58,44,60,47,47,33,3.0,5.382042664999972,,,,,,,,,,,,,[],[],[],[],[],[],[],-0.6,2,,[],[],[],[],[],[],[],,,,,None,None,1798.3206663480014,1800.0027231370004,,,,,,,,,,,1792.8935521210005,1792.8935521210005,1792.8935521210005,1792.8935521210005,1792.8935521210005,,,,,,274,f,23,2023-04-04_13h34.49.425,RL,2022.2.4,60.15972575580295,
1,-0.3,-0.225,0,82,82,82,,,,,,,,,,None,1800.0027231370004,1800.0027231370004,1800.0027231370004,1800.0027231370004,1800.0027231370004,1800.0027231370004,f,0.3559970490005071,1800.409814423001,1800.409814423001,1800.409814423001,1800.409814423001,1800.409814423001,1800.409814423001,1800.6744747700013,1800.6744747700013,1802.1616056950006,1802.1616056950006,1802.215643458001,1802.215643458001,1802.215643458001,1802.215643458001,1802.215643458001,1802.215643458001,1802.215643458001,1802.215643458001,1802.215643458001,1802.215643458001,1802.215643458001,1802.215643458001,1802.215643458001,1802.215643458001,1802.215643458001,43,49,59,58,49,68,4.0,2.494174927998756,,,,,,,,,,,,,[],[],[],[],[],[],[],0.2,3,,[],[],[],[],[],[],[],,,,,None,None,1807.2574103549996,1809.05648922,,,,,,,,,,,1804.7147819830006,1804.7147819830006,1804.7147819830006,1804.7147819830006,1804.7147819830006,,,,,,274,f,23,2023-04-04_13h34.49.425,RL,2022.2.4,60.15972575580295,
0,0.3,0.225,0,83,83,83,,,,,,,,,,None,1809.05648922,1809.05648922,1809.05648922,1809.05648922,1809.05648922,1809.05648922,r,0.30738148799900955,1809.417674679,1809.417674679,1809.417674679,1809.417674679,1809.417674679,1809.417674679,1809.681863228001,1809.681863228001,1811.234728810001,1811.234728810001,1811.2747610269998,1811.2747610269998,1811.2747610269998,1811.2747610269998,1811.2747610269998,1811.2747610269998,1811.2747610269998,1811.2747610269998,1811.2747610269998,1811.2747610269998,1811.2747610269998,1811.2747610269998,1811.2747610269998,1811.2747610269998,1811.2747610269998,46,55,57,61,46,66,None,None,1813.795924154001,1813.795924154001,1813.795924154001,1813.795924154001,1813.795924154001,1813.795924154001,1813.795924154001,1813.795924154001,0.010113840999110835,1813.795924154001,50,50,[0.10875],[-0.2975],[1],[0],[0],[6.270420542001375],['tijiao'],-0.6,0,,[],[],[],[],[],[],[],1820.0918888200013,1820.0918888200013,1820.0918888200013,1820.0918888200013,5.9625,1.3827527000012196,1821.4967232,1823.4796579230006,,,,,,,,,,,,,,,,,,,,,274,f,23,2023-04-04_13h34.49.425,RL,2022.2.4,60.15972575580295,
1,-0.3,-0.225,0,84,84,84,,,,,,,,,,None,1823.4796579230006,1823.4796579230006,1823.4796579230006,1823.4796579230006,1823.4796579230006,1823.4796579230006,i,0.49053233899940096,1824.0177715669997,1824.0177715669997,1824.0177715669997,1824.0177715669997,1824.0177715669997,1824.0177715669997,1824.2862440560002,1824.2862440560002,1825.9652941980003,1825.9652941980003,1825.9863303889997,1825.9863303889997,1825.9863303889997,1825.9863303889997,1825.9863303889997,1825.9863303889997,1825.9863303889997,1825.9863303889997,1825.9863303889997,1825.9863303889997,1825.9863303889997,1825.9863303889997,1825.9863303889997,1825.9863303889997,1825.9863303889997,50,54,61,58,61,42,None,None,,,,,,,,,,,,,[],[],[],[],[],[],[],0.6,1,42,[-0.03625],[-0.295],[1],[0],[0],[8.332515865999085],['tijiao_random_2'],1836.8700147260006,1836.8700147260006,1836.8700147260006,1836.8700147260006,1.9999999999999998,8.39747632900071,1845.2853771720002,1846.891564343001,1828.5212578770006,1828.5212578770006,1828.5212578770006,1828.5212578770006,1828.5212578770006,1828.5212578770006,1828.5212578770006,1828.5212578770006,0.010256309000396868,1828.5212578770006,,,,,,,,,,,274,f,23,2023-04-04_13h34.49.425,RL,2022.2.4,60.15972575580295,
0,0.3,0.225,0,85,85,85,,,,,,,,,,None,1846.891564343001,1846.891564343001,1846.891564343001,1846.891564343001,1846.891564343001,1846.891564343001,j,0.3123584680015483,1847.2471209470004,1847.2471209470004,1847.2471209470004,1847.2471209470004,1847.2471209470004,1847.2471209470004,1847.5126010929998,1847.5126010929998,1848.7330471120003,1848.7330471120003,1848.7733763100005,1848.7733763100005,1848.7733763100005,1848.7733763100005,1848.7733763100005,1848.7733763100005,1848.7733763100005,1848.7733763100005,1848.7733763100005,1848.7733763100005,1848.7733763100005,1848.7733763100005,1848.7733763100005,1848.7733763100005,1848.7733763100005,48,58,56,60,60,32,7.0,3.0475947899994935,,,,,,,,,,,,,[],[],[],[],[],[],[],-0.2,2,,[],[],[],[],[],[],[],,,,,None,None,1854.3642410379998,1855.9793622020006,,,,,,,,,,,1851.2706236089998,1851.2706236089998,1851.2706236089998,1851.2706236089998,1851.2706236089998,,,,,,274,f,23,2023-04-04_13h34.49.425,RL,2022.2.4,60.15972575580295,
1,-0.3,-0.225,0,86,86,86,,,,,,,,,,None,1855.9793622020006,1855.9793622020006,1855.9793622020006,1855.9793622020006,1855.9793622020006,1855.9793622020006,r,0.39647224899999856,1856.4167605479997,1856.4167605479997,1856.4167605479997,1856.4167605479997,1856.4167605479997,1856.4167605479997,1856.6851297030007,1856.6851297030007,1858.072487544001,1858.072487544001,1858.1118024370007,1858.1118024370007,1858.1118024370007,1858.1118024370007,1858.1118024370007,1858.1118024370007,1858.1118024370007,1858.1118024370007,1858.1118024370007,1858.1118024370007,1858.1118024370007,1858.1118024370007,1858.1118024370007,1858.1118024370007,1858.1118024370007,52,62,60,55,52,26,None,None,1860.631483614001,1860.631483614001,1860.631483614001,1860.631483614001,1860.631483614001,1860.631483614001,1860.631483614001,1860.631483614001,0.008487803999742027,1860.631483614001,60,60,[0.0225],[-0.28875],[1],[0],[0],[14.384141914000793],['tijiao'],-0.2,0,,[],[],[],[],[],[],[],1875.0452767349998,1875.0452767349998,1875.0452767349998,1875.0452767349998,7.0,2.3862145350012725,1877.451678417001,1879.239541578001,,,,,,,,,,,,,,,,,,,,,274,f,23,2023-04-04_13h34.49.425,RL,2022.2.4,60.15972575580295,
0,0.3,0.225,0,87,87,87,,,,,,,,,,None,1879.239541578001,1879.239541578001,1879.239541578001,1879.239541578001,1879.239541578001,1879.239541578001,r,0.3043577500011452,1879.5949697209999,1879.5949697209999,1879.5949697209999,1879.5949697209999,1879.5949697209999,1879.5949697209999,1879.8662990000012,1879.8662990000012,1880.9828649030005,1880.9828649030005,1881.0225904130002,1881.0225904130002,1881.0225904130002,1881.0225904130002,1881.0225904130002,1881.0225904130002,1881.0225904130002,1881.0225904130002,1881.0225904130002,1881.0225904130002,1881.0225904130002,1881.0225904130002,1881.0225904130002,1881.0225904130002,1881.0225904130002,52,66,59,55,52,42,None,None,,,,,,,,,,,,,[],[],[],[],[],[],[],0.6,1,50,[0.00875],[-0.29625],[1],[0],[0],[10.824100687999817],['tijiao_random_2'],1894.3928643660001,1894.3928643660001,1894.3928643660001,1894.3928643660001,2.9625,4.725480961000358,1899.135230019001,1900.6669454120001,1883.544693504,1883.544693504,1883.544693504,1883.544693504,1883.544693504,1883.544693504,1883.544693504,1883.544693504,0.009980740000173682,1883.544693504,,,,,,,,,,,274,f,23,2023-04-04_13h34.49.425,RL,2022.2.4,60.15972575580295,
1,-0.3,-0.225,0,88,88,88,,,,,,,,,,None,1900.6669454120001,1900.6669454120001,1900.6669454120001,1900.6669454120001,1900.6669454120001,1900.6669454120001,r,0.46990992199971515,1901.1767788200013,1901.1767788200013,1901.1767788200013,1901.1767788200013,1901.1767788200013,1901.1767788200013,1901.4401088970008,1901.4401088970008,1903.1358836830004,1903.1358836830004,1903.1767732480002,1903.1767732480002,1903.1767732480002,1903.1767732480002,1903.1767732480002,1903.1767732480002,1903.1767732480002,1903.1767732480002,1903.1767732480002,1903.1767732480002,1903.1767732480002,1903.1767732480002,1903.1767732480002,1903.1767732480002,1903.1767732480002,55,73,55,64,55,24,7.0,3.9997322500003065,,,,,,,,,,,,,[],[],[],[],[],[],[],0.6,3,,[],[],[],[],[],[],[],,,,,None,None,1909.7245822240002,1911.438775468001,,,,,,,,,,,1905.679370672,1905.679370672,1905.679370672,1905.679370672,1905.679370672,,,,,,274,f,23,2023-04-04_13h34.49.425,RL,2022.2.4,60.15972575580295,
0,0.3,0.225,0,89,89,89,,,,,,,,,,None,1911.438775468001,1911.438775468001,1911.438775468001,1911.438775468001,1911.438775468001,1911.438775468001,j,0.3492168450011377,1911.8306762410011,1911.8306762410011,1911.8306762410011,1911.8306762410011,1911.8306762410011,1911.8306762410011,1912.1102316409997,1912.1102316409997,1913.8661994030008,1913.8661994030008,1913.9062926850002,1913.9062926850002,1913.9062926850002,1913.9062926850002,1913.9062926850002,1913.9062926850002,1913.9062926850002,1913.9062926850002,1913.9062926850002,1913.9062926850002,1913.9062926850002,1913.9062926850002,1913.9062926850002,1913.9062926850002,1913.9062926850002,54,66,60,63,63,43,6.0,5.935222938998777,,,,,,,,,,,,,[],[],[],[],[],[],[],-0.2,2,,[],[],[],[],[],[],[],,,,,None,None,1922.396625802001,1924.29472335,,,,,,,,,,,1916.417069653,1916.417069653,1916.417069653,1916.417069653,1916.417069653,,,,,,274,f,23,2023-04-04_13h34.49.425,RL,2022.2.4,60.15972575580295,
1,-0.3,-0.225,0,90,90,90,,,,,,,,,,None,1924.29472335,1924.29472335,1924.29472335,1924.29472335,1924.29472335,1924.29472335,i,0.47529511299944716,1924.816186760001,1924.816186760001,1924.816186760001,1924.816186760001,1924.816186760001,1924.816186760001,1925.0892897850008,1925.0892897850008,1926.1183164400009,1926.1183164400009,1926.155895629001,1926.155895629001,1926.155895629001,1926.155895629001,1926.155895629001,1926.155895629001,1926.155895629001,1926.155895629001,1926.155895629001,1926.155895629001,1926.155895629001,1926.155895629001,1926.155895629001,1926.155895629001,1926.155895629001,37,64,68,65,68,24,None,None,1928.6809954100008,1928.6809954100008,1928.6809954100008,1928.6809954100008,1928.6809954100008,1928.6809954100008,1928.6809954100008,1928.6809954100008,0.009179583999866736,1928.6809954100008,65,65,[0.07125],[-0.3225],[1],[0],[0],[11.690412869000284],['tijiao'],0.2,0,,[],[],[],[],[],[],[],1940.402963894001,1940.402963894001,1940.402963894001,1940.402963894001,9.0625,1.5922474380004132,1942.010481116,1943.7539769590003,,,,,,,,,,,,,,,,,,,,,274,f,23,2023-04-04_13h34.49.425,RL,2022.2.4,60.15972575580295,
0,0.3,0.225,0,91,91,91,,,,,,,,,,None,1943.7539769590003,1943.7539769590003,1943.7539769590003,1943.7539769590003,1943.7539769590003,1943.7539769590003,i,0.3690392409989727,1944.172253396,1944.172253396,1944.172253396,1944.172253396,1944.172253396,1944.172253396,1944.4447148580002,1944.4447148580002,1945.4751719470005,1945.4751719470005,1945.4997552060013,1945.4997552060013,1945.4997552060013,1945.4997552060013,1945.4997552060013,1945.4997552060013,1945.4997552060013,1945.4997552060013,1945.4997552060013,1945.4997552060013,1945.4997552060013,1945.4997552060013,1945.4997552060013,1945.4997552060013,1945.4997552060013,38,68,64,57,64,47,None,None,,,,,,,,,,,,,[],[],[],[],[],[],[],0.2,1,64,[0.1075],[-0.315],[1],[0],[0],[7.929042460000346],['tijiao_random_2'],1955.9751147650004,1955.9751147650004,1955.9751147650004,1955.9751147650004,11,0.795379156999843,1956.7873868940005,1958.4772943019998,1948.0268239260004,1948.0268239260004,1948.0268239260004,1948.0268239260004,1948.0268239260004,1948.0268239260004,1948.0268239260004,1948.0268239260004,0.010309382001651102,1948.0268239260004,,,,,,,,,,,274,f,23,2023-04-04_13h34.49.425,RL,2022.2.4,60.15972575580295,
