bandit0,black_x_pos_random,black_y_pos_random,trials.thisRepN,trials.thisTrialN,trials.thisN,trials.thisIndex,instru_img1.started,instru_resp.started,instru_resp.keys,instru_resp.rt,instru_img2.started,instru_resp2.started,instru_resp2.keys,instru_resp2.rt,fixbefore_2.started,rest_response.keys,red.started,green.started,yellow.started,blue.started,choose_bandit.started,Fixation.started,choose_bandit.keys,choose_bandit.rt,black.started,red_2.started,green_2.started,yellow_2.started,blue_2.started,fixation_2.started,docs.started,wait_playerB.started,docs.stopped,wait_playerB.stopped,black.stopped,red_2.stopped,green_2.stopped,yellow_2.stopped,blue_2.stopped,fixation_2.stopped,black_com.started,reward_sub.started,palyerb.started,reward__sub.started,compare.started,red_compare.started,green_com.started,yellow_com.started,blue_com.started,rewardyellow,rewardred,rewardblue,rewardgreen,subchoose,playerb,slider.response,slider.rt,expectself.text,value_expect_self,tijiao_click.x,tijiao_click.y,tijiao_click.leftButton,tijiao_click.midButton,tijiao_click.rightButton,tijiao_click.time,tijiao_click.clicked_name,random_whicharm,whether_ask,jiantou_random.started,expect_red.started,expect_green.started,expect_yellow.started,expect_blue.started,expect_random_2.started,expect_random_3.started,tijiao_random_2.started,tijiao_random.started,check_2.started,expect_random_3.text,tijiao_random.x,tijiao_random.y,tijiao_random.leftButton,tijiao_random.midButton,tijiao_random.rightButton,tijiao_random.time,tijiao_random.clicked_name,slider_2.started,image_7.started,confi.started,notconfi.started,slider_2.response,slider_2.rt,intertrialfix.started,intertrialfix.stopped,expectself.started,expect_self_black.started,expect_self.started,expect_self_red.started,expect_self_green.started,expect_self_yellow.started,expect_self_blue.started,tijiao.started,tijiao_click.started,check.started,image_3.started,slider.started,text.started,image_4.started,image_5.started,bigx.started,bigx.stopped,rest_image.started,rest_response.started,rest_response.rt,red.stopped,green.stopped,yellow.stopped,blue.stopped,choose_bandit.stopped,Fixation.stopped,participant,Gender,Age,date,expName,psychopyVersion,frameRate,
,,,,,,,31.60343482999815,31.60343482999815,space,6.435953735999647,,,,,,,,,,,,,,,,,,,,,,,,,,,,,,,,,,,,,,,,,,,,,,,,,,,,,,,,,,,,,,,,,,,,,,,,,,,,,,,,,,,,,,,,,,,,,,,,,,,,,,,,,,,,,,,275,f,22,2023-04-04_14h48.22.406,RL,2022.2.4,59.11880803551007,
,,,,,,,,,,,38.079957461999584,38.079957461999584,s,13.95925376300147,,,,,,,,,,,,,,,,,,,,,,,,,,,,,,,,,,,,,,,,,,,,,,,,,,,,,,,,,,,,,,,,,,,,,,,,,,,,,,,,,,,,,,,,,,,,,,,,,,,,,,,,,,,275,f,22,2023-04-04_14h48.22.406,RL,2022.2.4,59.11880803551007,
1,-0.3,-0.225,0,0,0,0,,,,,,,,,52.07413882900073,None,53.118677711998316,53.118677711998316,53.118677711998316,53.118677711998316,53.118677711998316,53.118677711998316,i,1.001729694999085,54.20176438499766,54.20176438499766,54.20176438499766,54.20176438499766,54.20176438499766,54.20176438499766,54.45637396099846,54.45637396099846,56.10812761499983,56.10812761499983,56.167634943998564,56.167634943998564,56.167634943998564,56.167634943998564,56.167634943998564,56.167634943998564,56.167634943998564,56.167634943998564,56.167634943998564,56.167634943998564,56.167634943998564,56.167634943998564,56.167634943998564,56.167634943998564,56.167634943998564,41,61,65,30,65,46,None,None,,,[],[],[],[],[],[],[],0.2,1,58.794131237998954,58.794131237998954,58.794131237998954,58.794131237998954,58.794131237998954,58.794131237998954,58.794131237998954,58.794131237998954,0.01834201000019675,58.794131237998954,60,[0.03375],[-0.30125],[1],[0],[0],[8.123215180999978],['tijiao_random_2'],67.04278819699903,67.04278819699903,67.04278819699903,67.04278819699903,9.0875,2.8550040859990986,69.90060928299863,71.82277710999915,,,,,,,,,,,,,,,,,,,,,,,,,,,275,f,22,2023-04-04_14h48.22.406,RL,2022.2.4,59.11880803551007,
0,0.3,0.225,0,1,1,1,,,,,,,,,,None,71.82277710999915,71.82277710999915,71.82277710999915,71.82277710999915,71.82277710999915,71.82277710999915,f,1.0208784820024448,72.89568537800005,72.89568537800005,72.89568537800005,72.89568537800005,72.89568537800005,72.89568537800005,73.16369196199958,73.16369196199958,74.1490784689995,74.1490784689995,74.19330303099923,74.19330303099923,74.19330303099923,74.19330303099923,74.19330303099923,74.19330303099923,74.19330303099923,74.19330303099923,74.19330303099923,74.19330303099923,74.19330303099923,74.19330303099923,74.19330303099923,74.19330303099923,74.19330303099923,35,51,72,36,51,58,None,None,50,50,[0.09625],[-0.29875],[1],[0],[0],[5.395563218000461],['tijiao'],0.2,0,,,,,,,,,,,,[],[],[],[],[],[],[],82.14700693199848,82.14700693199848,82.14700693199848,82.14700693199848,9.0125,3.261963853998168,85.42336330100079,87.21376315899761,76.71808142900045,76.71808142900045,76.71808142900045,76.71808142900045,76.71808142900045,76.71808142900045,76.71808142900045,76.71808142900045,0.008724067000002833,76.71808142900045,,,,,,,,,,,,,,,,,275,f,22,2023-04-04_14h48.22.406,RL,2022.2.4,59.11880803551007,
1,-0.3,-0.225,0,2,2,2,,,,,,,,,,None,87.21376315899761,87.21376315899761,87.21376315899761,87.21376315899761,87.21376315899761,87.21376315899761,j,0.6975316520001797,87.95041974199921,87.95041974199921,87.95041974199921,87.95041974199921,87.95041974199921,87.95041974199921,88.2196816680007,88.2196816680007,89.63910704500086,89.63910704500086,89.68088672799786,89.68088672799786,89.68088672799786,89.68088672799786,89.68088672799786,89.68088672799786,89.68088672799786,89.68088672799786,89.68088672799786,89.68088672799786,89.68088672799786,89.68088672799786,89.68088672799786,89.68088672799786,89.68088672799786,36,58,65,42,42,41,None,None,40,40,[0.0325],[-0.2625],[1],[0],[0],[5.5350164550000045],['tijiao'],-0.6,0,,,,,,,,,,,,[],[],[],[],[],[],[],97.76269461300035,97.76269461300035,97.76269461300035,97.76269461300035,8.0875,1.6409412079992762,99.4210580359977,101.07052133599791,92.19402825299767,92.19402825299767,92.19402825299767,92.19402825299767,92.19402825299767,92.19402825299767,92.19402825299767,92.19402825299767,0.009028934000525624,92.19402825299767,,,,,,,,,,,,,,,,,275,f,22,2023-04-04_14h48.22.406,RL,2022.2.4,59.11880803551007,
0,0.3,0.225,0,3,3,3,,,,,,,,,,None,101.07052133599791,101.07052133599791,101.07052133599791,101.07052133599791,101.07052133599791,101.07052133599791,r,0.40071268799874815,101.52301324899963,101.52301324899963,101.52301324899963,101.52301324899963,101.52301324899963,101.52301324899963,101.79246502399837,101.79246502399837,102.86353205399791,102.86353205399791,102.90618606299904,102.90618606299904,102.90618606299904,102.90618606299904,102.90618606299904,102.90618606299904,102.90618606299904,102.90618606299904,102.90618606299904,102.90618606299904,102.90618606299904,102.90618606299904,102.90618606299904,102.90618606299904,102.90618606299904,30,58,74,46,30,60,4.0,1.77086753399999,,,[],[],[],[],[],[],[],0.6,3,,,,,,,,,,,,[],[],[],[],[],[],[],,,,,None,None,107.22870248899926,109.19131071299853,,,,,,,,,,,105.39857283699894,105.39857283699894,105.39857283699894,105.39857283699894,105.39857283699894,,,,,,,,,,,,275,f,22,2023-04-04_14h48.22.406,RL,2022.2.4,59.11880803551007,
1,-0.3,-0.225,0,4,4,4,,,,,,,,,,None,109.19131071299853,109.19131071299853,109.19131071299853,109.19131071299853,109.19131071299853,109.19131071299853,i,1.1671907099989767,110.41175748800015,110.41175748800015,110.41175748800015,110.41175748800015,110.41175748800015,110.41175748800015,110.6804145549977,110.6804145549977,112.41685167099786,112.41685167099786,112.45700193800076,112.45700193800076,112.45700193800076,112.45700193800076,112.45700193800076,112.45700193800076,112.45700193800076,112.45700193800076,112.45700193800076,112.45700193800076,112.45700193800076,112.45700193800076,112.45700193800076,112.45700193800076,112.45700193800076,19,58,64,38,64,48,None,None,80,80,[0.1025],[-0.32625],[1],[0],[0],[5.450361302999227],['tijiao'],-0.6,0,,,,,,,,,,,,[],[],[],[],[],[],[],120.4572855769984,120.4572855769984,120.4572855769984,120.4572855769984,8.9375,2.5716747139995277,123.04427417999977,124.99809394999829,114.9713006130005,114.9713006130005,114.9713006130005,114.9713006130005,114.9713006130005,114.9713006130005,114.9713006130005,114.9713006130005,0.009038170999701833,114.9713006130005,,,,,,,,,,,,,,,,,275,f,22,2023-04-04_14h48.22.406,RL,2022.2.4,59.11880803551007,
0,0.3,0.225,0,5,5,5,,,,,,,,,,None,124.99809394999829,124.99809394999829,124.99809394999829,124.99809394999829,124.99809394999829,124.99809394999829,r,0.48097428099936224,125.51759286599918,125.51759286599918,125.51759286599918,125.51759286599918,125.51759286599918,125.51759286599918,125.78663484500066,125.78663484500066,126.92189893500108,126.92189893500108,126.9642386509986,126.9642386509986,126.9642386509986,126.9642386509986,126.9642386509986,126.9642386509986,126.9642386509986,126.9642386509986,126.9642386509986,126.9642386509986,126.9642386509986,126.9642386509986,126.9642386509986,126.9642386509986,126.9642386509986,27,58,63,35,27,62,None,None,,,[],[],[],[],[],[],[],-0.2,1,129.49021845400057,129.49021845400057,129.49021845400057,129.49021845400057,129.49021845400057,129.49021845400057,129.49021845400057,129.49021845400057,0.010051949000626337,129.49021845400057,40,[0.02125],[-0.2775],[1],[0],[0],[6.040282959998876],['tijiao_random_2'],135.54699871900084,135.54699871900084,135.54699871900084,135.54699871900084,8.0875,2.1715353809995577,137.7409153669978,139.47152052099773,,,,,,,,,,,,,,,,,,,,,,,,,,,275,f,22,2023-04-04_14h48.22.406,RL,2022.2.4,59.11880803551007,
1,-0.3,-0.225,0,6,6,6,,,,,,,,,,None,139.47152052099773,139.47152052099773,139.47152052099773,139.47152052099773,139.47152052099773,139.47152052099773,i,0.96470810000028,140.47015369400106,140.47015369400106,140.47015369400106,140.47015369400106,140.47015369400106,140.47015369400106,140.74468275400068,140.74468275400068,142.48198450699783,142.48198450699783,142.52133146599954,142.52133146599954,142.52133146599954,142.52133146599954,142.52133146599954,142.52133146599954,142.52133146599954,142.52133146599954,142.52133146599954,142.52133146599954,142.52133146599954,142.52133146599954,142.52133146599954,142.52133146599954,142.52133146599954,29,53,81,46,81,51,7.0,2.7828387040026428,,,[],[],[],[],[],[],[],0.6,3,,,,,,,,,,,,[],[],[],[],[],[],[],,,,,None,None,147.86115218199848,149.51021871500052,,,,,,,,,,,145.03378328100007,145.03378328100007,145.03378328100007,145.03378328100007,145.03378328100007,,,,,,,,,,,,275,f,22,2023-04-04_14h48.22.406,RL,2022.2.4,59.11880803551007,
0,0.3,0.225,0,7,7,7,,,,,,,,,,None,149.51021871500052,149.51021871500052,149.51021871500052,149.51021871500052,149.51021871500052,149.51021871500052,i,1.051449152000714,150.61163653900076,150.61163653900076,150.61163653900076,150.61163653900076,150.61163653900076,150.61163653900076,150.88264005100064,150.88264005100064,151.84662708500036,151.84662708500036,151.86986196100042,151.86986196100042,151.86986196100042,151.86986196100042,151.86986196100042,151.86986196100042,151.86986196100042,151.86986196100042,151.86986196100042,151.86986196100042,151.86986196100042,151.86986196100042,151.86986196100042,151.86986196100042,151.86986196100042,35,61,75,47,75,57,7.0,1.1825519879967032,,,[],[],[],[],[],[],[],-0.2,2,,,,,,,,,,,,[],[],[],[],[],[],[],,,,,None,None,155.59905976499795,157.42735427400112,,,,,,,,,,,154.37208054800067,154.37208054800067,154.37208054800067,154.37208054800067,154.37208054800067,,,,,,,,,,,,275,f,22,2023-04-04_14h48.22.406,RL,2022.2.4,59.11880803551007,
1,-0.3,-0.225,0,8,8,8,,,,,,,,,,None,157.42735427400112,157.42735427400112,157.42735427400112,157.42735427400112,157.42735427400112,157.42735427400112,j,0.38450961600028677,157.86468551600046,157.86468551600046,157.86468551600046,157.86468551600046,157.86468551600046,157.86468551600046,158.13531261200114,158.13531261200114,159.23285257099997,159.23285257099997,159.2537615049987,159.2537615049987,159.2537615049987,159.2537615049987,159.2537615049987,159.2537615049987,159.2537615049987,159.2537615049987,159.2537615049987,159.2537615049987,159.2537615049987,159.2537615049987,159.2537615049987,159.2537615049987,159.2537615049987,31,62,80,39,39,48,None,None,,,[],[],[],[],[],[],[],-0.6,1,161.7884317019998,161.7884317019998,161.7884317019998,161.7884317019998,161.7884317019998,161.7884317019998,161.7884317019998,161.7884317019998,0.010005235999415163,161.7884317019998,40,[0.01625],[-0.3275],[1],[0],[0],[6.053473461000976],['tijiao_random_2'],167.85611038199931,167.85611038199931,167.85611038199931,167.85611038199931,8.1375,2.566749362002156,170.44742222700006,172.05457931099954,,,,,,,,,,,,,,,,,,,,,,,,,,,275,f,22,2023-04-04_14h48.22.406,RL,2022.2.4,59.11880803551007,
0,0.3,0.225,0,9,9,9,,,,,,,,,,None,172.05457931099954,172.05457931099954,172.05457931099954,172.05457931099954,172.05457931099954,172.05457931099954,r,0.34077524099848233,172.44278688000122,172.44278688000122,172.44278688000122,172.44278688000122,172.44278688000122,172.44278688000122,172.7095887200012,172.7095887200012,174.69654317599998,174.69654317599998,174.73702463299924,174.73702463299924,174.73702463299924,174.73702463299924,174.73702463299924,174.73702463299924,174.73702463299924,174.73702463299924,174.73702463299924,174.73702463299924,174.73702463299924,174.73702463299924,174.73702463299924,174.73702463299924,174.73702463299924,33,58,86,37,33,59,7.0,1.6129626410001947,,,[],[],[],[],[],[],[],0.6,3,,,,,,,,,,,,[],[],[],[],[],[],[],,,,,None,None,178.89377504299773,180.79117270599818,,,,,,,,,,,177.23826758499854,177.23826758499854,177.23826758499854,177.23826758499854,177.23826758499854,,,,,,,,,,,,275,f,22,2023-04-04_14h48.22.406,RL,2022.2.4,59.11880803551007,
1,-0.3,-0.225,0,10,10,10,,,,,,,,,,None,180.79117270599818,180.79117270599818,180.79117270599818,180.79117270599818,180.79117270599818,180.79117270599818,r,0.8694046509990585,181.7106226199976,181.7106226199976,181.7106226199976,181.7106226199976,181.7106226199976,181.7106226199976,181.98123438499897,181.98123438499897,183.68653180699766,183.68653180699766,183.7270682649978,183.7270682649978,183.7270682649978,183.7270682649978,183.7270682649978,183.7270682649978,183.7270682649978,183.7270682649978,183.7270682649978,183.7270682649978,183.7270682649978,183.7270682649978,183.7270682649978,183.7270682649978,183.7270682649978,32,59,70,37,32,34,7.0,2.882187358001829,,,[],[],[],[],[],[],[],-0.2,3,,,,,,,,,,,,[],[],[],[],[],[],[],,,,,None,None,189.14812873499977,191.01152889399964,,,,,,,,,,,186.22093957800098,186.22093957800098,186.22093957800098,186.22093957800098,186.22093957800098,,,,,,,,,,,,275,f,22,2023-04-04_14h48.22.406,RL,2022.2.4,59.11880803551007,
0,0.3,0.225,0,11,11,11,,,,,,,,,,None,191.01152889399964,191.01152889399964,191.01152889399964,191.01152889399964,191.01152889399964,191.01152889399964,f,0.47573986900169984,191.53310509999937,191.53310509999937,191.53310509999937,191.53310509999937,191.53310509999937,191.53310509999937,191.80182451499786,191.80182451499786,193.7895031900007,193.7895031900007,193.8307710609988,193.8307710609988,193.8307710609988,193.8307710609988,193.8307710609988,193.8307710609988,193.8307710609988,193.8307710609988,193.8307710609988,193.8307710609988,193.8307710609988,193.8307710609988,193.8307710609988,193.8307710609988,193.8307710609988,26,57,72,34,57,53,None,None,,,[],[],[],[],[],[],[],0.6,1,196.35122252099973,196.35122252099973,196.35122252099973,196.35122252099973,196.35122252099973,196.35122252099973,196.35122252099973,196.35122252099973,0.010373013003118103,196.35122252099973,60,[0.0775],[-0.30625],[1],[0],[0],[6.896402230999229],['tijiao_random_2'],203.26982284000042,203.26982284000042,203.26982284000042,203.26982284000042,9.0,2.5145995909988414,205.80831141599992,207.63679484000022,,,,,,,,,,,,,,,,,,,,,,,,,,,275,f,22,2023-04-04_14h48.22.406,RL,2022.2.4,59.11880803551007,
1,-0.3,-0.225,0,12,12,12,,,,,,,,,,None,207.63679484000022,207.63679484000022,207.63679484000022,207.63679484000022,207.63679484000022,207.63679484000022,j,1.0879712679998192,208.7732361399976,208.7732361399976,208.7732361399976,208.7732361399976,208.7732361399976,208.7732361399976,209.04355788699831,209.04355788699831,210.23885653699836,210.23885653699836,210.2788385749991,210.2788385749991,210.2788385749991,210.2788385749991,210.2788385749991,210.2788385749991,210.2788385749991,210.2788385749991,210.2788385749991,210.2788385749991,210.2788385749991,210.2788385749991,210.2788385749991,210.2788385749991,210.2788385749991,28,49,72,28,28,38,4.0,2.026517212001636,,,[],[],[],[],[],[],[],0.6,2,,,,,,,,,,,,[],[],[],[],[],[],[],,,,,None,None,214.8645786699999,216.42492048499844,,,,,,,,,,,212.78973849699832,212.78973849699832,212.78973849699832,212.78973849699832,212.78973849699832,,,,,,,,,,,,275,f,22,2023-04-04_14h48.22.406,RL,2022.2.4,59.11880803551007,
0,0.3,0.225,0,13,13,13,,,,,,,,,,None,216.42492048499844,216.42492048499844,216.42492048499844,216.42492048499844,216.42492048499844,216.42492048499844,f,0.8885377350015915,217.368338029999,217.368338029999,217.368338029999,217.368338029999,217.368338029999,217.368338029999,217.64779237699986,217.64779237699986,218.97164048299965,218.97164048299965,218.9930201879979,218.9930201879979,218.9930201879979,218.9930201879979,218.9930201879979,218.9930201879979,218.9930201879979,218.9930201879979,218.9930201879979,218.9930201879979,218.9930201879979,218.9930201879979,218.9930201879979,218.9930201879979,218.9930201879979,38,47,81,28,47,54,6.0,2.1666981170019426,,,[],[],[],[],[],[],[],-0.2,3,,,,,,,,,,,,[],[],[],[],[],[],[],,,,,None,None,223.71642264299953,225.71247721499822,,,,,,,,,,,221.50584046199947,221.50584046199947,221.50584046199947,221.50584046199947,221.50584046199947,,,,,,,,,,,,275,f,22,2023-04-04_14h48.22.406,RL,2022.2.4,59.11880803551007,
1,-0.3,-0.225,0,14,14,14,,,,,,,,,,None,225.71247721499822,225.71247721499822,225.71247721499822,225.71247721499822,225.71247721499822,225.71247721499822,i,0.9531732610012114,226.7125526790005,226.7125526790005,226.7125526790005,226.7125526790005,226.7125526790005,226.7125526790005,226.98629131000052,226.98629131000052,228.15513350299807,228.15513350299807,228.17870554699766,228.17870554699766,228.17870554699766,228.17870554699766,228.17870554699766,228.17870554699766,228.17870554699766,228.17870554699766,228.17870554699766,228.17870554699766,228.17870554699766,228.17870554699766,228.17870554699766,228.17870554699766,228.17870554699766,27,54,83,40,83,52,None,None,,,[],[],[],[],[],[],[],0.6,1,230.70748673799972,230.70748673799972,230.70748673799972,230.70748673799972,230.70748673799972,230.70748673799972,230.70748673799972,230.70748673799972,0.010182566998992115,230.70748673799972,30,[0.01],[-0.275],[1],[0],[0],[5.850220675998571],['tijiao_random_2'],236.57181730400043,236.57181730400043,236.57181730400043,236.57181730400043,8.025,2.008037871997658,238.60036734299865,240.40315266299876,,,,,,,,,,,,,,,,,,,,,,,,,,,275,f,22,2023-04-04_14h48.22.406,RL,2022.2.4,59.11880803551007,
0,0.3,0.225,0,15,15,15,,,,,,,,,,None,240.40315266299876,240.40315266299876,240.40315266299876,240.40315266299876,240.40315266299876,240.40315266299876,i,0.5362386619999597,240.99005646099977,240.99005646099977,240.99005646099977,240.99005646099977,240.99005646099977,240.99005646099977,241.2560000150006,241.2560000150006,242.2294894609986,242.2294894609986,242.26878907799983,242.26878907799983,242.26878907799983,242.26878907799983,242.26878907799983,242.26878907799983,242.26878907799983,242.26878907799983,242.26878907799983,242.26878907799983,242.26878907799983,242.26878907799983,242.26878907799983,242.26878907799983,242.26878907799983,29,57,85,38,85,50,7.0,1.997213026999816,,,[],[],[],[],[],[],[],0.6,3,,,,,,,,,,,,[],[],[],[],[],[],[],,,,,None,None,246.80807398199977,248.75678765599878,,,,,,,,,,,244.76506626099945,244.76506626099945,244.76506626099945,244.76506626099945,244.76506626099945,,,,,,,,,,,,275,f,22,2023-04-04_14h48.22.406,RL,2022.2.4,59.11880803551007,
1,-0.3,-0.225,0,16,16,16,,,,,,,,,,None,248.75678765599878,248.75678765599878,248.75678765599878,248.75678765599878,248.75678765599878,248.75678765599878,j,0.5996339750017796,249.41326794799897,249.41326794799897,249.41326794799897,249.41326794799897,249.41326794799897,249.41326794799897,249.68022120499882,249.68022120499882,251.43195358500088,251.43195358500088,251.47257992699815,251.47257992699815,251.47257992699815,251.47257992699815,251.47257992699815,251.47257992699815,251.47257992699815,251.47257992699815,251.47257992699815,251.47257992699815,251.47257992699815,251.47257992699815,251.47257992699815,251.47257992699815,251.47257992699815,20,53,79,33,33,58,None,None,,,[],[],[],[],[],[],[],0.2,1,254.01427260999844,254.01427260999844,254.01427260999844,254.01427260999844,254.01427260999844,254.01427260999844,254.01427260999844,254.01427260999844,0.009989268000936136,254.01427260999844,80,[0.03125],[-0.3025],[1],[0],[0],[5.495469850000518],['tijiao_random_2'],259.52586520000114,259.52586520000114,259.52586520000114,259.52586520000114,10.25,2.2914270399996894,261.83597407699926,263.52876040000046,,,,,,,,,,,,,,,,,,,,,,,,,,,275,f,22,2023-04-04_14h48.22.406,RL,2022.2.4,59.11880803551007,
0,0.3,0.225,0,17,17,17,,,,,,,,,,None,263.52876040000046,263.52876040000046,263.52876040000046,263.52876040000046,263.52876040000046,263.52876040000046,f,0.7343806830031099,264.31622801999765,264.31622801999765,264.31622801999765,264.31622801999765,264.31622801999765,264.31622801999765,264.5859225489985,264.5859225489985,265.83199314800004,265.83199314800004,265.87726745599866,265.87726745599866,265.87726745599866,265.87726745599866,265.87726745599866,265.87726745599866,265.87726745599866,265.87726745599866,265.87726745599866,265.87726745599866,265.87726745599866,265.87726745599866,265.87726745599866,265.87726745599866,265.87726745599866,27,46,82,44,46,63,None,None,30,30,[0.07625],[-0.285],[1],[0],[0],[6.543697674002033],['tijiao'],-0.6,0,,,,,,,,,,,,[],[],[],[],[],[],[],274.9684161019977,274.9684161019977,274.9684161019977,274.9684161019977,9.95,1.9159812969992345,276.90622113599966,278.8532273979981,268.4011188689983,268.4011188689983,268.4011188689983,268.4011188689983,268.4011188689983,268.4011188689983,268.4011188689983,268.4011188689983,0.009173465001367731,268.4011188689983,,,,,,,,,,,,,,,,,275,f,22,2023-04-04_14h48.22.406,RL,2022.2.4,59.11880803551007,
1,-0.3,-0.225,0,18,18,18,,,,,,,,,,None,278.8532273979981,278.8532273979981,278.8532273979981,278.8532273979981,278.8532273979981,278.8532273979981,j,0.6118935240010615,279.5077405789998,279.5077405789998,279.5077405789998,279.5077405789998,279.5077405789998,279.5077405789998,279.774985404998,279.774985404998,281.1792139950012,281.1792139950012,281.22046420399784,281.22046420399784,281.22046420399784,281.22046420399784,281.22046420399784,281.22046420399784,281.22046420399784,281.22046420399784,281.22046420399784,281.22046420399784,281.22046420399784,281.22046420399784,281.22046420399784,281.22046420399784,281.22046420399784,24,47,76,37,37,63,7.0,1.3623017520003486,,,[],[],[],[],[],[],[],-0.2,3,,,,,,,,,,,,[],[],[],[],[],[],[],,,,,None,None,285.12697211699924,286.85801220699796,,,,,,,,,,,283.7187533360011,283.7187533360011,283.7187533360011,283.7187533360011,283.7187533360011,,,,,,,,,,,,275,f,22,2023-04-04_14h48.22.406,RL,2022.2.4,59.11880803551007,
0,0.3,0.225,0,19,19,19,,,,,,,,,,None,286.85801220699796,286.85801220699796,286.85801220699796,286.85801220699796,286.85801220699796,286.85801220699796,f,1.154744669001957,288.06144951999886,288.06144951999886,288.06144951999886,288.06144951999886,288.06144951999886,288.06144951999886,288.3422586759989,288.3422586759989,289.34952107999925,289.34952107999925,289.3720430539979,289.3720430539979,289.3720430539979,289.3720430539979,289.3720430539979,289.3720430539979,289.3720430539979,289.3720430539979,289.3720430539979,289.3720430539979,289.3720430539979,289.3720430539979,289.3720430539979,289.3720430539979,289.3720430539979,27,54,85,33,54,60,7.0,1.779130400998838,,,[],[],[],[],[],[],[],-0.2,2,,,,,,,,,,,,[],[],[],[],[],[],[],,,,,None,None,293.69472440699974,295.2288154380003,,,,,,,,,,,291.8730576449998,291.8730576449998,291.8730576449998,291.8730576449998,291.8730576449998,,,,,,,,,,,,275,f,22,2023-04-04_14h48.22.406,RL,2022.2.4,59.11880803551007,
1,-0.3,-0.225,0,20,20,20,,,,,,,,,,None,295.2288154380003,295.2288154380003,295.2288154380003,295.2288154380003,295.2288154380003,295.2288154380003,r,0.4624422390006657,295.73119190099897,295.73119190099897,295.73119190099897,295.73119190099897,295.73119190099897,295.73119190099897,296.0046043580005,296.0046043580005,297.0544140109996,297.0544140109996,297.094342755001,297.094342755001,297.094342755001,297.094342755001,297.094342755001,297.094342755001,297.094342755001,297.094342755001,297.094342755001,297.094342755001,297.094342755001,297.094342755001,297.094342755001,297.094342755001,297.094342755001,34,59,81,38,34,60,None,None,45,45,[0.0825],[-0.3],[1],[0],[0],[5.908412405999115],['tijiao'],-0.6,0,,,,,,,,,,,,[],[],[],[],[],[],[],305.55676375999974,305.55676375999974,305.55676375999974,305.55676375999974,10.0,1.3658645489995251,306.9432594469981,308.7191565719986,299.61554656500084,299.61554656500084,299.61554656500084,299.61554656500084,299.61554656500084,299.61554656500084,299.61554656500084,299.61554656500084,0.010092754000652349,299.61554656500084,,,,,,,,,,,,,,,,,275,f,22,2023-04-04_14h48.22.406,RL,2022.2.4,59.11880803551007,
0,0.3,0.225,0,21,21,21,,,,,,,,,,None,308.7191565719986,308.7191565719986,308.7191565719986,308.7191565719986,308.7191565719986,308.7191565719986,f,0.36542432799978997,309.13786475300003,309.13786475300003,309.13786475300003,309.13786475300003,309.13786475300003,309.13786475300003,309.407424787998,309.407424787998,310.56158892500025,310.56158892500025,310.6010968679984,310.6010968679984,310.6010968679984,310.6010968679984,310.6010968679984,310.6010968679984,310.6010968679984,310.6010968679984,310.6010968679984,310.6010968679984,310.6010968679984,310.6010968679984,310.6010968679984,310.6010968679984,310.6010968679984,28,53,70,29,53,60,6.0,1.6654745659980108,,,[],[],[],[],[],[],[],-0.6,3,,,,,,,,,,,,[],[],[],[],[],[],[],,,,,None,None,314.822066454999,316.8221086379999,,,,,,,,,,,313.11123728799794,313.11123728799794,313.11123728799794,313.11123728799794,313.11123728799794,,,,,,,,,,,,275,f,22,2023-04-04_14h48.22.406,RL,2022.2.4,59.11880803551007,
1,-0.3,-0.225,0,22,22,22,,,,,,,,,,None,316.8221086379999,316.8221086379999,316.8221086379999,316.8221086379999,316.8221086379999,316.8221086379999,j,0.41999992999990354,317.2925002169977,317.2925002169977,317.2925002169977,317.2925002169977,317.2925002169977,317.2925002169977,317.56166327499886,317.56166327499886,318.4629078750004,318.4629078750004,318.5012241859986,318.5012241859986,318.5012241859986,318.5012241859986,318.5012241859986,318.5012241859986,318.5012241859986,318.5012241859986,318.5012241859986,318.5012241859986,318.5012241859986,318.5012241859986,318.5012241859986,318.5012241859986,318.5012241859986,37,57,70,30,30,61,None,None,35,35,[0.0475],[-0.275],[1],[0],[0],[6.932294499998534],['tijiao'],0.6,0,,,,,,,,,,,,[],[],[],[],[],[],[],327.9843721199977,327.9843721199977,327.9843721199977,327.9843721199977,11.0,1.89627745100006,329.90082613999766,331.6966098390003,321.0253814940006,321.0253814940006,321.0253814940006,321.0253814940006,321.0253814940006,321.0253814940006,321.0253814940006,321.0253814940006,0.009152913000434637,321.0253814940006,,,,,,,,,,,,,,,,,275,f,22,2023-04-04_14h48.22.406,RL,2022.2.4,59.11880803551007,
0,0.3,0.225,0,23,23,23,,,,,,,,,,None,331.6966098390003,331.6966098390003,331.6966098390003,331.6966098390003,331.6966098390003,331.6966098390003,j,0.5506325619971904,332.2994767329983,332.2994767329983,332.2994767329983,332.2994767329983,332.2994767329983,332.2994767329983,332.5688047709991,332.5688047709991,333.7860766320009,333.7860766320009,333.82614983799795,333.82614983799795,333.82614983799795,333.82614983799795,333.82614983799795,333.82614983799795,333.82614983799795,333.82614983799795,333.82614983799795,333.82614983799795,333.82614983799795,333.82614983799795,333.82614983799795,333.82614983799795,333.82614983799795,34,65,73,26,26,55,6.0,1.7637125990004279,,,[],[],[],[],[],[],[],-0.2,3,,,,,,,,,,,,[],[],[],[],[],[],[],,,,,None,None,338.1355214369978,340.1337031059993,,,,,,,,,,,336.3269557300009,336.3269557300009,336.3269557300009,336.3269557300009,336.3269557300009,,,,,,,,,,,,275,f,22,2023-04-04_14h48.22.406,RL,2022.2.4,59.11880803551007,
1,-0.3,-0.225,0,24,24,24,,,,,,,,,,None,340.1337031059993,340.1337031059993,340.1337031059993,340.1337031059993,340.1337031059993,340.1337031059993,r,0.48087662599937175,340.66874340399954,340.66874340399954,340.66874340399954,340.66874340399954,340.66874340399954,340.66874340399954,340.94383993099837,340.94383993099837,342.38480542400066,342.38480542400066,342.4053973009977,342.4053973009977,342.4053973009977,342.4053973009977,342.4053973009977,342.4053973009977,342.4053973009977,342.4053973009977,342.4053973009977,342.4053973009977,342.4053973009977,342.4053973009977,342.4053973009977,342.4053973009977,342.4053973009977,29,57,63,22,29,57,None,None,,,[],[],[],[],[],[],[],-0.2,1,344.94543332000103,344.94543332000103,344.94543332000103,344.94543332000103,344.94543332000103,344.94543332000103,344.94543332000103,344.94543332000103,0.009771218999958364,344.94543332000103,40,[0.01125],[-0.305],[1],[0],[0],[6.861431884000922],['tijiao_random_2'],351.82521446600003,351.82521446600003,351.82521446600003,351.82521446600003,10.087499999999999,1.1098947690006753,352.95083465599964,354.6401033580005,,,,,,,,,,,,,,,,,,,,,,,,,,,275,f,22,2023-04-04_14h48.22.406,RL,2022.2.4,59.11880803551007,
0,0.3,0.225,0,25,25,25,,,,,,,,,,None,354.6401033580005,354.6401033580005,354.6401033580005,354.6401033580005,354.6401033580005,354.6401033580005,f,0.39615024200247717,355.0769402799997,355.0769402799997,355.0769402799997,355.0769402799997,355.0769402799997,355.0769402799997,355.3460962120007,355.3460962120007,356.20036756400077,356.20036756400077,356.23928123699807,356.23928123699807,356.23928123699807,356.23928123699807,356.23928123699807,356.23928123699807,356.23928123699807,356.23928123699807,356.23928123699807,356.23928123699807,356.23928123699807,356.23928123699807,356.23928123699807,356.23928123699807,356.23928123699807,24,64,68,29,64,61,None,None,55,55,[-0.00625],[-0.31875],[1],[0],[0],[5.0924532690005435],['tijiao'],0.2,0,,,,,,,,,,,,[],[],[],[],[],[],[],363.8775127959998,363.8775127959998,363.8775127959998,363.8775127959998,10.037500000000001,1.1356997309994767,365.0298200219986,366.7129018230007,358.753291301,358.753291301,358.753291301,358.753291301,358.753291301,358.753291301,358.753291301,358.753291301,0.008899088999896776,358.753291301,,,,,,,,,,,,,,,,,275,f,22,2023-04-04_14h48.22.406,RL,2022.2.4,59.11880803551007,
1,-0.3,-0.225,0,26,26,26,,,,,,,,,,None,366.7129018230007,366.7129018230007,366.7129018230007,366.7129018230007,366.7129018230007,366.7129018230007,f,0.43198289899737574,367.19940834799854,367.19940834799854,367.19940834799854,367.19940834799854,367.19940834799854,367.19940834799854,367.47878916699847,367.47878916699847,368.3038606170012,368.3038606170012,368.34444432999953,368.34444432999953,368.34444432999953,368.34444432999953,368.34444432999953,368.34444432999953,368.34444432999953,368.34444432999953,368.34444432999953,368.34444432999953,368.34444432999953,368.34444432999953,368.34444432999953,368.34444432999953,368.34444432999953,32,54,64,20,54,49,None,None,80,80,[0.08375],[-0.2575],[1],[0],[0],[7.682854506001604],['tijiao'],0.2,0,,,,,,,,,,,,[],[],[],[],[],[],[],378.5721669009981,378.5721669009981,378.5721669009981,378.5721669009981,9.987499999999999,1.536177032001433,380.12902090699936,382.08676583899796,370.85964625999986,370.85964625999986,370.85964625999986,370.85964625999986,370.85964625999986,370.85964625999986,370.85964625999986,370.85964625999986,0.008856651998939924,370.85964625999986,,,,,,,,,,,,,,,,,275,f,22,2023-04-04_14h48.22.406,RL,2022.2.4,59.11880803551007,
0,0.3,0.225,0,27,27,27,,,,,,,,,,None,382.08676583899796,382.08676583899796,382.08676583899796,382.08676583899796,382.08676583899796,382.08676583899796,i,0.3909058749995893,382.5232443879977,382.5232443879977,382.5232443879977,382.5232443879977,382.5232443879977,382.5232443879977,382.7922129260005,382.7922129260005,384.46099932200013,384.46099932200013,384.500650441998,384.500650441998,384.500650441998,384.500650441998,384.500650441998,384.500650441998,384.500650441998,384.500650441998,384.500650441998,384.500650441998,384.500650441998,384.500650441998,384.500650441998,384.500650441998,384.500650441998,26,61,59,21,59,19,5.0,1.766967650000879,,,[],[],[],[],[],[],[],0.6,3,,,,,,,,,,,,[],[],[],[],[],[],[],,,,,None,None,388.8101117670012,390.7243050350007,,,,,,,,,,,386.99890496399894,386.99890496399894,386.99890496399894,386.99890496399894,386.99890496399894,,,,,,,,,,,,275,f,22,2023-04-04_14h48.22.406,RL,2022.2.4,59.11880803551007,
1,-0.3,-0.225,0,28,28,28,,,,,,,,,,None,390.7243050350007,390.7243050350007,390.7243050350007,390.7243050350007,390.7243050350007,390.7243050350007,r,0.8801139130009688,391.6502220439979,391.6502220439979,391.6502220439979,391.6502220439979,391.6502220439979,391.6502220439979,391.9302056060005,391.9302056060005,393.0175969269985,393.0175969269985,393.0407153720007,393.0407153720007,393.0407153720007,393.0407153720007,393.0407153720007,393.0407153720007,393.0407153720007,393.0407153720007,393.0407153720007,393.0407153720007,393.0407153720007,393.0407153720007,393.0407153720007,393.0407153720007,393.0407153720007,28,53,50,9,28,17,None,None,35,35,[0.0675],[-0.30875],[1],[0],[0],[7.065497551997396],['tijiao'],0.2,0,,,,,,,,,,,,[],[],[],[],[],[],[],402.6493240230011,402.6493240230011,402.6493240230011,402.6493240230011,9.0875,1.7987101129983785,404.46863096499874,406.2148001329988,395.55321228200046,395.55321228200046,395.55321228200046,395.55321228200046,395.55321228200046,395.55321228200046,395.55321228200046,395.55321228200046,0.008635440000944072,395.55321228200046,,,,,,,,,,,,,,,,,275,f,22,2023-04-04_14h48.22.406,RL,2022.2.4,59.11880803551007,
0,0.3,0.225,0,29,29,29,,,,,,,,,,None,406.2148001329988,406.2148001329988,406.2148001329988,406.2148001329988,406.2148001329988,406.2148001329988,r,0.5211381700028141,406.78403205499853,406.78403205499853,406.78403205499853,406.78403205499853,406.78403205499853,406.78403205499853,407.04912615099965,407.04912615099965,408.70645767099995,408.70645767099995,408.7620639150009,408.7620639150009,408.7620639150009,408.7620639150009,408.7620639150009,408.7620639150009,408.7620639150009,408.7620639150009,408.7620639150009,408.7620639150009,408.7620639150009,408.7620639150009,408.7620639150009,408.7620639150009,408.7620639150009,26,59,54,22,26,52,7.0,1.7060565800020413,,,[],[],[],[],[],[],[],-0.2,2,,,,,,,,,,,,[],[],[],[],[],[],[],,,,,None,None,413.0197710889988,414.869094280999,,,,,,,,,,,411.2712342400009,411.2712342400009,411.2712342400009,411.2712342400009,411.2712342400009,,,,,,,,,,,,275,f,22,2023-04-04_14h48.22.406,RL,2022.2.4,59.11880803551007,
1,-0.3,-0.225,0,30,30,30,,,,,,,,,,None,414.869094280999,414.869094280999,414.869094280999,414.869094280999,414.869094280999,414.869094280999,f,0.7621915749987238,415.6712102889978,415.6712102889978,415.6712102889978,415.6712102889978,415.6712102889978,415.6712102889978,415.9473589759982,415.9473589759982,416.8953417410012,416.8953417410012,416.93522263900013,416.93522263900013,416.93522263900013,416.93522263900013,416.93522263900013,416.93522263900013,416.93522263900013,416.93522263900013,416.93522263900013,416.93522263900013,416.93522263900013,416.93522263900013,416.93522263900013,416.93522263900013,416.93522263900013,14,60,63,18,60,49,7.0,1.5658658240026853,,,[],[],[],[],[],[],[],0.6,3,,,,,,,,,,,,[],[],[],[],[],[],[],,,,,None,None,421.0420759580011,423.0064493179998,,,,,,,,,,,419.43005961200106,419.43005961200106,419.43005961200106,419.43005961200106,419.43005961200106,,,,,,,,,,,,275,f,22,2023-04-04_14h48.22.406,RL,2022.2.4,59.11880803551007,
0,0.3,0.225,0,31,31,31,,,,,,,,,,None,423.0064493179998,423.0064493179998,423.0064493179998,423.0064493179998,423.0064493179998,423.0064493179998,f,0.8440180590005184,423.891726621001,423.891726621001,423.891726621001,423.891726621001,423.891726621001,423.891726621001,424.16341301300054,424.16341301300054,426.16519866199815,426.16519866199815,426.20393487600086,426.20393487600086,426.20393487600086,426.20393487600086,426.20393487600086,426.20393487600086,426.20393487600086,426.20393487600086,426.20393487600086,426.20393487600086,426.20393487600086,426.20393487600086,426.20393487600086,426.20393487600086,426.20393487600086,15,58,54,26,58,33,None,None,60,60,[0.0775],[-0.31625],[1],[0],[0],[7.93277747799948],['tijiao'],0.2,0,,,,,,,,,,,,[],[],[],[],[],[],[],436.68187037999814,436.68187037999814,436.68187037999814,436.68187037999814,10.037500000000001,1.2569466730019485,437.9564787169984,439.4807121070007,428.71696993799924,428.71696993799924,428.71696993799924,428.71696993799924,428.71696993799924,428.71696993799924,428.71696993799924,428.71696993799924,0.008839079997414956,428.71696993799924,,,,,,,,,,,,,,,,,275,f,22,2023-04-04_14h48.22.406,RL,2022.2.4,59.11880803551007,
1,-0.3,-0.225,0,32,32,32,,,,,,,,,,None,439.4807121070007,439.4807121070007,439.4807121070007,439.4807121070007,439.4807121070007,439.4807121070007,None,,,,,,,,,,,,,,,,,,,,,,,,,,,29,61,52,22,0,**,None,None,,,[],[],[],[],[],[],[],-0.2,0,,,,,,,,,,,,[],[],[],[],[],[],[],,,,,None,None,447.0486524549997,448.6676721699987,,,,,,,,,,,,,,,,441.0454869169989,447.0486524549997,,,,,,,,,,275,f,22,2023-04-04_14h48.22.406,RL,2022.2.4,59.11880803551007,
0,0.3,0.225,0,33,33,33,,,,,,,,,,None,448.6676721699987,448.6676721699987,448.6676721699987,448.6676721699987,448.6676721699987,448.6676721699987,i,0.7138464730014675,449.4223064270009,449.4223064270009,449.4223064270009,449.4223064270009,449.4223064270009,449.4223064270009,449.6911678139986,449.6911678139986,450.83654076699895,450.83654076699895,450.8779850539977,450.8779850539977,450.8779850539977,450.8779850539977,450.8779850539977,450.8779850539977,450.8779850539977,450.8779850539977,450.8779850539977,450.8779850539977,450.8779850539977,450.8779850539977,450.8779850539977,450.8779850539977,450.8779850539977,20,64,62,15,62,36,7.0,1.8987055069992493,,,[],[],[],[],[],[],[],-0.2,3,,,,,,,,,,,,[],[],[],[],[],[],[],,,,,None,None,455.3251591059998,456.88881243300057,,,,,,,,,,,453.3816430199986,453.3816430199986,453.3816430199986,453.3816430199986,453.3816430199986,,,,,,,,,,,,275,f,22,2023-04-04_14h48.22.406,RL,2022.2.4,59.11880803551007,
1,-0.3,-0.225,0,34,34,34,,,,,,,,,,None,456.88881243300057,456.88881243300057,456.88881243300057,456.88881243300057,456.88881243300057,456.88881243300057,j,0.7611743409979681,457.6914744679998,457.6914744679998,457.6914744679998,457.6914744679998,457.6914744679998,457.6914744679998,457.96139830099855,457.96139830099855,459.7998256339997,459.7998256339997,459.8390996519993,459.8390996519993,459.8390996519993,459.8390996519993,459.8390996519993,459.8390996519993,459.8390996519993,459.8390996519993,459.8390996519993,459.8390996519993,459.8390996519993,459.8390996519993,459.8390996519993,459.8390996519993,459.8390996519993,21,63,60,14,14,13,None,None,20,20,[0.11875],[-0.30875],[1],[0],[0],[6.20459507600026],['tijiao'],0.6,0,,,,,,,,,,,,[],[],[],[],[],[],[],468.5919664030007,468.5919664030007,468.5919664030007,468.5919664030007,9.774999999999999,2.3729317839970463,470.9840558249998,472.7132004160012,462.3607720100008,462.3607720100008,462.3607720100008,462.3607720100008,462.3607720100008,462.3607720100008,462.3607720100008,462.3607720100008,0.009102521999011515,462.3607720100008,,,,,,,,,,,,,,,,,275,f,22,2023-04-04_14h48.22.406,RL,2022.2.4,59.11880803551007,
0,0.3,0.225,0,35,35,35,,,,,,,,,,None,472.7132004160012,472.7132004160012,472.7132004160012,472.7132004160012,472.7132004160012,472.7132004160012,j,0.4762524340003438,473.23321667799974,473.23321667799974,473.23321667799974,473.23321667799974,473.23321667799974,473.23321667799974,473.50332278899805,473.50332278899805,475.2077512420001,475.2077512420001,475.24702080299903,475.24702080299903,475.24702080299903,475.24702080299903,475.24702080299903,475.24702080299903,475.24702080299903,475.24702080299903,475.24702080299903,475.24702080299903,475.24702080299903,475.24702080299903,475.24702080299903,475.24702080299903,475.24702080299903,24,58,52,12,12,61,7.0,1.5781050799996592,,,[],[],[],[],[],[],[],0.6,3,,,,,,,,,,,,[],[],[],[],[],[],[],,,,,None,None,479.3700258489989,481.1670963129982,,,,,,,,,,,477.74406150399955,477.74406150399955,477.74406150399955,477.74406150399955,477.74406150399955,,,,,,,,,,,,275,f,22,2023-04-04_14h48.22.406,RL,2022.2.4,59.11880803551007,
1,-0.3,-0.225,0,36,36,36,,,,,,,,,,None,481.1670963129982,481.1670963129982,481.1670963129982,481.1670963129982,481.1670963129982,481.1670963129982,j,0.7288999970005534,481.937307229,481.937307229,481.937307229,481.937307229,481.937307229,481.937307229,482.2065631789992,482.2065631789992,483.5745634899977,483.5745634899977,483.61381693599833,483.61381693599833,483.61381693599833,483.61381693599833,483.61381693599833,483.61381693599833,483.61381693599833,483.61381693599833,483.61381693599833,483.61381693599833,483.61381693599833,483.61381693599833,483.61381693599833,483.61381693599833,483.61381693599833,34,70,54,14,14,63,7.0,1.3147924059994693,,,[],[],[],[],[],[],[],0.6,3,,,,,,,,,,,,[],[],[],[],[],[],[],,,,,None,None,487.47198261299854,489.0042600179986,,,,,,,,,,,486.1120989150004,486.1120989150004,486.1120989150004,486.1120989150004,486.1120989150004,,,,,,,,,,,,275,f,22,2023-04-04_14h48.22.406,RL,2022.2.4,59.11880803551007,
0,0.3,0.225,0,37,37,37,,,,,,,,,,None,489.0042600179986,489.0042600179986,489.0042600179986,489.0042600179986,489.0042600179986,489.0042600179986,f,0.5838694289996056,489.64090996199957,489.64090996199957,489.64090996199957,489.64090996199957,489.64090996199957,489.64090996199957,489.9097787339997,489.9097787339997,491.12930437699833,491.12930437699833,491.1674568189992,491.1674568189992,491.1674568189992,491.1674568189992,491.1674568189992,491.1674568189992,491.1674568189992,491.1674568189992,491.1674568189992,491.1674568189992,491.1674568189992,491.1674568189992,491.1674568189992,491.1674568189992,491.1674568189992,33,73,45,14,73,55,None,None,75,75,[0.07125],[-0.27625],[1],[0],[0],[5.08321133699792],['tijiao'],0.6,0,,,,,,,,,,,,[],[],[],[],[],[],[],498.79872929799967,498.79872929799967,498.79872929799967,498.79872929799967,10.1875,2.0939789910007676,500.9111820939979,502.8442851969994,493.68297871100003,493.68297871100003,493.68297871100003,493.68297871100003,493.68297871100003,493.68297871100003,493.68297871100003,493.68297871100003,0.008196876999136293,493.68297871100003,,,,,,,,,,,,,,,,,275,f,22,2023-04-04_14h48.22.406,RL,2022.2.4,59.11880803551007,
1,-0.3,-0.225,0,38,38,38,,,,,,,,,,None,502.8442851969994,502.8442851969994,502.8442851969994,502.8442851969994,502.8442851969994,502.8442851969994,f,0.5272659270012809,503.4135283020005,503.4135283020005,503.4135283020005,503.4135283020005,503.4135283020005,503.4135283020005,503.6831796509978,503.6831796509978,504.9180963539984,504.9180963539984,504.95707465099986,504.95707465099986,504.95707465099986,504.95707465099986,504.95707465099986,504.95707465099986,504.95707465099986,504.95707465099986,504.95707465099986,504.95707465099986,504.95707465099986,504.95707465099986,504.95707465099986,504.95707465099986,504.95707465099986,33,67,45,21,67,56,6.0,1.3995337240012304,,,[],[],[],[],[],[],[],0.2,2,,,,,,,,,,,,[],[],[],[],[],[],[],,,,,None,None,508.900338645999,510.54726635100087,,,,,,,,,,,507.4559124949992,507.4559124949992,507.4559124949992,507.4559124949992,507.4559124949992,,,,,,,,,,,,275,f,22,2023-04-04_14h48.22.406,RL,2022.2.4,59.11880803551007,
0,0.3,0.225,0,39,39,39,,,,,,,,,,None,510.54726635100087,510.54726635100087,510.54726635100087,510.54726635100087,510.54726635100087,510.54726635100087,r,0.3418300650009769,510.9340821219994,510.9340821219994,510.9340821219994,510.9340821219994,510.9340821219994,510.9340821219994,511.2027448299996,511.2027448299996,513.0400099180006,513.0400099180006,513.0800741450003,513.0800741450003,513.0800741450003,513.0800741450003,513.0800741450003,513.0800741450003,513.0800741450003,513.0800741450003,513.0800741450003,513.0800741450003,513.0800741450003,513.0800741450003,513.0800741450003,513.0800741450003,513.0800741450003,39,71,48,10,39,38,6.0,1.4053282749991922,,,[],[],[],[],[],[],[],-0.6,3,,,,,,,,,,,,[],[],[],[],[],[],[],,,,,None,None,517.0364146399988,518.7353142979991,,,,,,,,,,,515.5858431870001,515.5858431870001,515.5858431870001,515.5858431870001,515.5858431870001,,,,,,,,,,,,275,f,22,2023-04-04_14h48.22.406,RL,2022.2.4,59.11880803551007,
1,-0.3,-0.225,0,40,40,40,,,,,,,,,,None,518.7353142979991,518.7353142979991,518.7353142979991,518.7353142979991,518.7353142979991,518.7353142979991,f,0.6984333920008794,519.4887066589981,519.4887066589981,519.4887066589981,519.4887066589981,519.4887066589981,519.4887066589981,519.7579461159985,519.7579461159985,521.1092945569981,521.1092945569981,521.1483408659988,521.1483408659988,521.1483408659988,521.1483408659988,521.1483408659988,521.1483408659988,521.1483408659988,521.1483408659988,521.1483408659988,521.1483408659988,521.1483408659988,521.1483408659988,521.1483408659988,521.1483408659988,521.1483408659988,31,65,46,7,65,55,6.0,1.5287803430001077,,,[],[],[],[],[],[],[],0.6,3,,,,,,,,,,,,[],[],[],[],[],[],[],,,,,None,None,525.2232651970007,526.7874642389979,,,,,,,,,,,523.6517433029985,523.6517433029985,523.6517433029985,523.6517433029985,523.6517433029985,,,,,,,,,,,,275,f,22,2023-04-04_14h48.22.406,RL,2022.2.4,59.11880803551007,
0,0.3,0.225,0,41,41,41,,,,,,,,,,None,526.7874642389979,526.7874642389979,526.7874642389979,526.7874642389979,526.7874642389979,526.7874642389979,f,0.3718992959984462,527.2061007230004,527.2061007230004,527.2061007230004,527.2061007230004,527.2061007230004,527.2061007230004,527.477674179001,527.477674179001,529.3632059390002,529.3632059390002,529.4019551380006,529.4019551380006,529.4019551380006,529.4019551380006,529.4019551380006,529.4019551380006,529.4019551380006,529.4019551380006,529.4019551380006,529.4019551380006,529.4019551380006,529.4019551380006,529.4019551380006,529.4019551380006,529.4019551380006,40,71,52,12,71,53,None,None,,,[],[],[],[],[],[],[],0.2,1,531.9310339149997,531.9310339149997,531.9310339149997,531.9310339149997,531.9310339149997,531.9310339149997,531.9310339149997,531.9310339149997,0.010078280000016093,531.9310339149997,65,[0.115],[-0.28875],[1],[0],[0],[6.804805010000564],['tijiao_random_2'],538.7511491170008,538.7511491170008,538.7511491170008,538.7511491170008,10.1875,1.760947076996672,540.5378092009996,542.529786422001,,,,,,,,,,,,,,,,,,,,,,,,,,,275,f,22,2023-04-04_14h48.22.406,RL,2022.2.4,59.11880803551007,
1,-0.3,-0.225,0,42,42,42,,,,,,,,,,None,542.529786422001,542.529786422001,542.529786422001,542.529786422001,542.529786422001,542.529786422001,i,0.36297073799869395,542.9317066529984,542.9317066529984,542.9317066529984,542.9317066529984,542.9317066529984,542.9317066529984,543.2019104969986,543.2019104969986,544.8880555889991,544.8880555889991,544.9251671439997,544.9251671439997,544.9251671439997,544.9251671439997,544.9251671439997,544.9251671439997,544.9251671439997,544.9251671439997,544.9251671439997,544.9251671439997,544.9251671439997,544.9251671439997,544.9251671439997,544.9251671439997,544.9251671439997,41,58,46,7,46,51,5.0,1.680699011998513,,,[],[],[],[],[],[],[],-0.6,2,,,,,,,,,,,,[],[],[],[],[],[],[],,,,,None,None,549.1497149149982,550.7339209310012,,,,,,,,,,,547.4268721679982,547.4268721679982,547.4268721679982,547.4268721679982,547.4268721679982,,,,,,,,,,,,275,f,22,2023-04-04_14h48.22.406,RL,2022.2.4,59.11880803551007,
0,0.3,0.225,0,43,43,43,,,,,,,,,,None,550.7339209310012,550.7339209310012,550.7339209310012,550.7339209310012,550.7339209310012,550.7339209310012,i,0.6899026589999266,551.4702925429992,551.4702925429992,551.4702925429992,551.4702925429992,551.4702925429992,551.4702925429992,551.7369782059977,551.7369782059977,553.3761387720006,553.3761387720006,553.4138397649986,553.4138397649986,553.4138397649986,553.4138397649986,553.4138397649986,553.4138397649986,553.4138397649986,553.4138397649986,553.4138397649986,553.4138397649986,553.4138397649986,553.4138397649986,553.4138397649986,553.4138397649986,553.4138397649986,39,62,46,4,46,41,6.0,1.9490281790021982,,,[],[],[],[],[],[],[],-0.2,3,,,,,,,,,,,,[],[],[],[],[],[],[],,,,,None,None,557.9034848720003,559.7214137049996,,,,,,,,,,,555.9123845530012,555.9123845530012,555.9123845530012,555.9123845530012,555.9123845530012,,,,,,,,,,,,275,f,22,2023-04-04_14h48.22.406,RL,2022.2.4,59.11880803551007,
1,-0.3,-0.225,0,44,44,44,,,,,,,,,,None,559.7214137049996,559.7214137049996,559.7214137049996,559.7214137049996,559.7214137049996,559.7214137049996,j,0.42772768100257963,560.1963280189993,560.1963280189993,560.1963280189993,560.1963280189993,560.1963280189993,560.1963280189993,560.4765077449993,560.4765077449993,561.9506045620001,561.9506045620001,561.9743043800008,561.9743043800008,561.9743043800008,561.9743043800008,561.9743043800008,561.9743043800008,561.9743043800008,561.9743043800008,561.9743043800008,561.9743043800008,561.9743043800008,561.9743043800008,561.9743043800008,561.9743043800008,561.9743043800008,40,59,55,10,10,58,None,None,45,45,[0.1275],[-0.27375],[1],[0],[0],[7.168582528000115],['tijiao'],0.2,0,,,,,,,,,,,,[],[],[],[],[],[],[],571.6962077179996,571.6962077179996,571.6962077179996,571.6962077179996,9.95,1.6084431880008196,573.3222866529977,574.827950638999,564.4958072400004,564.4958072400004,564.4958072400004,564.4958072400004,564.4958072400004,564.4958072400004,564.4958072400004,564.4958072400004,0.008869804001733428,564.4958072400004,,,,,,,,,,,,,,,,,275,f,22,2023-04-04_14h48.22.406,RL,2022.2.4,59.11880803551007,
0,0.3,0.225,0,45,45,45,,,,,,,,,,None,574.827950638999,574.827950638999,574.827950638999,574.827950638999,574.827950638999,574.827950638999,i,0.46298443699924974,575.3304142829984,575.3304142829984,575.3304142829984,575.3304142829984,575.3304142829984,575.3304142829984,575.5982372629987,575.5982372629987,577.1194136779995,577.1194136779995,577.1604570739983,577.1604570739983,577.1604570739983,577.1604570739983,577.1604570739983,577.1604570739983,577.1604570739983,577.1604570739983,577.1604570739983,577.1604570739983,577.1604570739983,577.1604570739983,577.1604570739983,577.1604570739983,577.1604570739983,50,55,57,1,57,48,None,None,,,[],[],[],[],[],[],[],-0.6,1,579.6880315829985,579.6880315829985,579.6880315829985,579.6880315829985,579.6880315829985,579.6880315829985,579.6880315829985,579.6880315829985,0.010071204000269063,579.6880315829985,30,[0.115],[-0.27875],[1],[0],[0],[5.272836575000838],['tijiao_random_2'],584.9769911369985,584.9769911369985,584.9769911369985,584.9769911369985,9.75,2.1428587150003295,587.1376316489986,589.0674960209981,,,,,,,,,,,,,,,,,,,,,,,,,,,275,f,22,2023-04-04_14h48.22.406,RL,2022.2.4,59.11880803551007,
1,-0.3,-0.225,0,46,46,46,,,,,,,,,,None,589.0674960209981,589.0674960209981,589.0674960209981,589.0674960209981,589.0674960209981,589.0674960209981,r,0.49180988000080106,589.6046241990007,589.6046241990007,589.6046241990007,589.6046241990007,589.6046241990007,589.6046241990007,589.8744320369988,589.8744320369988,591.810629904001,591.810629904001,591.8310015649986,591.8310015649986,591.8310015649986,591.8310015649986,591.8310015649986,591.8310015649986,591.8310015649986,591.8310015649986,591.8310015649986,591.8310015649986,591.8310015649986,591.8310015649986,591.8310015649986,591.8310015649986,591.8310015649986,47,65,51,2,47,28,5.0,2.9947428660016158,,,[],[],[],[],[],[],[],-0.6,3,,,,,,,,,,,,[],[],[],[],[],[],[],,,,,None,None,597.3703584309987,598.9728852359985,,,,,,,,,,,594.3342331239983,594.3342331239983,594.3342331239983,594.3342331239983,594.3342331239983,,,,,,,,,,,,275,f,22,2023-04-04_14h48.22.406,RL,2022.2.4,59.11880803551007,
0,0.3,0.225,0,47,47,47,,,,,,,,,,None,598.9728852359985,598.9728852359985,598.9728852359985,598.9728852359985,598.9728852359985,598.9728852359985,r,0.6910180279992346,599.7071025740006,599.7071025740006,599.7071025740006,599.7071025740006,599.7071025740006,599.7071025740006,599.9796239219977,599.9796239219977,601.4171562349984,601.4171562349984,601.4565077799998,601.4565077799998,601.4565077799998,601.4565077799998,601.4565077799998,601.4565077799998,601.4565077799998,601.4565077799998,601.4565077799998,601.4565077799998,601.4565077799998,601.4565077799998,601.4565077799998,601.4565077799998,601.4565077799998,49,52,58,5,49,40,None,None,,,[],[],[],[],[],[],[],0.6,1,603.9979697399976,603.9979697399976,603.9979697399976,603.9979697399976,603.9979697399976,603.9979697399976,603.9979697399976,603.9979697399976,0.010340512999391649,603.9979697399976,15,[0.0375],[-0.34],[1],[0],[0],[4.298712915999204],['tijiao_random_2'],608.3107799559984,608.3107799559984,608.3107799559984,608.3107799559984,9.9375,1.1859032120009942,609.5179357419984,611.1933876359981,,,,,,,,,,,,,,,,,,,,,,,,,,,275,f,22,2023-04-04_14h48.22.406,RL,2022.2.4,59.11880803551007,
1,-0.3,-0.225,0,48,48,48,,,,,,,,,,None,611.1933876359981,611.1933876359981,611.1933876359981,611.1933876359981,611.1933876359981,611.1933876359981,j,0.6026968760015734,611.8498434569992,611.8498434569992,611.8498434569992,611.8498434569992,611.8498434569992,611.8498434569992,612.117715725999,612.117715725999,613.0202698860012,613.0202698860012,613.061071043001,613.061071043001,613.061071043001,613.061071043001,613.061071043001,613.061071043001,613.061071043001,613.061071043001,613.061071043001,613.061071043001,613.061071043001,613.061071043001,613.061071043001,613.061071043001,613.061071043001,53,54,62,5,5,49,5.0,1.6249713370016252,,,[],[],[],[],[],[],[],0.6,2,,,,,,,,,,,,[],[],[],[],[],[],[],,,,,None,None,617.2418786390008,618.7490454959989,,,,,,,,,,,615.5705904790011,615.5705904790011,615.5705904790011,615.5705904790011,615.5705904790011,,,,,,,,,,,,275,f,22,2023-04-04_14h48.22.406,RL,2022.2.4,59.11880803551007,
0,0.3,0.225,0,49,49,49,,,,,,,,,,None,618.7490454959989,618.7490454959989,618.7490454959989,618.7490454959989,618.7490454959989,618.7490454959989,j,0.36470337299761013,619.168177599,619.168177599,619.168177599,619.168177599,619.168177599,619.168177599,619.4483243149989,619.4483243149989,620.8410062020012,620.8410062020012,620.8623061149992,620.8623061149992,620.8623061149992,620.8623061149992,620.8623061149992,620.8623061149992,620.8623061149992,620.8623061149992,620.8623061149992,620.8623061149992,620.8623061149992,620.8623061149992,620.8623061149992,620.8623061149992,620.8623061149992,41,57,64,9,9,53,None,None,,,[],[],[],[],[],[],[],-0.2,1,623.4027763710001,623.4027763710001,623.4027763710001,623.4027763710001,623.4027763710001,623.4027763710001,623.4027763710001,623.4027763710001,0.0124144340006751,623.4027763710001,40,[-0.0575],[-0.3],[1],[0],[0],[5.984340596001857],['tijiao_random_2'],629.4006472149995,629.4006472149995,629.4006472149995,629.4006472149995,10.037500000000001,3.6438186320010573,633.0635846519981,634.9571252630012,,,,,,,,,,,,,,,,,,,,,,,,,,,275,f,22,2023-04-04_14h48.22.406,RL,2022.2.4,59.11880803551007,
1,-0.3,-0.225,0,50,50,50,,,,,,,,,,None,634.9571252630012,634.9571252630012,634.9571252630012,634.9571252630012,634.9571252630012,634.9571252630012,f,0.4006591440011107,635.4116866510012,635.4116866510012,635.4116866510012,635.4116866510012,635.4116866510012,635.4116866510012,635.6910342049996,635.6910342049996,637.364125322998,637.364125322998,637.3873456239999,637.3873456239999,637.3873456239999,637.3873456239999,637.3873456239999,637.3873456239999,637.3873456239999,637.3873456239999,637.3873456239999,637.3873456239999,637.3873456239999,637.3873456239999,637.3873456239999,637.3873456239999,637.3873456239999,52,55,70,8,55,28,6.0,0.871310242000618,,,[],[],[],[],[],[],[],0.6,2,,,,,,,,,,,,[],[],[],[],[],[],[],,,,,None,None,640.8065853139997,642.4605331509993,,,,,,,,,,,639.8863766459981,639.8863766459981,639.8863766459981,639.8863766459981,639.8863766459981,,,,,,,,,,,,275,f,22,2023-04-04_14h48.22.406,RL,2022.2.4,59.11880803551007,
0,0.3,0.225,0,51,51,51,,,,,,,,,,None,642.4605331509993,642.4605331509993,642.4605331509993,642.4605331509993,642.4605331509993,642.4605331509993,f,0.7398349030008831,643.2487394739983,643.2487394739983,643.2487394739983,643.2487394739983,643.2487394739983,643.2487394739983,643.5167689170012,643.5167689170012,644.6368100090003,644.6368100090003,644.6758404139982,644.6758404139982,644.6758404139982,644.6758404139982,644.6758404139982,644.6758404139982,644.6758404139982,644.6758404139982,644.6758404139982,644.6758404139982,644.6758404139982,644.6758404139982,644.6758404139982,644.6758404139982,644.6758404139982,48,60,65,14,60,53,7.0,1.935963282998273,,,[],[],[],[],[],[],[],0.6,2,,,,,,,,,,,,[],[],[],[],[],[],[],,,,,None,None,649.1667845919983,651.0959411990007,,,,,,,,,,,647.1862355779995,647.1862355779995,647.1862355779995,647.1862355779995,647.1862355779995,,,,,,,,,,,,275,f,22,2023-04-04_14h48.22.406,RL,2022.2.4,59.11880803551007,
1,-0.3,-0.225,0,52,52,52,,,,,,,,,,None,651.0959411990007,651.0959411990007,651.0959411990007,651.0959411990007,651.0959411990007,651.0959411990007,r,0.43524566999985836,651.5831332329981,651.5831332329981,651.5831332329981,651.5831332329981,651.5831332329981,651.5831332329981,651.8537113380007,651.8537113380007,653.5726796150011,653.5726796150011,653.597019203,653.597019203,653.597019203,653.597019203,653.597019203,653.597019203,653.597019203,653.597019203,653.597019203,653.597019203,653.597019203,653.597019203,653.597019203,653.597019203,653.597019203,53,59,70,18,53,58,6.0,1.881259334000788,,,[],[],[],[],[],[],[],-0.2,3,,,,,,,,,,,,[],[],[],[],[],[],[],,,,,None,None,658.0182621909989,659.6517576410006,,,,,,,,,,,656.0941445079989,656.0941445079989,656.0941445079989,656.0941445079989,656.0941445079989,,,,,,,,,,,,275,f,22,2023-04-04_14h48.22.406,RL,2022.2.4,59.11880803551007,
0,0.3,0.225,0,53,53,53,,,,,,,,,,None,659.6517576410006,659.6517576410006,659.6517576410006,659.6517576410006,659.6517576410006,659.6517576410006,i,0.5069820299977437,660.2075596559989,660.2075596559989,660.2075596559989,660.2075596559989,660.2075596559989,660.2075596559989,660.4749256850009,660.4749256850009,662.4312782079978,662.4312782079978,662.4563560959978,662.4563560959978,662.4563560959978,662.4563560959978,662.4563560959978,662.4563560959978,662.4563560959978,662.4563560959978,662.4563560959978,662.4563560959978,662.4563560959978,662.4563560959978,662.4563560959978,662.4563560959978,662.4563560959978,45,65,68,12,68,35,None,None,60,60,[0.12375],[-0.28125],[1],[0],[0],[7.659000724001089],['tijiao'],-0.6,0,,,,,,,,,,,,[],[],[],[],[],[],[],672.6695452799977,672.6695452799977,672.6695452799977,672.6695452799977,10.05,1.677838076997432,674.3657865309979,676.0430906809997,664.9805406150008,664.9805406150008,664.9805406150008,664.9805406150008,664.9805406150008,664.9805406150008,664.9805406150008,664.9805406150008,0.008747880998271285,664.9805406150008,,,,,,,,,,,,,,,,,275,f,22,2023-04-04_14h48.22.406,RL,2022.2.4,59.11880803551007,
1,-0.3,-0.225,0,54,54,54,,,,,,,,,,None,676.0430906809997,676.0430906809997,676.0430906809997,676.0430906809997,676.0430906809997,676.0430906809997,f,0.3924627619999228,676.4744580179977,676.4744580179977,676.4744580179977,676.4744580179977,676.4744580179977,676.4744580179977,676.7491834639986,676.7491834639986,677.9686788809995,677.9686788809995,678.010542617998,678.010542617998,678.010542617998,678.010542617998,678.010542617998,678.010542617998,678.010542617998,678.010542617998,678.010542617998,678.010542617998,678.010542617998,678.010542617998,678.010542617998,678.010542617998,678.010542617998,42,79,70,16,79,57,5.0,3.3833688650011027,,,[],[],[],[],[],[],[],0.2,3,,,,,,,,,,,,[],[],[],[],[],[],[],,,,,None,None,683.9467326109989,685.613879397999,,,,,,,,,,,680.521456429,680.521456429,680.521456429,680.521456429,680.521456429,,,,,,,,,,,,275,f,22,2023-04-04_14h48.22.406,RL,2022.2.4,59.11880803551007,
0,0.3,0.225,0,55,55,55,,,,,,,,,,None,685.613879397999,685.613879397999,685.613879397999,685.613879397999,685.613879397999,685.613879397999,i,0.8840613259999373,686.5503752709992,686.5503752709992,686.5503752709992,686.5503752709992,686.5503752709992,686.5503752709992,686.8197512439983,686.8197512439983,688.1902753670001,688.1902753670001,688.2298248849984,688.2298248849984,688.2298248849984,688.2298248849984,688.2298248849984,688.2298248849984,688.2298248849984,688.2298248849984,688.2298248849984,688.2298248849984,688.2298248849984,688.2298248849984,688.2298248849984,688.2298248849984,688.2298248849984,47,66,61,12,61,24,None,None,20,20,[0.10625],[-0.30375],[1],[0],[0],[5.9588330010010395],['tijiao'],0.6,0,,,,,,,,,,,,[],[],[],[],[],[],[],696.7347476020004,696.7347476020004,696.7347476020004,696.7347476020004,9.8375,1.68879898600062,698.442348624998,699.9710644410006,690.7460114799978,690.7460114799978,690.7460114799978,690.7460114799978,690.7460114799978,690.7460114799978,690.7460114799978,690.7460114799978,0.00891324699841789,690.7460114799978,,,,,,,,,,,,,,,,,275,f,22,2023-04-04_14h48.22.406,RL,2022.2.4,59.11880803551007,
1,-0.3,-0.225,0,56,56,56,,,,,,,,,,None,699.9710644410006,699.9710644410006,699.9710644410006,699.9710644410006,699.9710644410006,699.9710644410006,j,0.47404242799893836,700.4915565189986,700.4915565189986,700.4915565189986,700.4915565189986,700.4915565189986,700.4915565189986,700.7601617469991,700.7601617469991,702.2775346239978,702.2775346239978,702.3170259539984,702.3170259539984,702.3170259539984,702.3170259539984,702.3170259539984,702.3170259539984,702.3170259539984,702.3170259539984,702.3170259539984,702.3170259539984,702.3170259539984,702.3170259539984,702.3170259539984,702.3170259539984,702.3170259539984,46,64,63,10,10,47,7.0,1.5774509350012522,,,[],[],[],[],[],[],[],-0.2,2,,,,,,,,,,,,[],[],[],[],[],[],[],,,,,None,None,706.4427361939997,708.391224447998,,,,,,,,,,,704.8236090290011,704.8236090290011,704.8236090290011,704.8236090290011,704.8236090290011,,,,,,,,,,,,275,f,22,2023-04-04_14h48.22.406,RL,2022.2.4,59.11880803551007,
0,0.3,0.225,0,57,57,57,,,,,,,,,,None,708.391224447998,708.391224447998,708.391224447998,708.391224447998,708.391224447998,708.391224447998,r,0.8185647419995803,709.2600005929999,709.2600005929999,709.2600005929999,709.2600005929999,709.2600005929999,709.2600005929999,709.5303048530004,709.5303048530004,711.0170845590001,711.0170845590001,711.0569284929988,711.0569284929988,711.0569284929988,711.0569284929988,711.0569284929988,711.0569284929988,711.0569284929988,711.0569284929988,711.0569284929988,711.0569284929988,711.0569284929988,711.0569284929988,711.0569284929988,711.0569284929988,711.0569284929988,43,64,64,7,43,27,6.0,2.033507832002215,,,[],[],[],[],[],[],[],0.2,2,,,,,,,,,,,,[],[],[],[],[],[],[],,,,,None,None,715.6310559429985,717.2621708939987,,,,,,,,,,,713.5546352559977,713.5546352559977,713.5546352559977,713.5546352559977,713.5546352559977,,,,,,,,,,,,275,f,22,2023-04-04_14h48.22.406,RL,2022.2.4,59.11880803551007,
1,-0.3,-0.225,0,58,58,58,,,,,,,,,,None,717.2621708939987,717.2621708939987,717.2621708939987,717.2621708939987,717.2621708939987,717.2621708939987,f,0.5480894889988122,717.8666789880008,717.8666789880008,717.8666789880008,717.8666789880008,717.8666789880008,717.8666789880008,718.1348516619983,718.1348516619983,719.1043943439981,719.1043943439981,719.144287015999,719.144287015999,719.144287015999,719.144287015999,719.144287015999,719.144287015999,719.144287015999,719.144287015999,719.144287015999,719.144287015999,719.144287015999,719.144287015999,719.144287015999,719.144287015999,719.144287015999,45,51,65,5,51,27,None,None,50,50,[0.04875],[-0.29625],[1],[0],[0],[8.171456446001685],['tijiao'],-0.6,0,,,,,,,,,,,,[],[],[],[],[],[],[],729.8613927119986,729.8613927119986,729.8613927119986,729.8613927119986,9.0,1.6168322999983502,731.4967868950007,733.2199121099984,721.6591950189977,721.6591950189977,721.6591950189977,721.6591950189977,721.6591950189977,721.6591950189977,721.6591950189977,721.6591950189977,0.00883507500111591,721.6591950189977,,,,,,,,,,,,,,,,,275,f,22,2023-04-04_14h48.22.406,RL,2022.2.4,59.11880803551007,
0,0.3,0.225,0,59,59,59,,,,,,,,,,None,733.2199121099984,733.2199121099984,733.2199121099984,733.2199121099984,733.2199121099984,733.2199121099984,r,0.7550218510004925,734.0230196989978,734.0230196989978,734.0230196989978,734.0230196989978,734.0230196989978,734.0230196989978,734.2921670469987,734.2921670469987,735.1105507299981,735.1105507299981,735.1523344439993,735.1523344439993,735.1523344439993,735.1523344439993,735.1523344439993,735.1523344439993,735.1523344439993,735.1523344439993,735.1523344439993,735.1523344439993,735.1523344439993,735.1523344439993,735.1523344439993,735.1523344439993,735.1523344439993,51,73,72,4,51,34,None,None,,,[],[],[],[],[],[],[],0.2,1,737.6759583679996,737.6759583679996,737.6759583679996,737.6759583679996,737.6759583679996,737.6759583679996,737.6759583679996,737.6759583679996,0.010035639999841806,737.6759583679996,60,[0.035],[-0.305],[1],[0],[0],[5.352623421000317],['tijiao_random_2'],743.0459839350005,743.0459839350005,743.0459839350005,743.0459839350005,8.0375,1.6884708840007079,744.7538233949999,746.7262252670007,,,,,,,,,,,,,,,,,,,,,,,,,,,275,f,22,2023-04-04_14h48.22.406,RL,2022.2.4,59.11880803551007,
1,-0.3,-0.225,0,60,60,60,,,,,,,,,,None,746.7262252670007,746.7262252670007,746.7262252670007,746.7262252670007,746.7262252670007,746.7262252670007,i,0.356596929999796,747.1303862659988,747.1303862659988,747.1303862659988,747.1303862659988,747.1303862659988,747.1303862659988,747.3980457360012,747.3980457360012,749.369403916,749.369403916,749.4098595219984,749.4098595219984,749.4098595219984,749.4098595219984,749.4098595219984,749.4098595219984,749.4098595219984,749.4098595219984,749.4098595219984,749.4098595219984,749.4098595219984,749.4098595219984,749.4098595219984,749.4098595219984,749.4098595219984,41,79,67,5,67,44,None,None,,,[],[],[],[],[],[],[],0.6,1,751.9475703239987,751.9475703239987,751.9475703239987,751.9475703239987,751.9475703239987,751.9475703239987,751.9475703239987,751.9475703239987,0.010132398001587717,751.9475703239987,15,[0.06],[-0.325],[1],[0],[0],[5.208510838998336],['tijiao_random_2'],757.168419540998,757.168419540998,757.168419540998,757.168419540998,7.0625,2.7473658170019917,759.9347940209991,761.817342964001,,,,,,,,,,,,,,,,,,,,,,,,,,,275,f,22,2023-04-04_14h48.22.406,RL,2022.2.4,59.11880803551007,
0,0.3,0.225,0,61,61,61,,,,,,,,,,None,761.817342964001,761.817342964001,761.817342964001,761.817342964001,761.817342964001,761.817342964001,j,0.34598974699838436,762.2085955670009,762.2085955670009,762.2085955670009,762.2085955670009,762.2085955670009,762.2085955670009,762.4901119130009,762.4901119130009,763.9734981910005,763.9734981910005,763.9968394979987,763.9968394979987,763.9968394979987,763.9968394979987,763.9968394979987,763.9968394979987,763.9968394979987,763.9968394979987,763.9968394979987,763.9968394979987,763.9968394979987,763.9968394979987,763.9968394979987,763.9968394979987,763.9968394979987,42,69,65,6,6,52,None,None,40,40,[0.045],[-0.31125],[1],[0],[0],[7.278274274998694],['tijiao'],0.2,0,,,,,,,,,,,,[],[],[],[],[],[],[],773.8181410219986,773.8181410219986,773.8181410219986,773.8181410219986,7.0875,2.425107070001104,776.2620510060005,777.9915233770007,766.5097223269986,766.5097223269986,766.5097223269986,766.5097223269986,766.5097223269986,766.5097223269986,766.5097223269986,766.5097223269986,0.008633280001959065,766.5097223269986,,,,,,,,,,,,,,,,,275,f,22,2023-04-04_14h48.22.406,RL,2022.2.4,59.11880803551007,
1,-0.3,-0.225,0,62,62,62,,,,,,,,,,None,777.9915233770007,777.9915233770007,777.9915233770007,777.9915233770007,777.9915233770007,777.9915233770007,f,0.6016380930013838,778.6323669730009,778.6323669730009,778.6323669730009,778.6323669730009,778.6323669730009,778.6323669730009,778.916916326998,778.916916326998,779.8987681510007,779.8987681510007,779.9212049339985,779.9212049339985,779.9212049339985,779.9212049339985,779.9212049339985,779.9212049339985,779.9212049339985,779.9212049339985,779.9212049339985,779.9212049339985,779.9212049339985,779.9212049339985,779.9212049339985,779.9212049339985,779.9212049339985,47,75,62,9,75,44,4.0,1.9659617819997948,,,[],[],[],[],[],[],[],0.2,3,,,,,,,,,,,,[],[],[],[],[],[],[],,,,,None,None,784.4311540659983,786.0103205970008,,,,,,,,,,,782.4199313930003,782.4199313930003,782.4199313930003,782.4199313930003,782.4199313930003,,,,,,,,,,,,275,f,22,2023-04-04_14h48.22.406,RL,2022.2.4,59.11880803551007,
0,0.3,0.225,0,63,63,63,,,,,,,,,,None,786.0103205970008,786.0103205970008,786.0103205970008,786.0103205970008,786.0103205970008,786.0103205970008,r,0.874905813998339,786.9315717680001,786.9315717680001,786.9315717680001,786.9315717680001,786.9315717680001,786.9315717680001,787.2002617399994,787.2002617399994,789.1705127450005,789.1705127450005,789.209110380998,789.209110380998,789.209110380998,789.209110380998,789.209110380998,789.209110380998,789.209110380998,789.209110380998,789.209110380998,789.209110380998,789.209110380998,789.209110380998,789.209110380998,789.209110380998,789.209110380998,50,77,65,18,50,45,6.0,1.6015716529982456,,,[],[],[],[],[],[],[],0.6,2,,,,,,,,,,,,[],[],[],[],[],[],[],,,,,None,None,793.369141545998,795.0328885589988,,,,,,,,,,,791.7228029899998,791.7228029899998,791.7228029899998,791.7228029899998,791.7228029899998,,,,,,,,,,,,275,f,22,2023-04-04_14h48.22.406,RL,2022.2.4,59.11880803551007,
1,-0.3,-0.225,0,64,64,64,,,,,,,,,,None,795.0328885589988,795.0328885589988,795.0328885589988,795.0328885589988,795.0328885589988,795.0328885589988,f,0.5905375620022824,795.6685242559979,795.6685242559979,795.6685242559979,795.6685242559979,795.6685242559979,795.6685242559979,795.9386453000006,795.9386453000006,797.0579140949994,797.0579140949994,797.0956066520012,797.0956066520012,797.0956066520012,797.0956066520012,797.0956066520012,797.0956066520012,797.0956066520012,797.0956066520012,797.0956066520012,797.0956066520012,797.0956066520012,797.0956066520012,797.0956066520012,797.0956066520012,797.0956066520012,45,74,67,9,74,42,6.0,1.5299326470012602,,,[],[],[],[],[],[],[],-0.6,3,,,,,,,,,,,,[],[],[],[],[],[],[],,,,,None,None,801.1706691510008,802.8360526260003,,,,,,,,,,,799.5963956899977,799.5963956899977,799.5963956899977,799.5963956899977,799.5963956899977,,,,,,,,,,,,275,f,22,2023-04-04_14h48.22.406,RL,2022.2.4,59.11880803551007,
0,0.3,0.225,0,65,65,65,,,,,,,,,,None,802.8360526260003,802.8360526260003,802.8360526260003,802.8360526260003,802.8360526260003,802.8360526260003,i,0.5149988330013002,803.3885682849977,803.3885682849977,803.3885682849977,803.3885682849977,803.3885682849977,803.3885682849977,803.659689371998,803.659689371998,805.5953960879997,805.5953960879997,805.6372062679984,805.6372062679984,805.6372062679984,805.6372062679984,805.6372062679984,805.6372062679984,805.6372062679984,805.6372062679984,805.6372062679984,805.6372062679984,805.6372062679984,805.6372062679984,805.6372062679984,805.6372062679984,805.6372062679984,51,68,63,11,63,33,None,None,10,10,[0.1175],[-0.28125],[1],[0],[0],[4.430908663998707],['tijiao'],0.6,0,,,,,,,,,,,,[],[],[],[],[],[],[],812.6221513989985,812.6221513989985,812.6221513989985,812.6221513989985,10.1125,1.5264867340010824,814.1675780740006,815.942803861999,808.1604703209996,808.1604703209996,808.1604703209996,808.1604703209996,808.1604703209996,808.1604703209996,808.1604703209996,808.1604703209996,0.008602497000538278,808.1604703209996,,,,,,,,,,,,,,,,,275,f,22,2023-04-04_14h48.22.406,RL,2022.2.4,59.11880803551007,
1,-0.3,-0.225,0,66,66,66,,,,,,,,,,None,815.942803861999,815.942803861999,815.942803861999,815.942803861999,815.942803861999,815.942803861999,j,0.4563376249971043,816.4482539640012,816.4482539640012,816.4482539640012,816.4482539640012,816.4482539640012,816.4482539640012,816.7140805550007,816.7140805550007,818.0352711839987,818.0352711839987,818.0754717380005,818.0754717380005,818.0754717380005,818.0754717380005,818.0754717380005,818.0754717380005,818.0754717380005,818.0754717380005,818.0754717380005,818.0754717380005,818.0754717380005,818.0754717380005,818.0754717380005,818.0754717380005,818.0754717380005,44,74,61,11,11,34,None,None,55,55,[0.05875],[-0.27375],[1],[0],[0],[4.360845540999435],['tijiao'],0.6,0,,,,,,,,,,,,[],[],[],[],[],[],[],824.9778862380008,824.9778862380008,824.9778862380008,824.9778862380008,10.6875,2.128321161999338,827.123805176001,828.9321433069999,820.5866455750001,820.5866455750001,820.5866455750001,820.5866455750001,820.5866455750001,820.5866455750001,820.5866455750001,820.5866455750001,0.00820273000135785,820.5866455750001,,,,,,,,,,,,,,,,,275,f,22,2023-04-04_14h48.22.406,RL,2022.2.4,59.11880803551007,
0,0.3,0.225,0,67,67,67,,,,,,,,,,None,828.9321433069999,828.9321433069999,828.9321433069999,828.9321433069999,828.9321433069999,828.9321433069999,r,0.3302212700000382,829.3033084439994,829.3033084439994,829.3033084439994,829.3033084439994,829.3033084439994,829.3033084439994,829.5710743519994,829.5710743519994,830.7938143399988,830.7938143399988,830.8176907300003,830.8176907300003,830.8176907300003,830.8176907300003,830.8176907300003,830.8176907300003,830.8176907300003,830.8176907300003,830.8176907300003,830.8176907300003,830.8176907300003,830.8176907300003,830.8176907300003,830.8176907300003,830.8176907300003,43,72,61,18,43,37,None,None,,,[],[],[],[],[],[],[],0.2,1,833.3558615139991,833.3558615139991,833.3558615139991,833.3558615139991,833.3558615139991,833.3558615139991,833.3558615139991,833.3558615139991,0.010175801002333174,833.3558615139991,65,"[0.0325, 0.065]","[-0.355, -0.2975]","[1, 1]","[0, 0]","[0, 0]","[5.854451245002565, 6.351484209000773]",['tijiao_random_2'],839.7230390660006,839.7230390660006,839.7230390660006,839.7230390660006,9.925,2.325281459001417,842.0688829129977,843.9060825749984,,,,,,,,,,,,,,,,,,,,,,,,,,,275,f,22,2023-04-04_14h48.22.406,RL,2022.2.4,59.11880803551007,
1,-0.3,-0.225,0,68,68,68,,,,,,,,,,None,843.9060825749984,843.9060825749984,843.9060825749984,843.9060825749984,843.9060825749984,843.9060825749984,i,0.5296629069998744,844.4748997370007,844.4748997370007,844.4748997370007,844.4748997370007,844.4748997370007,844.4748997370007,844.7523758319985,844.7523758319985,846.2242679929986,846.2242679929986,846.244694904999,846.244694904999,846.244694904999,846.244694904999,846.244694904999,846.244694904999,846.244694904999,846.244694904999,846.244694904999,846.244694904999,846.244694904999,846.244694904999,846.244694904999,846.244694904999,846.244694904999,51,66,59,18,59,44,None,None,70,70,[0.05375],[-0.2675],[1],[0],[0],[6.6349133379990235],['tijiao'],-0.6,0,,,,,,,,,,,,[],[],[],[],[],[],[],855.4322085849999,855.4322085849999,855.4322085849999,855.4322085849999,9.0375,1.2594940609997138,856.7093522039977,858.2958378750009,848.7655326229979,848.7655326229979,848.7655326229979,848.7655326229979,848.7655326229979,848.7655326229979,848.7655326229979,848.7655326229979,0.00869294700169121,848.7655326229979,,,,,,,,,,,,,,,,,275,f,22,2023-04-04_14h48.22.406,RL,2022.2.4,59.11880803551007,
0,0.3,0.225,0,69,69,69,,,,,,,,,,None,858.2958378750009,858.2958378750009,858.2958378750009,858.2958378750009,858.2958378750009,858.2958378750009,f,0.4087102669982414,858.748712984001,858.748712984001,858.748712984001,858.748712984001,858.748712984001,858.748712984001,859.0178783709998,859.0178783709998,860.9620117160011,860.9620117160011,860.9994919929995,860.9994919929995,860.9994919929995,860.9994919929995,860.9994919929995,860.9994919929995,860.9994919929995,860.9994919929995,860.9994919929995,860.9994919929995,860.9994919929995,860.9994919929995,860.9994919929995,860.9994919929995,860.9994919929995,53,71,53,13,71,47,7.0,1.9728605080017587,,,[],[],[],[],[],[],[],-0.2,2,,,,,,,,,,,,[],[],[],[],[],[],[],,,,,None,None,865.5268734489982,867.2324490579995,,,,,,,,,,,863.5089071410002,863.5089071410002,863.5089071410002,863.5089071410002,863.5089071410002,,,,,,,,,,,,275,f,22,2023-04-04_14h48.22.406,RL,2022.2.4,59.11880803551007,
1,-0.3,-0.225,0,70,70,70,,,,,,,,,,None,867.2324490579995,867.2324490579995,867.2324490579995,867.2324490579995,867.2324490579995,867.2324490579995,i,0.724962044001586,868.0017674720002,868.0017674720002,868.0017674720002,868.0017674720002,868.0017674720002,868.0017674720002,868.2730575419992,868.2730575419992,869.2247147519993,869.2247147519993,869.2496084539998,869.2496084539998,869.2496084539998,869.2496084539998,869.2496084539998,869.2496084539998,869.2496084539998,869.2496084539998,869.2496084539998,869.2496084539998,869.2496084539998,869.2496084539998,869.2496084539998,869.2496084539998,869.2496084539998,58,70,56,8,56,39,7.0,1.6638640999990457,,,[],[],[],[],[],[],[],-0.6,3,,,,,,,,,,,,[],[],[],[],[],[],[],,,,,None,None,873.4596349149979,875.1198191349977,,,,,,,,,,,871.7541269600006,871.7541269600006,871.7541269600006,871.7541269600006,871.7541269600006,,,,,,,,,,,,275,f,22,2023-04-04_14h48.22.406,RL,2022.2.4,59.11880803551007,
0,0.3,0.225,0,71,71,71,,,,,,,,,,None,875.1198191349977,875.1198191349977,875.1198191349977,875.1198191349977,875.1198191349977,875.1198191349977,j,0.4865178969994304,875.6502458399991,875.6502458399991,875.6502458399991,875.6502458399991,875.6502458399991,875.6502458399991,875.9219697769986,875.9219697769986,877.607595393998,877.607595393998,877.6392787260011,877.6392787260011,877.6392787260011,877.6392787260011,877.6392787260011,877.6392787260011,877.6392787260011,877.6392787260011,877.6392787260011,877.6392787260011,877.6392787260011,877.6392787260011,877.6392787260011,877.6392787260011,877.6392787260011,62,54,52,14,14,35,None,None,15,15,[-0.00375],[-0.25125],[1],[0],[0],[5.738222580999718],['tijiao'],-0.6,0,,,,,,,,,,,,[],[],[],[],[],[],[],885.9583154459979,885.9583154459979,885.9583154459979,885.9583154459979,10.6875,1.666508567002893,887.6256877029991,889.2290408230001,880.1647902229997,880.1647902229997,880.1647902229997,880.1647902229997,880.1647902229997,880.1647902229997,880.1647902229997,880.1647902229997,0.009751027999300277,880.1647902229997,,,,,,,,,,,,,,,,,275,f,22,2023-04-04_14h48.22.406,RL,2022.2.4,59.11880803551007,
1,-0.3,-0.225,0,72,72,72,,,,,,,,,,None,889.2290408230001,889.2290408230001,889.2290408230001,889.2290408230001,889.2290408230001,889.2290408230001,j,0.46733067499735625,889.7379069560011,889.7379069560011,889.7379069560011,889.7379069560011,889.7379069560011,889.7379069560011,890.0159409570006,890.0159409570006,891.3700923159995,891.3700923159995,891.3967685299976,891.3967685299976,891.3967685299976,891.3967685299976,891.3967685299976,891.3967685299976,891.3967685299976,891.3967685299976,891.3967685299976,891.3967685299976,891.3967685299976,891.3967685299976,891.3967685299976,891.3967685299976,891.3967685299976,56,72,59,11,11,46,7.0,1.4796613149992481,,,[],[],[],[],[],[],[],0.6,2,,,,,,,,,,,,[],[],[],[],[],[],[],,,,,None,None,895.4324806369987,897.3972241320007,,,,,,,,,,,893.9066761449976,893.9066761449976,893.9066761449976,893.9066761449976,893.9066761449976,,,,,,,,,,,,275,f,22,2023-04-04_14h48.22.406,RL,2022.2.4,59.11880803551007,
0,0.3,0.225,0,73,73,73,,,,,,,,,,None,897.3972241320007,897.3972241320007,897.3972241320007,897.3972241320007,897.3972241320007,897.3972241320007,r,0.6180574619975232,898.068040954,898.068040954,898.068040954,898.068040954,898.068040954,898.068040954,898.3412359319991,898.3412359319991,899.2767531339996,899.2767531339996,899.3165270879981,899.3165270879981,899.3165270879981,899.3165270879981,899.3165270879981,899.3165270879981,899.3165270879981,899.3165270879981,899.3165270879981,899.3165270879981,899.3165270879981,899.3165270879981,899.3165270879981,899.3165270879981,899.3165270879981,52,66,66,5,52,38,None,None,,,[],[],[],[],[],[],[],-0.6,1,901.8513423119985,901.8513423119985,901.8513423119985,901.8513423119985,901.8513423119985,901.8513423119985,901.8513423119985,901.8513423119985,0.010835318997123977,901.8513423119985,50,[0.01625],[-0.3175],[1],[0],[0],[5.115593996000825],['tijiao_random_2'],906.9932038340012,906.9932038340012,906.9932038340012,906.9932038340012,11,1.676103914000123,908.6817682590008,910.4904236670009,,,,,,,,,,,,,,,,,,,,,,,,,,,275,f,22,2023-04-04_14h48.22.406,RL,2022.2.4,59.11880803551007,
1,-0.3,-0.225,0,74,74,74,,,,,,,,,,None,910.4904236670009,910.4904236670009,910.4904236670009,910.4904236670009,910.4904236670009,910.4904236670009,r,0.553171650000877,911.099867039,911.099867039,911.099867039,911.099867039,911.099867039,911.099867039,911.372005483001,911.372005483001,912.7268400079993,912.7268400079993,912.7503151809979,912.7503151809979,912.7503151809979,912.7503151809979,912.7503151809979,912.7503151809979,912.7503151809979,912.7503151809979,912.7503151809979,912.7503151809979,912.7503151809979,912.7503151809979,912.7503151809979,912.7503151809979,912.7503151809979,54,68,60,8,54,40,7.0,1.2833951669999806,,,[],[],[],[],[],[],[],0.2,3,,,,,,,,,,,,[],[],[],[],[],[],[],,,,,None,None,916.5769950030008,918.188735142001,,,,,,,,,,,915.2481948409986,915.2481948409986,915.2481948409986,915.2481948409986,915.2481948409986,,,,,,,,,,,,275,f,22,2023-04-04_14h48.22.406,RL,2022.2.4,59.11880803551007,
0,0.3,0.225,0,75,75,75,,,,,,,,,,q,1021.7444475039993,1021.7444475039993,1021.7444475039993,1021.7444475039993,1021.7444475039993,1021.7444475039993,f,0.7888454500025546,1022.5815958620005,1022.5815958620005,1022.5815958620005,1022.5815958620005,1022.5815958620005,1022.5815958620005,1022.8630685319986,1022.8630685319986,1024.8181992930004,1024.8181992930004,1024.8416610870008,1024.8416610870008,1024.8416610870008,1024.8416610870008,1024.8416610870008,1024.8416610870008,1024.8416610870008,1024.8416610870008,1024.8416610870008,1024.8416610870008,1024.8416610870008,1024.8416610870008,1024.8416610870008,1024.8416610870008,1024.8416610870008,47,64,61,10,64,31,None,None,,,[],[],[],[],[],[],[],-0.2,1,1027.3684119950012,1027.3684119950012,1027.3684119950012,1027.3684119950012,1027.3684119950012,1027.3684119950012,1027.3684119950012,1027.3684119950012,0.009719008001411567,1027.3684119950012,65,[0.05125],[-0.32],[1],[0],[0],[5.273685359999945],['tijiao_random_2'],1032.6565234699992,1032.6565234699992,1032.6565234699992,1032.6565234699992,11.0,1.93267515199841,1034.6051208499994,1036.5801953089976,,,,,,,,,,,,,,,,,,918.188735142001,918.188735142001,103.51627642600215,,,,,,,275,f,22,2023-04-04_14h48.22.406,RL,2022.2.4,59.11880803551007,
1,-0.3,-0.225,0,76,76,76,,,,,,,,,,None,1036.5801953089976,1036.5801953089976,1036.5801953089976,1036.5801953089976,1036.5801953089976,1036.5801953089976,f,0.4363261250000505,1037.0541969549995,1037.0541969549995,1037.0541969549995,1037.0541969549995,1037.0541969549995,1037.0541969549995,1037.3228335839995,1037.3228335839995,1038.340103300001,1038.340103300001,1038.3630830389993,1038.3630830389993,1038.3630830389993,1038.3630830389993,1038.3630830389993,1038.3630830389993,1038.3630830389993,1038.3630830389993,1038.3630830389993,1038.3630830389993,1038.3630830389993,1038.3630830389993,1038.3630830389993,1038.3630830389993,1038.3630830389993,48,66,58,15,66,36,None,None,,,[],[],[],[],[],[],[],0.6,1,1040.9041962400006,1040.9041962400006,1040.9041962400006,1040.9041962400006,1040.9041962400006,1040.9041962400006,1040.9041962400006,1040.9041962400006,0.011091316002421081,1040.9041962400006,15,[0.10125],[-0.28625],[1],[0],[0],[6.131882198998937],['tijiao_random_2'],1047.0508397640006,1047.0508397640006,1047.0508397640006,1047.0508397640006,7.075,3.2433228859990777,1050.3333986819998,1052.106124498001,,,,,,,,,,,,,,,,,,,,,,,,,,,275,f,22,2023-04-04_14h48.22.406,RL,2022.2.4,59.11880803551007,
0,0.3,0.225,0,77,77,77,,,,,,,,,,None,1052.106124498001,1052.106124498001,1052.106124498001,1052.106124498001,1052.106124498001,1052.106124498001,j,0.4936519559996668,1052.6452533249976,1052.6452533249976,1052.6452533249976,1052.6452533249976,1052.6452533249976,1052.6452533249976,1052.908880846,1052.908880846,1053.9583450940008,1053.9583450940008,1054.0064855109995,1054.0064855109995,1054.0064855109995,1054.0064855109995,1054.0064855109995,1054.0064855109995,1054.0064855109995,1054.0064855109995,1054.0064855109995,1054.0064855109995,1054.0064855109995,1054.0064855109995,1054.0064855109995,1054.0064855109995,1054.0064855109995,53,59,60,18,18,43,None,None,65,65,[0.10125],[-0.335],[1],[0],[0],[6.339663931001269],['tijiao'],0.2,0,,,,,,,,,,,,[],[],[],[],[],[],[],1062.8965863619997,1062.8965863619997,1062.8965863619997,1062.8965863619997,6.8125,2.3643156819998694,1065.2844902180004,1067.0969011630004,1056.5271604779991,1056.5271604779991,1056.5271604779991,1056.5271604779991,1056.5271604779991,1056.5271604779991,1056.5271604779991,1056.5271604779991,0.01214717900074902,1056.5271604779991,,,,,,,,,,,,,,,,,275,f,22,2023-04-04_14h48.22.406,RL,2022.2.4,59.11880803551007,
1,-0.3,-0.225,0,78,78,78,,,,,,,,,,None,1067.0969011630004,1067.0969011630004,1067.0969011630004,1067.0969011630004,1067.0969011630004,1067.0969011630004,i,0.7044610409975576,1067.8469625729995,1067.8469625729995,1067.8469625729995,1067.8469625729995,1067.8469625729995,1067.8469625729995,1068.1187592969982,1068.1187592969982,1069.1396241900002,1069.1396241900002,1069.1799309800008,1069.1799309800008,1069.1799309800008,1069.1799309800008,1069.1799309800008,1069.1799309800008,1069.1799309800008,1069.1799309800008,1069.1799309800008,1069.1799309800008,1069.1799309800008,1069.1799309800008,1069.1799309800008,1069.1799309800008,1069.1799309800008,46,74,62,7,62,34,None,None,,,[],[],[],[],[],[],[],-0.2,1,1071.7349796220005,1071.7349796220005,1071.7349796220005,1071.7349796220005,1071.7349796220005,1071.7349796220005,1071.7349796220005,1071.7349796220005,0.014910946996678831,1071.7349796220005,60,[0.05375],[-0.31875],[1],[0],[0],[4.889834606998193],['tijiao_random_2'],1076.6359202569984,1076.6359202569984,1076.6359202569984,1076.6359202569984,8.075,2.0478208829990763,1078.70357564,1080.365564833999,,,,,,,,,,,,,,,,,,,,,,,,,,,275,f,22,2023-04-04_14h48.22.406,RL,2022.2.4,59.11880803551007,
0,0.3,0.225,0,79,79,79,,,,,,,,,,None,1080.365564833999,1080.365564833999,1080.365564833999,1080.365564833999,1080.365564833999,1080.365564833999,f,0.35357022500102175,1080.7725635200004,1080.7725635200004,1080.7725635200004,1080.7725635200004,1080.7725635200004,1080.7725635200004,1081.0375065439985,1081.0375065439985,1082.7632128629994,1082.7632128629994,1082.809576699001,1082.809576699001,1082.809576699001,1082.809576699001,1082.809576699001,1082.809576699001,1082.809576699001,1082.809576699001,1082.809576699001,1082.809576699001,1082.809576699001,1082.809576699001,1082.809576699001,1082.809576699001,1082.809576699001,48,53,61,4,53,45,6.0,1.7861017570030526,,,[],[],[],[],[],[],[],0.6,2,,,,,,,,,,,,[],[],[],[],[],[],[],,,,,None,None,1087.138219534001,1089.0554052259977,,,,,,,,,,,1085.3017887269998,1085.3017887269998,1085.3017887269998,1085.3017887269998,1085.3017887269998,,,,,,,,,,,,275,f,22,2023-04-04_14h48.22.406,RL,2022.2.4,59.11880803551007,
1,-0.3,-0.225,0,80,80,80,,,,,,,,,,None,1089.0554052259977,1089.0554052259977,1089.0554052259977,1089.0554052259977,1089.0554052259977,1089.0554052259977,r,0.4879776800007676,1089.589957862001,1089.589957862001,1089.589957862001,1089.589957862001,1089.589957862001,1089.589957862001,1089.861649221999,1089.861649221999,1091.0917021450005,1091.0917021450005,1091.1353770019996,1091.1353770019996,1091.1353770019996,1091.1353770019996,1091.1353770019996,1091.1353770019996,1091.1353770019996,1091.1353770019996,1091.1353770019996,1091.1353770019996,1091.1353770019996,1091.1353770019996,1091.1353770019996,1091.1353770019996,1091.1353770019996,42,65,59,5,42,49,None,None,60,60,[0.095],[-0.28125],[1],[0],[0],[6.958377686998574],['tijiao'],-0.6,0,,,,,,,,,,,,[],[],[],[],[],[],[],1100.645261796999,1100.645261796999,1100.645261796999,1100.645261796999,10.0,1.9539965160001884,1102.6252000450004,1104.2125083169994,1093.6567515940005,1093.6567515940005,1093.6567515940005,1093.6567515940005,1093.6567515940005,1093.6567515940005,1093.6567515940005,1093.6567515940005,0.009492778997810092,1093.6567515940005,,,,,,,,,,,,,,,,,275,f,22,2023-04-04_14h48.22.406,RL,2022.2.4,59.11880803551007,
0,0.3,0.225,0,81,81,81,,,,,,,,,,None,1104.2125083169994,1104.2125083169994,1104.2125083169994,1104.2125083169994,1104.2125083169994,1104.2125083169994,f,0.30951482800082886,1104.565841282998,1104.565841282998,1104.565841282998,1104.565841282998,1104.565841282998,1104.565841282998,1104.8349149530004,1104.8349149530004,1106.4534217209984,1106.4534217209984,1106.4947473479988,1106.4947473479988,1106.4947473479988,1106.4947473479988,1106.4947473479988,1106.4947473479988,1106.4947473479988,1106.4947473479988,1106.4947473479988,1106.4947473479988,1106.4947473479988,1106.4947473479988,1106.4947473479988,1106.4947473479988,1106.4947473479988,28,64,65,15,64,52,7.0,1.499783679999382,,,[],[],[],[],[],[],[],-0.2,2,,,,,,,,,,,,[],[],[],[],[],[],[],,,,,None,None,1110.5506774099995,1112.3489763750003,,,,,,,,,,,1109.0061601279995,1109.0061601279995,1109.0061601279995,1109.0061601279995,1109.0061601279995,,,,,,,,,,,,275,f,22,2023-04-04_14h48.22.406,RL,2022.2.4,59.11880803551007,
1,-0.3,-0.225,0,82,82,82,,,,,,,,,,None,1112.3489763750003,1112.3489763750003,1112.3489763750003,1112.3489763750003,1112.3489763750003,1112.3489763750003,r,0.6604969809995964,1113.0532831149976,1113.0532831149976,1113.0532831149976,1113.0532831149976,1113.0532831149976,1113.0532831149976,1113.3224670189993,1113.3224670189993,1114.8927030560008,1114.8927030560008,1114.9317650390003,1114.9317650390003,1114.9317650390003,1114.9317650390003,1114.9317650390003,1114.9317650390003,1114.9317650390003,1114.9317650390003,1114.9317650390003,1114.9317650390003,1114.9317650390003,1114.9317650390003,1114.9317650390003,1114.9317650390003,1114.9317650390003,36,69,63,14,36,48,7.0,1.6668818030011607,,,[],[],[],[],[],[],[],0.6,2,,,,,,,,,,,,[],[],[],[],[],[],[],,,,,None,None,1119.1391237339994,1120.9857948309982,,,,,,,,,,,1117.4280202089976,1117.4280202089976,1117.4280202089976,1117.4280202089976,1117.4280202089976,,,,,,,,,,,,275,f,22,2023-04-04_14h48.22.406,RL,2022.2.4,59.11880803551007,
0,0.3,0.225,0,83,83,83,,,,,,,,,,None,1120.9857948309982,1120.9857948309982,1120.9857948309982,1120.9857948309982,1120.9857948309982,1120.9857948309982,None,,,,,,,,,,,,,,,,,,,,,,,,,,,39,62,59,7,0,**,None,None,,,[],[],[],[],[],[],[],0.2,2,,,,,,,,,,,,[],[],[],[],[],[],[],,,,,None,None,1128.5384221899985,1130.1912233389994,,,,,,,,,,,,,,,,1122.534663686998,1128.5384221899985,,,,1122.534663686998,1122.534663686998,1122.534663686998,1122.534663686998,1122.534663686998,1122.534663686998,275,f,22,2023-04-04_14h48.22.406,RL,2022.2.4,59.11880803551007,
1,-0.3,-0.225,0,84,84,84,,,,,,,,,,None,1130.1912233389994,1130.1912233389994,1130.1912233389994,1130.1912233389994,1130.1912233389994,1130.1912233389994,r,0.8543668019992765,1131.0946543399987,1131.0946543399987,1131.0946543399987,1131.0946543399987,1131.0946543399987,1131.0946543399987,1131.3648275759988,1131.3648275759988,1133.3527722129984,1133.3527722129984,1133.3919659540006,1133.3919659540006,1133.3919659540006,1133.3919659540006,1133.3919659540006,1133.3919659540006,1133.3919659540006,1133.3919659540006,1133.3919659540006,1133.3919659540006,1133.3919659540006,1133.3919659540006,1133.3919659540006,1133.3919659540006,1133.3919659540006,42,64,60,8,42,43,6.0,1.2572884740002337,,,[],[],[],[],[],[],[],0.6,2,,,,,,,,,,,,[],[],[],[],[],[],[],,,,,None,None,1137.2093999200006,1138.8947091480004,,,,,,,,,,,1135.907968989999,1135.907968989999,1135.907968989999,1135.907968989999,1135.907968989999,,,,,,,,,,,,275,f,22,2023-04-04_14h48.22.406,RL,2022.2.4,59.11880803551007,
0,0.3,0.225,0,85,85,85,,,,,,,,,,None,1138.8947091480004,1138.8947091480004,1138.8947091480004,1138.8947091480004,1138.8947091480004,1138.8947091480004,j,0.5261582740022277,1139.462472575,1139.462472575,1139.462472575,1139.462472575,1139.462472575,1139.462472575,1139.734546093001,1139.734546093001,1140.6552070590005,1140.6552070590005,1140.6780479560002,1140.6780479560002,1140.6780479560002,1140.6780479560002,1140.6780479560002,1140.6780479560002,1140.6780479560002,1140.6780479560002,1140.6780479560002,1140.6780479560002,1140.6780479560002,1140.6780479560002,1140.6780479560002,1140.6780479560002,1140.6780479560002,36,62,60,8,8,51,None,None,,,[],[],[],[],[],[],[],0.2,1,1143.2073437199979,1143.2073437199979,1143.2073437199979,1143.2073437199979,1143.2073437199979,1143.2073437199979,1143.2073437199979,1143.2073437199979,0.009730383000714937,1143.2073437199979,65,[0.02125],[-0.285],[1],[0],[0],[3.5927636430023995],['tijiao_random_2'],1146.8182699600002,1146.8182699600002,1146.8182699600002,1146.8182699600002,9.0125,1.763288238998939,1148.5995574320004,1150.1500900290011,,,,,,,,,,,,,,,,,,,,,,,,,,,275,f,22,2023-04-04_14h48.22.406,RL,2022.2.4,59.11880803551007,
1,-0.3,-0.225,0,86,86,86,,,,,,,,,,None,1150.1500900290011,1150.1500900290011,1150.1500900290011,1150.1500900290011,1150.1500900290011,1150.1500900290011,i,0.49927675200160593,1150.7035869259998,1150.7035869259998,1150.7035869259998,1150.7035869259998,1150.7035869259998,1150.7035869259998,1150.9742187169977,1150.9742187169977,1151.9230347599987,1151.9230347599987,1151.963317425998,1151.963317425998,1151.963317425998,1151.963317425998,1151.963317425998,1151.963317425998,1151.963317425998,1151.963317425998,1151.963317425998,1151.963317425998,1151.963317425998,1151.963317425998,1151.963317425998,1151.963317425998,1151.963317425998,40,59,60,11,60,48,None,None,55,55,[-0.0225],[-0.32],[1],[0],[0],[5.926244663998659],['tijiao'],0.2,0,,,,,,,,,,,,[],[],[],[],[],[],[],1160.4358491079984,1160.4358491079984,1160.4358491079984,1160.4358491079984,7.925,1.4386788929987233,1161.8931159189997,1163.6910142390007,1154.4801353209987,1154.4801353209987,1154.4801353209987,1154.4801353209987,1154.4801353209987,1154.4801353209987,1154.4801353209987,1154.4801353209987,0.008514901001035469,1154.4801353209987,,,,,,,,,,,,,,,,,275,f,22,2023-04-04_14h48.22.406,RL,2022.2.4,59.11880803551007,
0,0.3,0.225,0,87,87,87,,,,,,,,,,None,1163.6910142390007,1163.6910142390007,1163.6910142390007,1163.6910142390007,1163.6910142390007,1163.6910142390007,f,0.3407974399997329,1164.0770814999996,1164.0770814999996,1164.0770814999996,1164.0770814999996,1164.0770814999996,1164.0770814999996,1164.3464097309989,1164.3464097309989,1165.7260751680005,1165.7260751680005,1165.7481199360009,1165.7481199360009,1165.7481199360009,1165.7481199360009,1165.7481199360009,1165.7481199360009,1165.7481199360009,1165.7481199360009,1165.7481199360009,1165.7481199360009,1165.7481199360009,1165.7481199360009,1165.7481199360009,1165.7481199360009,1165.7481199360009,49,62,54,3,62,57,None,None,,,[],[],[],[],[],[],[],0.6,1,1168.2769977870012,1168.2769977870012,1168.2769977870012,1168.2769977870012,1168.2769977870012,1168.2769977870012,1168.2769977870012,1168.2769977870012,0.010739508001279319,1168.2769977870012,10,[0.1025],[-0.29625],[1],[0],[0],[4.075307936000172],['tijiao_random_2'],1172.365697688998,1172.365697688998,1172.365697688998,1172.365697688998,10.025,1.7543084659992019,1174.1393023329983,1175.6960845770009,,,,,,,,,,,,,,,,,,,,,,,,,,,275,f,22,2023-04-04_14h48.22.406,RL,2022.2.4,59.11880803551007,
1,-0.3,-0.225,0,88,88,88,,,,,,,,,,None,1175.6960845770009,1175.6960845770009,1175.6960845770009,1175.6960845770009,1175.6960845770009,1175.6960845770009,i,0.48732187900168356,1176.2311713819981,1176.2311713819981,1176.2311713819981,1176.2311713819981,1176.2311713819981,1176.2311713819981,1176.502390501999,1176.502390501999,1178.307156603998,1178.307156603998,1178.3456738889981,1178.3456738889981,1178.3456738889981,1178.3456738889981,1178.3456738889981,1178.3456738889981,1178.3456738889981,1178.3456738889981,1178.3456738889981,1178.3456738889981,1178.3456738889981,1178.3456738889981,1178.3456738889981,1178.3456738889981,1178.3456738889981,43,58,65,9,65,31,None,None,,,[],[],[],[],[],[],[],-0.6,1,1180.8828707129978,1180.8828707129978,1180.8828707129978,1180.8828707129978,1180.8828707129978,1180.8828707129978,1180.8828707129978,1180.8828707129978,0.009984686999814585,1180.8828707129978,45,[0.00875],[-0.29],[1],[0],[0],[4.176633068997035],['tijiao_random_2'],1185.0727579220002,1185.0727579220002,1185.0727579220002,1185.0727579220002,8.85,0.9074039289989742,1186.0154726619985,1187.8026420099995,,,,,,,,,,,,,,,,,,,,,,,,,,,275,f,22,2023-04-04_14h48.22.406,RL,2022.2.4,59.11880803551007,
0,0.3,0.225,0,89,89,89,,,,,,,,,,None,1187.8026420099995,1187.8026420099995,1187.8026420099995,1187.8026420099995,1187.8026420099995,1187.8026420099995,f,0.49859307400038233,1188.3578570110003,1188.3578570110003,1188.3578570110003,1188.3578570110003,1188.3578570110003,1188.3578570110003,1188.6243340859983,1188.6243340859983,1190.0936347509996,1190.0936347509996,1190.1325526750006,1190.1325526750006,1190.1325526750006,1190.1325526750006,1190.1325526750006,1190.1325526750006,1190.1325526750006,1190.1325526750006,1190.1325526750006,1190.1325526750006,1190.1325526750006,1190.1325526750006,1190.1325526750006,1190.1325526750006,1190.1325526750006,38,63,67,6,63,51,None,None,65,65,[0.10375],[-0.295],[1],[0],[0],[4.046420917999058],['tijiao'],-0.2,0,,,,,,,,,,,,[],[],[],[],[],[],[],1196.740641766999,1196.740641766999,1196.740641766999,1196.740641766999,10.1,1.806674084997212,1198.5662192249983,1200.3248986779981,1192.6619782249982,1192.6619782249982,1192.6619782249982,1192.6619782249982,1192.6619782249982,1192.6619782249982,1192.6619782249982,1192.6619782249982,0.00892091000059736,1192.6619782249982,,,,,,,,,,,,,,,,,275,f,22,2023-04-04_14h48.22.406,RL,2022.2.4,59.11880803551007,
1,-0.3,-0.225,0,90,90,90,,,,,,,,,,None,1200.3248986779981,1200.3248986779981,1200.3248986779981,1200.3248986779981,1200.3248986779981,1200.3248986779981,i,0.5566141219969722,1200.9283335929977,1200.9283335929977,1200.9283335929977,1200.9283335929977,1200.9283335929977,1200.9283335929977,1201.1974281679977,1201.1974281679977,1202.6695920429993,1202.6695920429993,1202.7080997739977,1202.7080997739977,1202.7080997739977,1202.7080997739977,1202.7080997739977,1202.7080997739977,1202.7080997739977,1202.7080997739977,1202.7080997739977,1202.7080997739977,1202.7080997739977,1202.7080997739977,1202.7080997739977,1202.7080997739977,1202.7080997739977,37,63,49,14,49,59,None,None,50,50,[0.155],[-0.30875],[1],[0],[0],[3.704215835001378],['tijiao'],0.6,0,,,,,,,,,,,,[],[],[],[],[],[],[],1208.9590794350006,1208.9590794350006,1208.9590794350006,1208.9590794350006,9.925,1.2664629030005017,1210.241435560998,1212.2128320720003,1205.2257111899999,1205.2257111899999,1205.2257111899999,1205.2257111899999,1205.2257111899999,1205.2257111899999,1205.2257111899999,1205.2257111899999,0.009121540999331046,1205.2257111899999,,,,,,,,,,,,,,,,,275,f,22,2023-04-04_14h48.22.406,RL,2022.2.4,59.11880803551007,
0,0.3,0.225,0,91,91,91,,,,,,,,,,None,1212.2128320720003,1212.2128320720003,1212.2128320720003,1212.2128320720003,1212.2128320720003,1212.2128320720003,i,0.34461337799803005,1212.6005145579984,1212.6005145579984,1212.6005145579984,1212.6005145579984,1212.6005145579984,1212.6005145579984,1212.871375669998,1212.871375669998,1214.4921261189993,1214.4921261189993,1214.5148967489986,1214.5148967489986,1214.5148967489986,1214.5148967489986,1214.5148967489986,1214.5148967489986,1214.5148967489986,1214.5148967489986,1214.5148967489986,1214.5148967489986,1214.5148967489986,1214.5148967489986,1214.5148967489986,1214.5148967489986,1214.5148967489986,43,61,73,11,73,51,None,None,65,65,[0.1375],[-0.26625],[1],[0],[0],[6.773011571000097],['tijiao'],-0.6,0,,,,,,,,,,,,[],[],[],[],[],[],[],1223.848054473001,1223.848054473001,1223.848054473001,1223.848054473001,9.0625,1.4336507370026084,1225.2979040239989,1226.9367399879993,1217.0424194740008,1217.0424194740008,1217.0424194740008,1217.0424194740008,1217.0424194740008,1217.0424194740008,1217.0424194740008,1217.0424194740008,0.009152157999778865,1217.0424194740008,,,,,,,,,,,,,,,,,275,f,22,2023-04-04_14h48.22.406,RL,2022.2.4,59.11880803551007,
