bandit0,black_x_pos_random,black_y_pos_random,trials.thisRepN,trials.thisTrialN,trials.thisN,trials.thisIndex,instru_img1.started,instru_resp.started,instru_resp.keys,instru_resp.rt,instru_img2.started,instru_resp2.started,instru_resp2.keys,instru_resp2.rt,fixbefore_2.started,rest_response.keys,red.started,green.started,yellow.started,blue.started,choose_bandit.started,Fixation.started,choose_bandit.keys,choose_bandit.rt,black.started,red_2.started,green_2.started,yellow_2.started,blue_2.started,fixation_2.started,docs.started,wait_playerB.started,docs.stopped,wait_playerB.stopped,black.stopped,red_2.stopped,green_2.stopped,yellow_2.stopped,blue_2.stopped,fixation_2.stopped,black_com.started,reward_sub.started,palyerb.started,reward__sub.started,compare.started,red_compare.started,green_com.started,yellow_com.started,blue_com.started,rewardyellow,rewardred,rewardblue,rewardgreen,subchoose,playerb,slider.response,slider.rt,expectself.started,expect_self_black.started,expect_self.started,expect_self_red.started,expect_self_green.started,expect_self_yellow.started,expect_self_blue.started,tijiao.started,tijiao_click.started,check.started,expectself.text,value_expect_self,tijiao_click.x,tijiao_click.y,tijiao_click.leftButton,tijiao_click.midButton,tijiao_click.rightButton,tijiao_click.time,tijiao_click.clicked_name,random_whicharm,whether_ask,expect_random_3.text,tijiao_random.x,tijiao_random.y,tijiao_random.leftButton,tijiao_random.midButton,tijiao_random.rightButton,tijiao_random.time,tijiao_random.clicked_name,slider_2.started,image_7.started,confi.started,notconfi.started,slider_2.response,slider_2.rt,intertrialfix.started,intertrialfix.stopped,image_3.started,slider.started,text.started,image_4.started,image_5.started,jiantou_random.started,expect_red.started,expect_green.started,expect_yellow.started,expect_blue.started,expect_random_2.started,expect_random_3.started,tijiao_random_2.started,tijiao_random.started,check_2.started,bigx.started,bigx.stopped,rest_image.started,rest_response.started,rest_response.rt,participant,Gender,Age,date,expName,psychopyVersion,frameRate,
,,,,,,,27.633211500011384,27.633211500011384,space,1.7689418999943882,,,,,,,,,,,,,,,,,,,,,,,,,,,,,,,,,,,,,,,,,,,,,,,,,,,,,,,,,,,,,,,,,,,,,,,,,,,,,,,,,,,,,,,,,,,,,,,,,,,,,,,,,276,f,23,2023-04-04_14h48.37.235,RL,2022.2.4,60.30261049138401,
,,,,,,,,,,,29.442884600022808,29.442884600022808,s,8.156474400078878,,,,,,,,,,,,,,,,,,,,,,,,,,,,,,,,,,,,,,,,,,,,,,,,,,,,,,,,,,,,,,,,,,,,,,,,,,,,,,,,,,,,,,,,,,,,,,,,,,,,,276,f,23,2023-04-04_14h48.37.235,RL,2022.2.4,60.30261049138401,
1,-0.3,-0.225,0,0,0,0,,,,,,,,,37.62338130013086,None,38.649146400159225,38.649146400159225,38.649146400159225,38.649146400159225,38.649146400159225,38.649146400159225,j,0.25312020001001656,38.94963930011727,38.94963930011727,38.94963930011727,38.94963930011727,38.94963930011727,38.94963930011727,39.23401390016079,39.23401390016079,40.56366640003398,40.56366640003398,40.58230540016666,40.58230540016666,40.58230540016666,40.58230540016666,40.58230540016666,40.58230540016666,40.58230540016666,40.58230540016666,40.58230540016666,40.58230540016666,40.58230540016666,40.58230540016666,40.58230540016666,40.58230540016666,40.58230540016666,45,49,39,64,64,37,None,None,43.115885000210255,43.115885000210255,43.115885000210255,43.115885000210255,43.115885000210255,43.115885000210255,43.115885000210255,43.115885000210255,0.006587299983948469,43.115885000210255,60,60,[-0.037037037037037035],[-0.3101851851851852],[1],[0],[0],[7.587922299979255],['tijiao'],0.2,0,,[],[],[],[],[],[],[],50.81814830005169,50.81814830005169,50.81814830005169,50.81814830005169,4.944444444444445,3.195513099897653,54.06721060001291,56.07130160019733,,,,,,,,,,,,,,,,,,,,,276,f,23,2023-04-04_14h48.37.235,RL,2022.2.4,60.30261049138401,
0,0.3,0.225,0,1,1,1,,,,,,,,,,None,56.07130160019733,56.07130160019733,56.07130160019733,56.07130160019733,56.07130160019733,56.07130160019733,r,0.38492240011692047,56.493583200033754,56.493583200033754,56.493583200033754,56.493583200033754,56.493583200033754,56.493583200033754,56.78589770011604,56.78589770011604,57.96605370007455,57.96605370007455,57.96605370007455,57.96605370007455,57.96605370007455,57.96605370007455,57.96605370007455,57.96605370007455,57.96605370007455,57.96605370007455,57.96605370007455,57.96605370007455,57.96605370007455,57.96605370007455,57.96605370007455,57.96605370007455,57.96605370007455,46,54,39,57,46,62,4.0,3.490222299937159,,,,,,,,,,,,,[],[],[],[],[],[],[],-0.2,3,,[],[],[],[],[],[],[],,,,,None,None,64.0003439001739,65.92750300001353,60.475893900031224,60.475893900031224,60.475893900031224,60.475893900031224,60.475893900031224,,,,,,,,,,,,,,,,276,f,23,2023-04-04_14h48.37.235,RL,2022.2.4,60.30261049138401,
1,-0.3,-0.225,0,2,2,2,,,,,,,,,,None,65.92750300001353,65.92750300001353,65.92750300001353,65.92750300001353,65.92750300001353,65.92750300001353,j,0.3740934000816196,66.33011630014516,66.33011630014516,66.33011630014516,66.33011630014516,66.33011630014516,66.33011630014516,66.62619090010412,66.62619090010412,68.4378959001042,68.4378959001042,68.4378959001042,68.4378959001042,68.4378959001042,68.4378959001042,68.4378959001042,68.4378959001042,68.4378959001042,68.4378959001042,68.4378959001042,68.4378959001042,68.4378959001042,68.4378959001042,68.4378959001042,68.4378959001042,68.4378959001042,40,50,37,62,62,31,5.0,2.974400900071487,,,,,,,,,,,,,[],[],[],[],[],[],[],0.6,2,,[],[],[],[],[],[],[],,,,,None,None,73.94987270003185,75.8673117000144,70.9468843000941,70.9468843000941,70.9468843000941,70.9468843000941,70.9468843000941,,,,,,,,,,,,,,,,276,f,23,2023-04-04_14h48.37.235,RL,2022.2.4,60.30261049138401,
0,0.3,0.225,0,3,3,3,,,,,,,,,,None,75.8673117000144,75.8673117000144,75.8673117000144,75.8673117000144,75.8673117000144,75.8673117000144,r,0.5499283999670297,76.44963000016287,76.44963000016287,76.44963000016287,76.44963000016287,76.44963000016287,76.44963000016287,76.7484552001115,76.7484552001115,78.19458870007657,78.19458870007657,78.19458870007657,78.19458870007657,78.19458870007657,78.19458870007657,78.19458870007657,78.19458870007657,78.19458870007657,78.19458870007657,78.19458870007657,78.19458870007657,78.19458870007657,78.19458870007657,78.19458870007657,78.19458870007657,78.19458870007657,40,38,30,61,40,64,None,None,80.70694710011594,80.70694710011594,80.70694710011594,80.70694710011594,80.70694710011594,80.70694710011594,80.70694710011594,80.70694710011594,0.00840090005658567,80.70694710011594,30,30,[0.13055555555555556],[-0.29074074074074074],[1],[0],[0],[7.94948359997943],['tijiao'],-0.6,0,,[],[],[],[],[],[],[],88.67851800005883,88.67851800005883,88.67851800005883,88.67851800005883,6.0,4.6711933999322355,93.36843330017291,95.31383980019018,,,,,,,,,,,,,,,,,,,,,276,f,23,2023-04-04_14h48.37.235,RL,2022.2.4,60.30261049138401,
1,-0.3,-0.225,0,4,4,4,,,,,,,,,,None,95.31383980019018,95.31383980019018,95.31383980019018,95.31383980019018,95.31383980019018,95.31383980019018,j,0.4441994000226259,95.78018220001832,95.78018220001832,95.78018220001832,95.78018220001832,95.78018220001832,95.78018220001832,96.0790606001392,96.0790606001392,97.79074640013278,97.79074640013278,97.79074640013278,97.79074640013278,97.79074640013278,97.79074640013278,97.79074640013278,97.79074640013278,97.79074640013278,97.79074640013278,97.79074640013278,97.79074640013278,97.79074640013278,97.79074640013278,97.79074640013278,97.79074640013278,97.79074640013278,40,40,30,64,64,67,4.0,0.8807308000978082,,,,,,,,,,,,,[],[],[],[],[],[],[],-0.6,2,,[],[],[],[],[],[],[],,,,,None,None,101.20846480014734,103.14291590009816,100.29978690017015,100.29978690017015,100.29978690017015,100.29978690017015,100.29978690017015,,,,,,,,,,,,,,,,276,f,23,2023-04-04_14h48.37.235,RL,2022.2.4,60.30261049138401,
0,0.3,0.225,0,5,5,5,,,,,,,,,,None,103.14291590009816,103.14291590009816,103.14291590009816,103.14291590009816,103.14291590009816,103.14291590009816,i,0.8224271000362933,103.99834670010023,103.99834670010023,103.99834670010023,103.99834670010023,103.99834670010023,103.99834670010023,104.28987410012633,104.28987410012633,105.83528030011803,105.83528030011803,105.8519020001404,105.8519020001404,105.8519020001404,105.8519020001404,105.8519020001404,105.8519020001404,105.8519020001404,105.8519020001404,105.8519020001404,105.8519020001404,105.8519020001404,105.8519020001404,105.8519020001404,105.8519020001404,105.8519020001404,42,40,32,57,32,44,None,None,,,,,,,,,,,,,[],[],[],[],[],[],[],0.2,1,44,[0.018518518518518517],[-0.29814814814814816],[1],[0],[0],[9.903936799848452],['tijiao_random_2'],118.28786150016822,118.28786150016822,118.28786150016822,118.28786150016822,5.111111111111111,3.2855085998307914,121.59181990008801,123.5207620000001,,,,,,108.37458110018633,108.37458110018633,108.37458110018633,108.37458110018633,108.37458110018633,108.37458110018633,108.37458110018633,108.37458110018633,0.00693949987180531,108.37458110018633,,,,,,276,f,23,2023-04-04_14h48.37.235,RL,2022.2.4,60.30261049138401,
1,-0.3,-0.225,0,6,6,6,,,,,,,,,,None,123.5207620000001,123.5207620000001,123.5207620000001,123.5207620000001,123.5207620000001,123.5207620000001,f,0.7104636998847127,124.25969030009583,124.25969030009583,124.25969030009583,124.25969030009583,124.25969030009583,124.25969030009583,124.55142970010638,124.55142970010638,126.26282680011354,126.26282680011354,126.27969120000489,126.27969120000489,126.27969120000489,126.27969120000489,126.27969120000489,126.27969120000489,126.27969120000489,126.27969120000489,126.27969120000489,126.27969120000489,126.27969120000489,126.27969120000489,126.27969120000489,126.27969120000489,126.27969120000489,39,52,25,58,52,68,3.0,2.293161999899894,,,,,,,,,,,,,[],[],[],[],[],[],[],-0.6,2,,[],[],[],[],[],[],[],,,,,None,None,131.1091202001553,133.0113946001511,128.78866550000384,128.78866550000384,128.78866550000384,128.78866550000384,128.78866550000384,,,,,,,,,,,,,,,,276,f,23,2023-04-04_14h48.37.235,RL,2022.2.4,60.30261049138401,
0,0.3,0.225,0,7,7,7,,,,,,,,,,None,133.0113946001511,133.0113946001511,133.0113946001511,133.0113946001511,133.0113946001511,133.0113946001511,r,0.2908058001194149,133.3290176000446,133.3290176000446,133.3290176000446,133.3290176000446,133.3290176000446,133.3290176000446,133.62650650017895,133.62650650017895,135.22222260013223,135.22222260013223,135.22222260013223,135.22222260013223,135.22222260013223,135.22222260013223,135.22222260013223,135.22222260013223,135.22222260013223,135.22222260013223,135.22222260013223,135.22222260013223,135.22222260013223,135.22222260013223,135.22222260013223,135.22222260013223,135.22222260013223,33,48,28,56,33,70,3.0,2.176595199853182,,,,,,,,,,,,,[],[],[],[],[],[],[],-0.2,2,,[],[],[],[],[],[],[],,,,,None,None,139.93383900006302,141.90352599998005,137.73134630010463,137.73134630010463,137.73134630010463,137.73134630010463,137.73134630010463,,,,,,,,,,,,,,,,276,f,23,2023-04-04_14h48.37.235,RL,2022.2.4,60.30261049138401,
1,-0.3,-0.225,0,8,8,8,,,,,,,,,,None,141.90352599998005,141.90352599998005,141.90352599998005,141.90352599998005,141.90352599998005,141.90352599998005,i,0.3204721000511199,142.25426060007885,142.25426060007885,142.25426060007885,142.25426060007885,142.25426060007885,142.25426060007885,142.55187240010127,142.55187240010127,144.18111450015567,144.18111450015567,144.18111450015567,144.18111450015567,144.18111450015567,144.18111450015567,144.18111450015567,144.18111450015567,144.18111450015567,144.18111450015567,144.18111450015567,144.18111450015567,144.18111450015567,144.18111450015567,144.18111450015567,144.18111450015567,144.18111450015567,52,46,30,51,30,65,3.0,1.9606778000015765,,,,,,,,,,,,,[],[],[],[],[],[],[],-0.6,2,,[],[],[],[],[],[],[],,,,,None,None,148.67557890014723,150.4304978,146.69011120009236,146.69011120009236,146.69011120009236,146.69011120009236,146.69011120009236,,,,,,,,,,,,,,,,276,f,23,2023-04-04_14h48.37.235,RL,2022.2.4,60.30261049138401,
0,0.3,0.225,0,9,9,9,,,,,,,,,,None,150.4304978,150.4304978,150.4304978,150.4304978,150.4304978,150.4304978,i,0.5903797999490052,151.04559050011449,151.04559050011449,151.04559050011449,151.04559050011449,151.04559050011449,151.04559050011449,151.34507140005007,151.34507140005007,152.9072914000135,152.9072914000135,152.9072914000135,152.9072914000135,152.9072914000135,152.9072914000135,152.9072914000135,152.9072914000135,152.9072914000135,152.9072914000135,152.9072914000135,152.9072914000135,152.9072914000135,152.9072914000135,152.9072914000135,152.9072914000135,152.9072914000135,41,50,26,55,26,61,2.0,2.0106375999748707,,,,,,,,,,,,,[],[],[],[],[],[],[],0.2,2,,[],[],[],[],[],[],[],,,,,None,None,157.4546968000941,159.3228808999993,155.41605010000058,155.41605010000058,155.41605010000058,155.41605010000058,155.41605010000058,,,,,,,,,,,,,,,,276,f,23,2023-04-04_14h48.37.235,RL,2022.2.4,60.30261049138401,
1,-0.3,-0.225,0,10,10,10,,,,,,,,,,None,159.3228808999993,159.3228808999993,159.3228808999993,159.3228808999993,159.3228808999993,159.3228808999993,j,0.5787965999916196,159.92201160010882,159.92201160010882,159.92201160010882,159.92201160010882,159.92201160010882,159.92201160010882,160.2203792000655,160.2203792000655,162.16549400007352,162.16549400007352,162.16549400007352,162.16549400007352,162.16549400007352,162.16549400007352,162.16549400007352,162.16549400007352,162.16549400007352,162.16549400007352,162.16549400007352,162.16549400007352,162.16549400007352,162.16549400007352,162.16549400007352,162.16549400007352,162.16549400007352,45,38,24,52,52,61,None,None,,,,,,,,,,,,,[],[],[],[],[],[],[],-0.2,1,40,[0.07592592592592592],[-0.32685185185185184],[1],[0],[0],[7.079188600182533],['tijiao_random_2'],171.77540859999135,171.77540859999135,171.77540859999135,171.77540859999135,6.009259259259259,2.2042428001295775,173.9984252001159,175.9109956000466,,,,,,164.68388480017893,164.68388480017893,164.68388480017893,164.68388480017893,164.68388480017893,164.68388480017893,164.68388480017893,164.68388480017893,0.007013200083747506,164.68388480017893,,,,,,276,f,23,2023-04-04_14h48.37.235,RL,2022.2.4,60.30261049138401,
0,0.3,0.225,0,11,11,11,,,,,,,,,,None,175.9109956000466,175.9109956000466,175.9109956000466,175.9109956000466,175.9109956000466,175.9109956000466,j,1.0744991002138704,177.00847840006463,177.00847840006463,177.00847840006463,177.00847840006463,177.00847840006463,177.00847840006463,177.30737220006995,177.30737220006995,179.2352605999913,179.2352605999913,179.2352605999913,179.2352605999913,179.2352605999913,179.2352605999913,179.2352605999913,179.2352605999913,179.2352605999913,179.2352605999913,179.2352605999913,179.2352605999913,179.2352605999913,179.2352605999913,179.2352605999913,179.2352605999913,179.2352605999913,36,54,17,49,49,51,None,None,,,,,,,,,,,,,[],[],[],[],[],[],[],-0.6,1,50,[-0.18611111111111112],[-0.3138888888888889],[1],[0],[0],[4.370046500116587],['tijiao_random_2'],186.13649070006795,186.13649070006795,186.13649070006795,186.13649070006795,6.148148148148149,2.0215899001341313,188.17631290014833,190.12192010018043,,,,,,181.7531020999886,181.7531020999886,181.7531020999886,181.7531020999886,181.7531020999886,181.7531020999886,181.7531020999886,181.7531020999886,0.006276100175455213,181.7531020999886,,,,,,276,f,23,2023-04-04_14h48.37.235,RL,2022.2.4,60.30261049138401,
1,-0.3,-0.225,0,12,12,12,,,,,,,,,,None,190.12192010018043,190.12192010018043,190.12192010018043,190.12192010018043,190.12192010018043,190.12192010018043,r,0.555576000129804,190.70454629999585,190.70454629999585,190.70454629999585,190.70454629999585,190.70454629999585,190.70454629999585,191.00337080005556,191.00337080005556,192.2665546000935,192.2665546000935,192.2665546000935,192.2665546000935,192.2665546000935,192.2665546000935,192.2665546000935,192.2665546000935,192.2665546000935,192.2665546000935,192.2665546000935,192.2665546000935,192.2665546000935,192.2665546000935,192.2665546000935,192.2665546000935,192.2665546000935,42,54,33,49,42,73,None,None,194.77797779999673,194.77797779999673,194.77797779999673,194.77797779999673,194.77797779999673,194.77797779999673,194.77797779999673,194.77797779999673,0.007307499879971147,194.77797779999673,43,43,[0.001851851851851852],[-0.2675925925925926],[1],[0],[0],[4.925925399875268],['tijiao'],0.2,0,,[],[],[],[],[],[],[],199.72694790014066,199.72694790014066,199.72694790014066,199.72694790014066,6.018518518518519,4.703196800081059,204.44857570016757,206.3945287000388,,,,,,,,,,,,,,,,,,,,,276,f,23,2023-04-04_14h48.37.235,RL,2022.2.4,60.30261049138401,
0,0.3,0.225,0,13,13,13,,,,,,,,,,None,206.3945287000388,206.3945287000388,206.3945287000388,206.3945287000388,206.3945287000388,206.3945287000388,j,0.4473838999401778,206.86152560007758,206.86152560007758,206.86152560007758,206.86152560007758,206.86152560007758,206.86152560007758,207.15911290002987,207.15911290002987,208.12340090004727,208.12340090004727,208.12340090004727,208.12340090004727,208.12340090004727,208.12340090004727,208.12340090004727,208.12340090004727,208.12340090004727,208.12340090004727,208.12340090004727,208.12340090004727,208.12340090004727,208.12340090004727,208.12340090004727,208.12340090004727,208.12340090004727,48,55,21,54,54,65,2.0,4.5037585000973195,,,,,,,,,,,,,[],[],[],[],[],[],[],0.2,2,,[],[],[],[],[],[],[],,,,,None,None,215.16124380007386,216.88195830001496,210.63222850020975,210.63222850020975,210.63222850020975,210.63222850020975,210.63222850020975,,,,,,,,,,,,,,,,276,f,23,2023-04-04_14h48.37.235,RL,2022.2.4,60.30261049138401,
1,-0.3,-0.225,0,14,14,14,,,,,,,,,,None,216.88195830001496,216.88195830001496,216.88195830001496,216.88195830001496,216.88195830001496,216.88195830001496,j,0.3452646001242101,217.250085900072,217.250085900072,217.250085900072,217.250085900072,217.250085900072,217.250085900072,217.54726180015132,217.54726180015132,219.19283429998904,219.19283429998904,219.19283429998904,219.19283429998904,219.19283429998904,219.19283429998904,219.19283429998904,219.19283429998904,219.19283429998904,219.19283429998904,219.19283429998904,219.19283429998904,219.19283429998904,219.19283429998904,219.19283429998904,219.19283429998904,219.19283429998904,41,48,25,58,58,34,None,None,,,,,,,,,,,,,[],[],[],[],[],[],[],0.2,1,34,[-0.11388888888888889],[-0.29907407407407405],[1],[0],[0],[6.430436499882489],['tijiao_random_2'],228.15655379998498,228.15655379998498,228.15655379998498,228.15655379998498,6.046296296296297,2.3197523998096585,230.49424630007707,232.34017770015635,,,,,,221.71208880003542,221.71208880003542,221.71208880003542,221.71208880003542,221.71208880003542,221.71208880003542,221.71208880003542,221.71208880003542,0.006982200080528855,221.71208880003542,,,,,,276,f,23,2023-04-04_14h48.37.235,RL,2022.2.4,60.30261049138401,
0,0.3,0.225,0,15,15,15,,,,,,,,,,None,232.34017770015635,232.34017770015635,232.34017770015635,232.34017770015635,232.34017770015635,232.34017770015635,j,0.7126883000601083,233.07446130015887,233.07446130015887,233.07446130015887,233.07446130015887,233.07446130015887,233.07446130015887,233.37108579999767,233.37108579999767,235.26577160018496,235.26577160018496,235.2821434000507,235.2821434000507,235.2821434000507,235.2821434000507,235.2821434000507,235.2821434000507,235.2821434000507,235.2821434000507,235.2821434000507,235.2821434000507,235.2821434000507,235.2821434000507,235.2821434000507,235.2821434000507,235.2821434000507,52,53,20,70,70,67,None,None,,,,,,,,,,,,,[],[],[],[],[],[],[],-0.6,1,40,[0.018518518518518517],[-0.30462962962962964],[1],[0],[0],[8.02731729997322],['tijiao_random_2'],245.84137720009312,245.84137720009312,245.84137720009312,245.84137720009312,7.046296296296296,2.9013275001198053,248.76120360009372,250.40752600017004,,,,,,237.80005660001189,237.80005660001189,237.80005660001189,237.80005660001189,237.80005660001189,237.80005660001189,237.80005660001189,237.80005660001189,0.006354200188070536,237.80005660001189,,,,,,276,f,23,2023-04-04_14h48.37.235,RL,2022.2.4,60.30261049138401,
1,-0.3,-0.225,0,16,16,16,,,,,,,,,,None,250.40752600017004,250.40752600017004,250.40752600017004,250.40752600017004,250.40752600017004,250.40752600017004,j,0.33300579991191626,250.77359700016677,250.77359700016677,250.77359700016677,250.77359700016677,250.77359700016677,250.77359700016677,251.07280860003084,251.07280860003084,253.03393060015514,253.03393060015514,253.03393060015514,253.03393060015514,253.03393060015514,253.03393060015514,253.03393060015514,253.03393060015514,253.03393060015514,253.03393060015514,253.03393060015514,253.03393060015514,253.03393060015514,253.03393060015514,253.03393060015514,253.03393060015514,253.03393060015514,45,49,30,64,64,42,5.0,2.09358419990167,,,,,,,,,,,,,[],[],[],[],[],[],[],0.6,3,,[],[],[],[],[],[],[],,,,,None,None,257.66391590004787,259.53276630002074,255.5432304001879,255.5432304001879,255.5432304001879,255.5432304001879,255.5432304001879,,,,,,,,,,,,,,,,276,f,23,2023-04-04_14h48.37.235,RL,2022.2.4,60.30261049138401,
0,0.3,0.225,0,17,17,17,,,,,,,,,,None,259.53276630002074,259.53276630002074,259.53276630002074,259.53276630002074,259.53276630002074,259.53276630002074,j,0.6093860000837594,260.164689600002,260.164689600002,260.164689600002,260.164689600002,260.164689600002,260.164689600002,260.4634267000947,260.4634267000947,262.39178430009633,262.39178430009633,262.408032100182,262.408032100182,262.408032100182,262.408032100182,262.408032100182,262.408032100182,262.408032100182,262.408032100182,262.408032100182,262.408032100182,262.408032100182,262.408032100182,262.408032100182,262.408032100182,262.408032100182,51,50,25,65,65,74,None,None,,,,,,,,,,,,,[],[],[],[],[],[],[],-0.2,1,77,[0.08425925925925926],[-0.28703703703703703],[1],[0],[0],[7.742466299794614],['tijiao_random_2'],272.68769580009393,272.68769580009393,272.68769580009393,272.68769580009393,7.027777777777778,2.0195642998442054,274.7235695000272,276.63593230000697,,,,,,264.9287936000619,264.9287936000619,264.9287936000619,264.9287936000619,264.9287936000619,264.9287936000619,264.9287936000619,264.9287936000619,0.0067703998647630215,264.9287936000619,,,,,,276,f,23,2023-04-04_14h48.37.235,RL,2022.2.4,60.30261049138401,
1,-0.3,-0.225,0,18,18,18,,,,,,,,,,None,276.63593230000697,276.63593230000697,276.63593230000697,276.63593230000697,276.63593230000697,276.63593230000697,f,0.44129569991491735,277.10368910012767,277.10368910012767,277.10368910012767,277.10368910012767,277.10368910012767,277.10368910012767,277.40076520014554,277.40076520014554,279.1128487000242,279.1128487000242,279.1128487000242,279.1128487000242,279.1128487000242,279.1128487000242,279.1128487000242,279.1128487000242,279.1128487000242,279.1128487000242,279.1128487000242,279.1128487000242,279.1128487000242,279.1128487000242,279.1128487000242,279.1128487000242,279.1128487000242,55,56,26,61,56,79,None,None,281.62302250019275,281.62302250019275,281.62302250019275,281.62302250019275,281.62302250019275,281.62302250019275,281.62302250019275,281.62302250019275,0.006021399982273579,281.62302250019275,45,45,[0.10092592592592593],[-0.2777777777777778],[1],[0],[0],[5.642218099907041],['tijiao'],0.6,0,,[],[],[],[],[],[],[],287.2854784000665,287.2854784000665,287.2854784000665,287.2854784000665,7.018518518518519,1.8298364002257586,289.13469130010344,290.68106380011886,,,,,,,,,,,,,,,,,,,,,276,f,23,2023-04-04_14h48.37.235,RL,2022.2.4,60.30261049138401,
0,0.3,0.225,0,19,19,19,,,,,,,,,,None,290.68106380011886,290.68106380011886,290.68106380011886,290.68106380011886,290.68106380011886,290.68106380011886,j,0.7320063998922706,291.44618930015713,291.44618930015713,291.44618930015713,291.44618930015713,291.44618930015713,291.44618930015713,291.7446739000734,291.7446739000734,292.90816730004735,292.90816730004735,292.90816730004735,292.90816730004735,292.90816730004735,292.90816730004735,292.90816730004735,292.90816730004735,292.90816730004735,292.90816730004735,292.90816730004735,292.90816730004735,292.90816730004735,292.90816730004735,292.90816730004735,292.90816730004735,292.90816730004735,59,48,34,65,65,68,None,None,,,,,,,,,,,,,[],[],[],[],[],[],[],-0.2,1,50,[0.12314814814814815],[-0.26296296296296295],[1],[0],[0],[5.598146500065923],['tijiao_random_2'],301.040074700024,301.040074700024,301.040074700024,301.040074700024,5.305555555555555,4.4975284999236465,305.55598390009254,307.2526175000239,,,,,,295.4288312001154,295.4288312001154,295.4288312001154,295.4288312001154,295.4288312001154,295.4288312001154,295.4288312001154,295.4288312001154,0.006988999899476767,295.4288312001154,,,,,,276,f,23,2023-04-04_14h48.37.235,RL,2022.2.4,60.30261049138401,
1,-0.3,-0.225,0,20,20,20,,,,,,,,,,None,307.2526175000239,307.2526175000239,307.2526175000239,307.2526175000239,307.2526175000239,307.2526175000239,j,1.2547224001027644,308.5359444001224,308.5359444001224,308.5359444001224,308.5359444001224,308.5359444001224,308.5359444001224,308.8316461001523,308.8316461001523,310.24435480008833,310.24435480008833,310.24435480008833,310.24435480008833,310.24435480008833,310.24435480008833,310.24435480008833,310.24435480008833,310.24435480008833,310.24435480008833,310.24435480008833,310.24435480008833,310.24435480008833,310.24435480008833,310.24435480008833,310.24435480008833,310.24435480008833,58,52,34,68,68,71,3.0,1.7946471001487225,,,,,,,,,,,,,[],[],[],[],[],[],[],-0.2,2,,[],[],[],[],[],[],[],,,,,None,None,314.5740120999981,316.17788410000503,312.7536514000967,312.7536514000967,312.7536514000967,312.7536514000967,312.7536514000967,,,,,,,,,,,,,,,,276,f,23,2023-04-04_14h48.37.235,RL,2022.2.4,60.30261049138401,
0,0.3,0.225,0,21,21,21,,,,,,,,,,None,316.17788410000503,316.17788410000503,316.17788410000503,316.17788410000503,316.17788410000503,316.17788410000503,i,0.481239200104028,316.67726030014455,316.67726030014455,316.67726030014455,316.67726030014455,316.67726030014455,316.67726030014455,316.9762401001062,316.9762401001062,318.8874854000751,318.8874854000751,318.8874854000751,318.8874854000751,318.8874854000751,318.8874854000751,318.8874854000751,318.8874854000751,318.8874854000751,318.8874854000751,318.8874854000751,318.8874854000751,318.8874854000751,318.8874854000751,318.8874854000751,318.8874854000751,318.8874854000751,53,51,42,59,42,78,None,None,321.3991260000039,321.3991260000039,321.3991260000039,321.3991260000039,321.3991260000039,321.3991260000039,321.3991260000039,321.3991260000039,0.007120799971744418,321.3991260000039,42,42,[-0.05185185185185185],[-0.31574074074074077],[1],[0],[0],[6.139035400003195],['tijiao'],0.6,0,,[],[],[],[],[],[],[],327.56035690009594,327.56035690009594,327.56035690009594,327.56035690009594,6.953703703703703,3.341430800035596,330.920201000059,332.450442600064,,,,,,,,,,,,,,,,,,,,,276,f,23,2023-04-04_14h48.37.235,RL,2022.2.4,60.30261049138401,
1,-0.3,-0.225,0,22,22,22,,,,,,,,,,None,332.450442600064,332.450442600064,332.450442600064,332.450442600064,332.450442600064,332.450442600064,j,0.5385517999529839,333.0161174000241,333.0161174000241,333.0161174000241,333.0161174000241,333.0161174000241,333.0161174000241,333.3151783000212,333.3151783000212,334.17887940001674,334.17887940001674,334.17887940001674,334.17887940001674,334.17887940001674,334.17887940001674,334.17887940001674,334.17887940001674,334.17887940001674,334.17887940001674,334.17887940001674,334.17887940001674,334.17887940001674,334.17887940001674,334.17887940001674,334.17887940001674,334.17887940001674,47,48,38,62,62,83,3.0,2.309871699893847,,,,,,,,,,,,,[],[],[],[],[],[],[],0.6,3,,[],[],[],[],[],[],[],,,,,None,None,339.0232063999865,341.0269560001325,336.68788980017416,336.68788980017416,336.68788980017416,336.68788980017416,336.68788980017416,,,,,,,,,,,,,,,,276,f,23,2023-04-04_14h48.37.235,RL,2022.2.4,60.30261049138401,
0,0.3,0.225,0,23,23,23,,,,,,,,,,None,341.0269560001325,341.0269560001325,341.0269560001325,341.0269560001325,341.0269560001325,341.0269560001325,r,0.4340518999379128,341.4931625002064,341.4931625002064,341.4931625002064,341.4931625002064,341.4931625002064,341.4931625002064,341.7918964000419,341.7918964000419,343.0217862999998,343.0217862999998,343.0217862999998,343.0217862999998,343.0217862999998,343.0217862999998,343.0217862999998,343.0217862999998,343.0217862999998,343.0217862999998,343.0217862999998,343.0217862999998,343.0217862999998,343.0217862999998,343.0217862999998,343.0217862999998,343.0217862999998,46,44,37,59,46,87,1.0,2.027138999896124,,,,,,,,,,,,,[],[],[],[],[],[],[],-0.6,2,,[],[],[],[],[],[],[],,,,,None,None,347.5851963001769,349.58719540014863,345.530992800137,345.530992800137,345.530992800137,345.530992800137,345.530992800137,,,,,,,,,,,,,,,,276,f,23,2023-04-04_14h48.37.235,RL,2022.2.4,60.30261049138401,
1,-0.3,-0.225,0,24,24,24,,,,,,,,,,None,349.58719540014863,349.58719540014863,349.58719540014863,349.58719540014863,349.58719540014863,349.58719540014863,r,0.7716514999046922,350.3853455001954,350.3853455001954,350.3853455001954,350.3853455001954,350.3853455001954,350.3853455001954,350.68416150007397,350.68416150007397,352.19674440007657,352.19674440007657,352.19674440007657,352.19674440007657,352.19674440007657,352.19674440007657,352.19674440007657,352.19674440007657,352.19674440007657,352.19674440007657,352.19674440007657,352.19674440007657,352.19674440007657,352.19674440007657,352.19674440007657,352.19674440007657,352.19674440007657,45,42,32,69,45,79,1.0,1.2957819998264313,,,,,,,,,,,,,[],[],[],[],[],[],[],0.6,3,,[],[],[],[],[],[],[],,,,,None,None,356.02843110007234,357.5817710000556,354.7059654002078,354.7059654002078,354.7059654002078,354.7059654002078,354.7059654002078,,,,,,,,,,,,,,,,276,f,23,2023-04-04_14h48.37.235,RL,2022.2.4,60.30261049138401,
0,0.3,0.225,0,25,25,25,,,,,,,,,,None,357.5817710000556,357.5817710000556,357.5817710000556,357.5817710000556,357.5817710000556,357.5817710000556,f,0.4951573999132961,358.09958320017904,358.09958320017904,358.09958320017904,358.09958320017904,358.09958320017904,358.09958320017904,358.3964764000848,358.3964764000848,360.4076513000764,360.4076513000764,360.4076513000764,360.4076513000764,360.4076513000764,360.4076513000764,360.4076513000764,360.4076513000764,360.4076513000764,360.4076513000764,360.4076513000764,360.4076513000764,360.4076513000764,360.4076513000764,360.4076513000764,360.4076513000764,360.4076513000764,41,44,26,60,44,91,1.0,1.2960014999844134,,,,,,,,,,,,,[],[],[],[],[],[],[],0.2,2,,[],[],[],[],[],[],[],,,,,None,None,364.24090050021186,365.825717800064,362.9168252001982,362.9168252001982,362.9168252001982,362.9168252001982,362.9168252001982,,,,,,,,,,,,,,,,276,f,23,2023-04-04_14h48.37.235,RL,2022.2.4,60.30261049138401,
1,-0.3,-0.225,0,26,26,26,,,,,,,,,,None,365.825717800064,365.825717800064,365.825717800064,365.825717800064,365.825717800064,365.825717800064,j,1.2678422001190484,367.1237426002044,367.1237426002044,367.1237426002044,367.1237426002044,367.1237426002044,367.1237426002044,367.4219473002013,367.4219473002013,368.53568550013006,368.53568550013006,368.53568550013006,368.53568550013006,368.53568550013006,368.53568550013006,368.53568550013006,368.53568550013006,368.53568550013006,368.53568550013006,368.53568550013006,368.53568550013006,368.53568550013006,368.53568550013006,368.53568550013006,368.53568550013006,368.53568550013006,47,49,35,74,74,87,None,None,371.0465222999919,371.0465222999919,371.0465222999919,371.0465222999919,371.0465222999919,371.0465222999919,371.0465222999919,371.0465222999919,0.006837400142103434,371.0465222999919,74,74,[-0.12314814814814815],[-0.2824074074074074],[1],[0],[0],[5.757680800044909],['tijiao'],-0.2,0,,[],[],[],[],[],[],[],376.82527870009653,376.82527870009653,376.82527870009653,376.82527870009653,6.083333333333333,2.427724099950865,379.27197330002673,381.1839529001154,,,,,,,,,,,,,,,,,,,,,276,f,23,2023-04-04_14h48.37.235,RL,2022.2.4,60.30261049138401,
0,0.3,0.225,0,27,27,27,,,,,,,,,,None,381.1839529001154,381.1839529001154,381.1839529001154,381.1839529001154,381.1839529001154,381.1839529001154,i,1.3858620000537485,382.59852180001326,382.59852180001326,382.59852180001326,382.59852180001326,382.59852180001326,382.59852180001326,382.89604600006714,382.89604600006714,384.2924385999795,384.2924385999795,384.3091186999809,384.3091186999809,384.3091186999809,384.3091186999809,384.3091186999809,384.3091186999809,384.3091186999809,384.3091186999809,384.3091186999809,384.3091186999809,384.3091186999809,384.3091186999809,384.3091186999809,384.3091186999809,384.3091186999809,49,49,30,75,30,23,None,None,,,,,,,,,,,,,[],[],[],[],[],[],[],-0.6,1,60,[0.018518518518518517],[-0.26851851851851855],[1],[0],[0],[6.097249199869111],['tijiao_random_2'],392.94031580002047,392.94031580002047,392.94031580002047,392.94031580002047,5.027777777777778,2.4521240999456495,395.4108686000109,397.3732169000432,,,,,,386.8289260000456,386.8289260000456,386.8289260000456,386.8289260000456,386.8289260000456,386.8289260000456,386.8289260000456,386.8289260000456,0.006501500029116869,386.8289260000456,,,,,,276,f,23,2023-04-04_14h48.37.235,RL,2022.2.4,60.30261049138401,
1,-0.3,-0.225,0,28,28,28,,,,,,,,,,None,397.3732169000432,397.3732169000432,397.3732169000432,397.3732169000432,397.3732169000432,397.3732169000432,i,1.0031179999932647,398.4053114000708,398.4053114000708,398.4053114000708,398.4053114000708,398.4053114000708,398.4053114000708,398.70287859998643,398.70287859998643,400.6808652000036,400.6808652000036,400.6808652000036,400.6808652000036,400.6808652000036,400.6808652000036,400.6808652000036,400.6808652000036,400.6808652000036,400.6808652000036,400.6808652000036,400.6808652000036,400.6808652000036,400.6808652000036,400.6808652000036,400.6808652000036,400.6808652000036,41,49,38,64,38,71,3.0,2.0772512999828905,,,,,,,,,,,,,[],[],[],[],[],[],[],-0.2,3,,[],[],[],[],[],[],[],,,,,None,None,405.2925382000394,407.0963766002096,403.18984210002236,403.18984210002236,403.18984210002236,403.18984210002236,403.18984210002236,,,,,,,,,,,,,,,,276,f,23,2023-04-04_14h48.37.235,RL,2022.2.4,60.30261049138401,
0,0.3,0.225,0,29,29,29,,,,,,,,,,None,407.0963766002096,407.0963766002096,407.0963766002096,407.0963766002096,407.0963766002096,407.0963766002096,j,0.4862823998555541,407.61273880000226,407.61273880000226,407.61273880000226,407.61273880000226,407.61273880000226,407.61273880000226,407.9114785999991,407.9114785999991,409.7229761001654,409.7229761001654,409.7229761001654,409.7229761001654,409.7229761001654,409.7229761001654,409.7229761001654,409.7229761001654,409.7229761001654,409.7229761001654,409.7229761001654,409.7229761001654,409.7229761001654,409.7229761001654,409.7229761001654,409.7229761001654,409.7229761001654,40,52,29,65,65,95,3.0,2.343553700018674,,,,,,,,,,,,,[],[],[],[],[],[],[],0.6,3,,[],[],[],[],[],[],[],,,,,None,None,414.6014929001685,416.27157770004123,412.2318826999981,412.2318826999981,412.2318826999981,412.2318826999981,412.2318826999981,,,,,,,,,,,,,,,,276,f,23,2023-04-04_14h48.37.235,RL,2022.2.4,60.30261049138401,
1,-0.3,-0.225,0,30,30,30,,,,,,,,,,None,416.27157770004123,416.27157770004123,416.27157770004123,416.27157770004123,416.27157770004123,416.27157770004123,r,1.0086860000155866,417.30310370004736,417.30310370004736,417.30310370004736,417.30310370004736,417.30310370004736,417.30310370004736,417.60167860006914,417.60167860006914,418.5823554000817,418.5823554000817,418.5823554000817,418.5823554000817,418.5823554000817,418.5823554000817,418.5823554000817,418.5823554000817,418.5823554000817,418.5823554000817,418.5823554000817,418.5823554000817,418.5823554000817,418.5823554000817,418.5823554000817,418.5823554000817,418.5823554000817,35,43,30,58,35,98,None,None,421.0939661001321,421.0939661001321,421.0939661001321,421.0939661001321,421.0939661001321,421.0939661001321,421.0939661001321,421.0939661001321,0.00724560022354126,421.0939661001321,40,40,[-0.12962962962962962],[-0.2759259259259259],[1],[0],[0],[4.627114000031725],['tijiao'],-0.6,0,,[],[],[],[],[],[],[],425.74153730017133,425.74153730017133,425.74153730017133,425.74153730017133,7.935185185185185,4.322654100134969,430.082802799996,432.0117772000376,,,,,,,,,,,,,,,,,,,,,276,f,23,2023-04-04_14h48.37.235,RL,2022.2.4,60.30261049138401,
0,0.3,0.225,0,31,31,31,,,,,,,,,,None,432.0117772000376,432.0117772000376,432.0117772000376,432.0117772000376,432.0117772000376,432.0117772000376,f,0.7452855000738055,432.7775032001082,432.7775032001082,432.7775032001082,432.7775032001082,432.7775032001082,432.7775032001082,433.07578910002485,433.07578910002485,434.67163790017366,434.67163790017366,434.67163790017366,434.67163790017366,434.67163790017366,434.67163790017366,434.67163790017366,434.67163790017366,434.67163790017366,434.67163790017366,434.67163790017366,434.67163790017366,434.67163790017366,434.67163790017366,434.67163790017366,434.67163790017366,434.67163790017366,31,40,38,55,40,46,None,None,,,,,,,,,,,,,[],[],[],[],[],[],[],0.6,1,73,[0.1398148148148148],[-0.31296296296296294],[1],[0],[0],[4.234635100001469],['tijiao_random_2'],441.4419752000831,441.4419752000831,441.4419752000831,441.4419752000831,7.9259259259259265,1.9369872999377549,443.3971018001903,444.9268563000951,,,,,,437.19241680018604,437.19241680018604,437.19241680018604,437.19241680018604,437.19241680018604,437.19241680018604,437.19241680018604,437.19241680018604,0.006989600136876106,437.19241680018604,,,,,,276,f,23,2023-04-04_14h48.37.235,RL,2022.2.4,60.30261049138401,
1,-0.3,-0.225,0,32,32,32,,,,,,,,,,None,444.9268563000951,444.9268563000951,444.9268563000951,444.9268563000951,444.9268563000951,444.9268563000951,i,0.7684953000862151,445.7275338000618,445.7275338000618,445.7275338000618,445.7275338000618,445.7275338000618,445.7275338000618,446.0237159000244,446.0237159000244,446.8385323002003,446.8385323002003,446.8385323002003,446.8385323002003,446.8385323002003,446.8385323002003,446.8385323002003,446.8385323002003,446.8385323002003,446.8385323002003,446.8385323002003,446.8385323002003,446.8385323002003,446.8385323002003,446.8385323002003,446.8385323002003,446.8385323002003,28,37,36,58,36,85,None,None,449.34980460000224,449.34980460000224,449.34980460000224,449.34980460000224,449.34980460000224,449.34980460000224,449.34980460000224,449.34980460000224,0.007049300009384751,449.34980460000224,38,38,[0.16018518518518518],[-0.2972222222222222],[1],[0],[0],[4.958814299898222],['tijiao'],-0.6,0,,[],[],[],[],[],[],[],454.3288996000774,454.3288996000774,454.3288996000774,454.3288996000774,7.277777777777778,1.863975599873811,456.21162900002673,457.9744421001524,,,,,,,,,,,,,,,,,,,,,276,f,23,2023-04-04_14h48.37.235,RL,2022.2.4,60.30261049138401,
0,0.3,0.225,0,33,33,33,,,,,,,,,,None,457.9744421001524,457.9744421001524,457.9744421001524,457.9744421001524,457.9744421001524,457.9744421001524,i,0.5802096000406891,458.57437540008686,458.57437540008686,458.57437540008686,458.57437540008686,458.57437540008686,458.57437540008686,458.87199280015193,458.87199280015193,460.21839769999497,460.21839769999497,460.235291399993,460.235291399993,460.235291399993,460.235291399993,460.235291399993,460.235291399993,460.235291399993,460.235291399993,460.235291399993,460.235291399993,460.235291399993,460.235291399993,460.235291399993,460.235291399993,460.235291399993,30,47,37,53,37,83,None,None,,,,,,,,,,,,,[],[],[],[],[],[],[],-0.2,1,45,[0.014814814814814815],[-0.30092592592592593],[1],[0],[0],[4.635022899834439],['tijiao_random_2'],467.4010185999796,467.4010185999796,467.4010185999796,467.4010185999796,6.25,2.039640400093049,469.45930139999837,471.0884956000373,,,,,,462.7540237000212,462.7540237000212,462.7540237000212,462.7540237000212,462.7540237000212,462.7540237000212,462.7540237000212,462.7540237000212,0.007246799999848008,462.7540237000212,,,,,,276,f,23,2023-04-04_14h48.37.235,RL,2022.2.4,60.30261049138401,
1,-0.3,-0.225,0,34,34,34,,,,,,,,,,None,471.0884956000373,471.0884956000373,471.0884956000373,471.0884956000373,471.0884956000373,471.0884956000373,i,0.7944993998389691,471.90394280012697,471.90394280012697,471.90394280012697,471.90394280012697,471.90394280012697,471.90394280012697,472.2026868001558,472.2026868001558,473.0167275001295,473.0167275001295,473.0167275001295,473.0167275001295,473.0167275001295,473.0167275001295,473.0167275001295,473.0167275001295,473.0167275001295,473.0167275001295,473.0167275001295,473.0167275001295,473.0167275001295,473.0167275001295,473.0167275001295,473.0167275001295,473.0167275001295,28,39,26,52,26,86,1.0,3.4232785999774933,,,,,,,,,,,,,[],[],[],[],[],[],[],-0.2,3,,[],[],[],[],[],[],[],,,,,None,None,478.97718819999136,480.7291425000876,475.5259837000631,475.5259837000631,475.5259837000631,475.5259837000631,475.5259837000631,,,,,,,,,,,,,,,,276,f,23,2023-04-04_14h48.37.235,RL,2022.2.4,60.30261049138401,
0,0.3,0.225,0,35,35,35,,,,,,,,,,None,480.7291425000876,480.7291425000876,480.7291425000876,480.7291425000876,480.7291425000876,480.7291425000876,j,0.49127410002984107,481.245807700092,481.245807700092,481.245807700092,481.245807700092,481.245807700092,481.245807700092,481.5435196000617,481.5435196000617,483.155983600067,483.155983600067,483.155983600067,483.155983600067,483.155983600067,483.155983600067,483.155983600067,483.155983600067,483.155983600067,483.155983600067,483.155983600067,483.155983600067,483.155983600067,483.155983600067,483.155983600067,483.155983600067,483.155983600067,31,43,22,46,46,92,1.0,1.3955341998953372,,,,,,,,,,,,,[],[],[],[],[],[],[],-0.6,2,,[],[],[],[],[],[],[],,,,,None,None,487.08759040012956,488.9567621999886,485.6646913001314,485.6646913001314,485.6646913001314,485.6646913001314,485.6646913001314,,,,,,,,,,,,,,,,276,f,23,2023-04-04_14h48.37.235,RL,2022.2.4,60.30261049138401,
1,-0.3,-0.225,0,36,36,36,,,,,,,,,,None,488.9567621999886,488.9567621999886,488.9567621999886,488.9567621999886,488.9567621999886,488.9567621999886,r,0.741358800092712,489.72279250016436,489.72279250016436,489.72279250016436,489.72279250016436,489.72279250016436,489.72279250016436,490.02064160001464,490.02064160001464,490.9513611001894,490.9513611001894,490.9513611001894,490.9513611001894,490.9513611001894,490.9513611001894,490.9513611001894,490.9513611001894,490.9513611001894,490.9513611001894,490.9513611001894,490.9513611001894,490.9513611001894,490.9513611001894,490.9513611001894,490.9513611001894,490.9513611001894,12,48,28,49,12,54,1.0,0.7303530999924988,,,,,,,,,,,,,[],[],[],[],[],[],[],0.2,2,,[],[],[],[],[],[],[],,,,,None,None,494.22024960001,496.1536455000751,493.46049030008726,493.46049030008726,493.46049030008726,493.46049030008726,493.46049030008726,,,,,,,,,,,,,,,,276,f,23,2023-04-04_14h48.37.235,RL,2022.2.4,60.30261049138401,
0,0.3,0.225,0,37,37,37,,,,,,,,,,None,496.1536455000751,496.1536455000751,496.1536455000751,496.1536455000751,496.1536455000751,496.1536455000751,f,0.3888506998773664,496.5701301000081,496.5701301000081,496.5701301000081,496.5701301000081,496.5701301000081,496.5701301000081,496.8688261001371,496.8688261001371,498.28154590004124,498.28154590004124,498.28154590004124,498.28154590004124,498.28154590004124,498.28154590004124,498.28154590004124,498.28154590004124,498.28154590004124,498.28154590004124,498.28154590004124,498.28154590004124,498.28154590004124,498.28154590004124,498.28154590004124,498.28154590004124,498.28154590004124,18,44,18,55,44,80,None,None,,,,,,,,,,,,,[],[],[],[],[],[],[],-0.2,1,45,[-0.15092592592592594],[-0.29259259259259257],[1],[0],[0],[5.065103999804705],['tijiao_random_2'],505.87914580013603,505.87914580013603,505.87914580013603,505.87914580013603,8.555555555555555,3.0043810999486595,508.90134240011685,510.7301819000859,,,,,,500.8015499000903,500.8015499000903,500.8015499000903,500.8015499000903,500.8015499000903,500.8015499000903,500.8015499000903,500.8015499000903,0.006963100051507354,500.8015499000903,,,,,,276,f,23,2023-04-04_14h48.37.235,RL,2022.2.4,60.30261049138401,
1,-0.3,-0.225,0,38,38,38,,,,,,,,,,None,510.7301819000859,510.7301819000859,510.7301819000859,510.7301819000859,510.7301819000859,510.7301819000859,j,0.9453196998219937,511.6965169000905,511.6965169000905,511.6965169000905,511.6965169000905,511.6965169000905,511.6965169000905,511.9939975000452,511.9939975000452,513.7890891002025,513.7890891002025,513.7890891002025,513.7890891002025,513.7890891002025,513.7890891002025,513.7890891002025,513.7890891002025,513.7890891002025,513.7890891002025,513.7890891002025,513.7890891002025,513.7890891002025,513.7890891002025,513.7890891002025,513.7890891002025,513.7890891002025,24,46,26,53,53,72,3.0,2.310012700036168,,,,,,,,,,,,,[],[],[],[],[],[],[],0.2,3,,[],[],[],[],[],[],[],,,,,None,None,518.6346615001094,520.6369531000964,516.2982314000838,516.2982314000838,516.2982314000838,516.2982314000838,516.2982314000838,,,,,,,,,,,,,,,,276,f,23,2023-04-04_14h48.37.235,RL,2022.2.4,60.30261049138401,
0,0.3,0.225,0,39,39,39,,,,,,,,,,None,520.6369531000964,520.6369531000964,520.6369531000964,520.6369531000964,520.6369531000964,520.6369531000964,j,1.1106803000438958,521.7686525001191,521.7686525001191,521.7686525001191,521.7686525001191,521.7686525001191,521.7686525001191,522.0662097001914,522.0662097001914,523.3630412002094,523.3630412002094,523.3630412002094,523.3630412002094,523.3630412002094,523.3630412002094,523.3630412002094,523.3630412002094,523.3630412002094,523.3630412002094,523.3630412002094,523.3630412002094,523.3630412002094,523.3630412002094,523.3630412002094,523.3630412002094,523.3630412002094,20,62,32,56,56,65,None,None,,,,,,,,,,,,,[],[],[],[],[],[],[],0.6,1,70,[-0.1287037037037037],[-0.30092592592592593],[1],[0],[0],[4.752068700036034],['tijiao_random_2'],530.6480006000493,530.6480006000493,530.6480006000493,530.6480006000493,8.37962962962963,3.2831603998783976,533.9495700001717,535.8619611000177,,,,,,525.8815953000449,525.8815953000449,525.8815953000449,525.8815953000449,525.8815953000449,525.8815953000449,525.8815953000449,525.8815953000449,0.007486400194466114,525.8815953000449,,,,,,276,f,23,2023-04-04_14h48.37.235,RL,2022.2.4,60.30261049138401,
1,-0.3,-0.225,0,40,40,40,,,,,,,,,,None,535.8619611000177,535.8619611000177,535.8619611000177,535.8619611000177,535.8619611000177,535.8619611000177,j,0.5034775999374688,536.3951489001047,536.3951489001047,536.3951489001047,536.3951489001047,536.3951489001047,536.3951489001047,536.6933783001732,536.6933783001732,537.5741249001585,537.5741249001585,537.5741249001585,537.5741249001585,537.5741249001585,537.5741249001585,537.5741249001585,537.5741249001585,537.5741249001585,537.5741249001585,537.5741249001585,537.5741249001585,537.5741249001585,537.5741249001585,537.5741249001585,537.5741249001585,537.5741249001585,16,68,28,52,52,66,None,None,,,,,,,,,,,,,[],[],[],[],[],[],[],0.2,1,50,[0.12222222222222222],[-0.3148148148148148],[1],[0],[0],[5.633864399977028],['tijiao_random_2'],545.7392397001386,545.7392397001386,545.7392397001386,545.7392397001386,6.898148148148148,2.7514752000570297,548.5099241000134,550.3891227000859,,,,,,540.0928444000892,540.0928444000892,540.0928444000892,540.0928444000892,540.0928444000892,540.0928444000892,540.0928444000892,540.0928444000892,0.007156600011512637,540.0928444000892,,,,,,276,f,23,2023-04-04_14h48.37.235,RL,2022.2.4,60.30261049138401,
0,0.3,0.225,0,41,41,41,,,,,,,,,,None,550.3891227000859,550.3891227000859,550.3891227000859,550.3891227000859,550.3891227000859,550.3891227000859,j,0.5635462999343872,550.9732647000346,550.9732647000346,550.9732647000346,550.9732647000346,550.9732647000346,550.9732647000346,551.2702105999924,551.2702105999924,553.1648588001262,553.1648588001262,553.1648588001262,553.1648588001262,553.1648588001262,553.1648588001262,553.1648588001262,553.1648588001262,553.1648588001262,553.1648588001262,553.1648588001262,553.1648588001262,553.1648588001262,553.1648588001262,553.1648588001262,553.1648588001262,553.1648588001262,19,64,36,61,61,72,None,None,555.676439900184,555.676439900184,555.676439900184,555.676439900184,555.676439900184,555.676439900184,555.676439900184,555.676439900184,0.007355700014159083,555.676439900184,65,65,[0.02962962962962963],[-0.3138888888888889],[1],[0],[0],[5.8400377000216395],['tijiao'],0.2,0,,[],[],[],[],[],[],[],561.5391594001558,561.5391594001558,561.5391594001558,561.5391594001558,7.277777777777778,1.9117564000189304,563.4692432000302,565.4310630999971,,,,,,,,,,,,,,,,,,,,,276,f,23,2023-04-04_14h48.37.235,RL,2022.2.4,60.30261049138401,
1,-0.3,-0.225,0,42,42,42,,,,,,,,,,None,565.4310630999971,565.4310630999971,565.4310630999971,565.4310630999971,565.4310630999971,565.4310630999971,j,0.35908970003947616,565.8145318001043,565.8145318001043,565.8145318001043,565.8145318001043,565.8145318001043,565.8145318001043,566.1130340001546,566.1130340001546,567.858201400144,567.858201400144,567.858201400144,567.858201400144,567.858201400144,567.858201400144,567.858201400144,567.858201400144,567.858201400144,567.858201400144,567.858201400144,567.858201400144,567.858201400144,567.858201400144,567.858201400144,567.858201400144,567.858201400144,8,57,28,52,52,4,6.0,2.824698999989778,,,,,,,,,,,,,[],[],[],[],[],[],[],-0.6,3,,[],[],[],[],[],[],[],,,,,None,None,573.2213900000788,575.1213752001058,570.367231399985,570.367231399985,570.367231399985,570.367231399985,570.367231399985,,,,,,,,,,,,,,,,276,f,23,2023-04-04_14h48.37.235,RL,2022.2.4,60.30261049138401,
0,0.3,0.225,0,43,43,43,,,,,,,,,,None,575.1213752001058,575.1213752001058,575.1213752001058,575.1213752001058,575.1213752001058,575.1213752001058,j,0.40578299993649125,575.554516900098,575.554516900098,575.554516900098,575.554516900098,575.554516900098,575.554516900098,575.853168200003,575.853168200003,577.0994522999972,577.0994522999972,577.0994522999972,577.0994522999972,577.0994522999972,577.0994522999972,577.0994522999972,577.0994522999972,577.0994522999972,577.0994522999972,577.0994522999972,577.0994522999972,577.0994522999972,577.0994522999972,577.0994522999972,577.0994522999972,577.0994522999972,9,67,29,63,63,52,None,None,579.6102980000433,579.6102980000433,579.6102980000433,579.6102980000433,579.6102980000433,579.6102980000433,579.6102980000433,579.6102980000433,0.006691900081932545,579.6102980000433,60,60,[0.14722222222222223],[-0.29444444444444445],[1],[0],[0],[6.006925099994987],['tijiao'],-0.6,0,,[],[],[],[],[],[],[],585.6386444000527,585.6386444000527,585.6386444000527,585.6386444000527,8.101851851851853,1.9785738000646234,587.636251399992,589.482444500085,,,,,,,,,,,,,,,,,,,,,276,f,23,2023-04-04_14h48.37.235,RL,2022.2.4,60.30261049138401,
1,-0.3,-0.225,0,44,44,44,,,,,,,,,,None,589.482444500085,589.482444500085,589.482444500085,589.482444500085,589.482444500085,589.482444500085,j,0.3070342999417335,589.8170398999937,589.8170398999937,589.8170398999937,589.8170398999937,589.8170398999937,589.8170398999937,590.1141598001122,590.1141598001122,591.0115007001441,591.0115007001441,591.0281605001073,591.0281605001073,591.0281605001073,591.0281605001073,591.0281605001073,591.0281605001073,591.0281605001073,591.0281605001073,591.0281605001073,591.0281605001073,591.0281605001073,591.0281605001073,591.0281605001073,591.0281605001073,591.0281605001073,11,64,41,55,55,64,4.0,1.6112877000123262,,,,,,,,,,,,,[],[],[],[],[],[],[],-0.6,2,,[],[],[],[],[],[],[],,,,,None,None,595.1779197000433,596.7620910000987,593.5373978000134,593.5373978000134,593.5373978000134,593.5373978000134,593.5373978000134,,,,,,,,,,,,,,,,276,f,23,2023-04-04_14h48.37.235,RL,2022.2.4,60.30261049138401,
0,0.3,0.225,0,45,45,45,,,,,,,,,,None,596.7620910000987,596.7620910000987,596.7620910000987,596.7620910000987,596.7620910000987,596.7620910000987,i,0.7407517998944968,597.5276854999829,597.5276854999829,597.5276854999829,597.5276854999829,597.5276854999829,597.5276854999829,597.8265809000004,597.8265809000004,599.8040909999982,599.8040909999982,599.8040909999982,599.8040909999982,599.8040909999982,599.8040909999982,599.8040909999982,599.8040909999982,599.8040909999982,599.8040909999982,599.8040909999982,599.8040909999982,599.8040909999982,599.8040909999982,599.8040909999982,599.8040909999982,599.8040909999982,12,59,30,60,30,79,None,None,,,,,,,,,,,,,[],[],[],[],[],[],[],0.6,1,65,[-0.01574074074074074],[-0.2574074074074074],[1],[0],[0],[4.301358399912715],['tijiao_random_2'],606.6390924002044,606.6390924002044,606.6390924002044,606.6390924002044,5.583333333333333,4.132170099997893,610.7899156000931,612.3362958000507,,,,,,602.3247452001087,602.3247452001087,602.3247452001087,602.3247452001087,602.3247452001087,602.3247452001087,602.3247452001087,602.3247452001087,0.00752629991620779,602.3247452001087,,,,,,276,f,23,2023-04-04_14h48.37.235,RL,2022.2.4,60.30261049138401,
1,-0.3,-0.225,0,46,46,46,,,,,,,,,,None,612.3362958000507,612.3362958000507,612.3362958000507,612.3362958000507,612.3362958000507,612.3362958000507,f,0.6490279000718147,613.0184665999841,613.0184665999841,613.0184665999841,613.0184665999841,613.0184665999841,613.0184665999841,613.3176304001827,613.3176304001827,614.3314371001907,614.3314371001907,614.3314371001907,614.3314371001907,614.3314371001907,614.3314371001907,614.3314371001907,614.3314371001907,614.3314371001907,614.3314371001907,614.3314371001907,614.3314371001907,614.3314371001907,614.3314371001907,614.3314371001907,614.3314371001907,614.3314371001907,11,54,34,59,54,76,3.0,2.2434962999541312,,,,,,,,,,,,,[],[],[],[],[],[],[],0.2,2,,[],[],[],[],[],[],[],,,,,None,None,619.111615100177,620.7300142000895,616.8406246001832,616.8406246001832,616.8406246001832,616.8406246001832,616.8406246001832,,,,,,,,,,,,,,,,276,f,23,2023-04-04_14h48.37.235,RL,2022.2.4,60.30261049138401,
0,0.3,0.225,0,47,47,47,,,,,,,,,,None,620.7300142000895,620.7300142000895,620.7300142000895,620.7300142000895,620.7300142000895,620.7300142000895,r,0.7572383999358863,621.5129149002023,621.5129149002023,621.5129149002023,621.5129149002023,621.5129149002023,621.5129149002023,621.810897400137,621.810897400137,622.875004200032,622.875004200032,622.875004200032,622.875004200032,622.875004200032,622.875004200032,622.875004200032,622.875004200032,622.875004200032,622.875004200032,622.875004200032,622.875004200032,622.875004200032,622.875004200032,622.875004200032,622.875004200032,622.875004200032,17,56,29,72,17,79,None,None,625.3863517001737,625.3863517001737,625.3863517001737,625.3863517001737,625.3863517001737,625.3863517001737,625.3863517001737,625.3863517001737,0.007593799848109484,625.3863517001737,20,20,[-0.07222222222222222],[-0.32407407407407407],[1],[0],[0],[3.429450600175187],['tijiao'],0.6,0,,[],[],[],[],[],[],[],628.8358702000696,628.8358702000696,628.8358702000696,628.8358702000696,1.7777777777777777,2.0967944997828454,630.9513609001879,632.6640531001613,,,,,,,,,,,,,,,,,,,,,276,f,23,2023-04-04_14h48.37.235,RL,2022.2.4,60.30261049138401,
1,-0.3,-0.225,0,48,48,48,,,,,,,,,,None,632.6640531001613,632.6640531001613,632.6640531001613,632.6640531001613,632.6640531001613,632.6640531001613,i,0.6079259000252932,633.2989397000056,633.2989397000056,633.2989397000056,633.2989397000056,633.2989397000056,633.2989397000056,633.5954106000718,633.5954106000718,634.4599593000021,634.4599593000021,634.4599593000021,634.4599593000021,634.4599593000021,634.4599593000021,634.4599593000021,634.4599593000021,634.4599593000021,634.4599593000021,634.4599593000021,634.4599593000021,634.4599593000021,634.4599593000021,634.4599593000021,634.4599593000021,634.4599593000021,17,65,28,66,28,66,1.0,1.6119987000711262,,,,,,,,,,,,,[],[],[],[],[],[],[],-0.6,3,,[],[],[],[],[],[],[],,,,,None,None,638.6069355001673,640.4433346001897,636.9686695002019,636.9686695002019,636.9686695002019,636.9686695002019,636.9686695002019,,,,,,,,,,,,,,,,276,f,23,2023-04-04_14h48.37.235,RL,2022.2.4,60.30261049138401,
0,0.3,0.225,0,49,49,49,,,,,,,,,,None,640.4433346001897,640.4433346001897,640.4433346001897,640.4433346001897,640.4433346001897,640.4433346001897,j,0.4027766000945121,640.8768240001518,640.8768240001518,640.8768240001518,640.8768240001518,640.8768240001518,640.8768240001518,641.1745066000149,641.1745066000149,642.3382781001274,642.3382781001274,642.354738100199,642.354738100199,642.354738100199,642.354738100199,642.354738100199,642.354738100199,642.354738100199,642.354738100199,642.354738100199,642.354738100199,642.354738100199,642.354738100199,642.354738100199,642.354738100199,642.354738100199,21,60,32,74,74,80,None,None,644.8653843000066,644.8653843000066,644.8653843000066,644.8653843000066,644.8653843000066,644.8653843000066,644.8653843000066,644.8653843000066,0.006579199805855751,644.8653843000066,78,78,[-0.11574074074074074],[-0.32222222222222224],[1],[0],[0],[5.242840599967167],['tijiao'],0.6,0,,[],[],[],[],[],[],[],650.1289643000346,650.1289643000346,650.1289643000346,650.1289643000346,7.638888888888888,2.2949806000106037,652.4429910001345,653.9563865000382,,,,,,,,,,,,,,,,,,,,,276,f,23,2023-04-04_14h48.37.235,RL,2022.2.4,60.30261049138401,
1,-0.3,-0.225,0,50,50,50,,,,,,,,,,None,653.9563865000382,653.9563865000382,653.9563865000382,653.9563865000382,653.9563865000382,653.9563865000382,j,0.5815320000983775,654.5559015001636,654.5559015001636,654.5559015001636,654.5559015001636,654.5559015001636,654.5559015001636,654.8541437999811,654.8541437999811,656.7819426001515,656.7819426001515,656.7819426001515,656.7819426001515,656.7819426001515,656.7819426001515,656.7819426001515,656.7819426001515,656.7819426001515,656.7819426001515,656.7819426001515,656.7819426001515,656.7819426001515,656.7819426001515,656.7819426001515,656.7819426001515,656.7819426001515,26,60,28,77,77,56,None,None,659.2922867001034,659.2922867001034,659.2922867001034,659.2922867001034,659.2922867001034,659.2922867001034,659.2922867001034,659.2922867001034,0.006157100200653076,659.2922867001034,78,78,[0.09351851851851851],[-0.27685185185185185],[1],[0],[0],[3.83067850000225],['tijiao'],0.2,0,,[],[],[],[],[],[],[],663.1443000000436,663.1443000000436,663.1443000000436,663.1443000000436,7.185185185185185,2.5942261999007314,665.7565130000003,667.4195195001084,,,,,,,,,,,,,,,,,,,,,276,f,23,2023-04-04_14h48.37.235,RL,2022.2.4,60.30261049138401,
0,0.3,0.225,0,51,51,51,,,,,,,,,,None,667.4195195001084,667.4195195001084,667.4195195001084,667.4195195001084,667.4195195001084,667.4195195001084,j,0.5234789000824094,667.9694277001545,667.9694277001545,667.9694277001545,667.9694277001545,667.9694277001545,667.9694277001545,668.2675050999969,668.2675050999969,669.5474851999898,669.5474851999898,669.5474851999898,669.5474851999898,669.5474851999898,669.5474851999898,669.5474851999898,669.5474851999898,669.5474851999898,669.5474851999898,669.5474851999898,669.5474851999898,669.5474851999898,669.5474851999898,669.5474851999898,669.5474851999898,669.5474851999898,30,58,21,73,73,82,None,None,,,,,,,,,,,,,[],[],[],[],[],[],[],0.2,1,80,[0.04259259259259259],[-0.2657407407407407],[1],[0],[0],[5.9820971000008285],['tijiao_random_2'],678.06062260014,678.06062260014,678.06062260014,678.06062260014,6.287037037037036,1.8714281001593918,679.9507900001481,681.946452600183,,,,,,672.0658332000021,672.0658332000021,672.0658332000021,672.0658332000021,672.0658332000021,672.0658332000021,672.0658332000021,672.0658332000021,0.0068338001146912575,672.0658332000021,,,,,,276,f,23,2023-04-04_14h48.37.235,RL,2022.2.4,60.30261049138401,
1,-0.3,-0.225,0,52,52,52,,,,,,,,,,None,681.946452600183,681.946452600183,681.946452600183,681.946452600183,681.946452600183,681.946452600183,j,0.8425409002229571,682.8115493000951,682.8115493000951,682.8115493000951,682.8115493000951,682.8115493000951,682.8115493000951,683.1105475001968,683.1105475001968,684.157580500003,684.157580500003,684.157580500003,684.157580500003,684.157580500003,684.157580500003,684.157580500003,684.157580500003,684.157580500003,684.157580500003,684.157580500003,684.157580500003,684.157580500003,684.157580500003,684.157580500003,684.157580500003,684.157580500003,28,57,21,67,67,59,None,None,,,,,,,,,,,,,[],[],[],[],[],[],[],-0.6,1,23,[0.028703703703703703],[-0.3055555555555556],[1],[0],[0],[3.9698640999849886],['tijiao_random_2'],690.6592487001326,690.6592487001326,690.6592487001326,690.6592487001326,7.166666666666667,5.412743899971247,696.0903819000814,697.9859916002024,,,,,,686.6769991000183,686.6769991000183,686.6769991000183,686.6769991000183,686.6769991000183,686.6769991000183,686.6769991000183,686.6769991000183,0.006108700064942241,686.6769991000183,,,,,,276,f,23,2023-04-04_14h48.37.235,RL,2022.2.4,60.30261049138401,
0,0.3,0.225,0,53,53,53,,,,,,,,,,None,697.9859916002024,697.9859916002024,697.9859916002024,697.9859916002024,697.9859916002024,697.9859916002024,j,0.6493377999868244,698.6695777000859,698.6695777000859,698.6695777000859,698.6695777000859,698.6695777000859,698.6695777000859,698.9673185001593,698.9673185001593,700.861761600012,700.861761600012,700.861761600012,700.861761600012,700.861761600012,700.861761600012,700.861761600012,700.861761600012,700.861761600012,700.861761600012,700.861761600012,700.861761600012,700.861761600012,700.861761600012,700.861761600012,700.861761600012,700.861761600012,30,55,33,66,66,83,3.0,3.1397304001729935,,,,,,,,,,,,,[],[],[],[],[],[],[],-0.6,3,,[],[],[],[],[],[],[],,,,,None,None,706.5361318001524,708.4076402001083,703.37112110015,703.37112110015,703.37112110015,703.37112110015,703.37112110015,,,,,,,,,,,,,,,,276,f,23,2023-04-04_14h48.37.235,RL,2022.2.4,60.30261049138401,
1,-0.3,-0.225,0,54,54,54,,,,,,,,,,None,708.4076402001083,708.4076402001083,708.4076402001083,708.4076402001083,708.4076402001083,708.4076402001083,j,1.224217199953273,709.6547977000009,709.6547977000009,709.6547977000009,709.6547977000009,709.6547977000009,709.6547977000009,709.9537428000476,709.9537428000476,711.8486997000873,711.8486997000873,711.8486997000873,711.8486997000873,711.8486997000873,711.8486997000873,711.8486997000873,711.8486997000873,711.8486997000873,711.8486997000873,711.8486997000873,711.8486997000873,711.8486997000873,711.8486997000873,711.8486997000873,711.8486997000873,711.8486997000873,36,61,23,68,68,65,5.0,3.2074374998919666,,,,,,,,,,,,,[],[],[],[],[],[],[],0.2,3,,[],[],[],[],[],[],[],,,,,None,None,717.5928072000388,719.4941375001799,714.3579734000377,714.3579734000377,714.3579734000377,714.3579734000377,714.3579734000377,,,,,,,,,,,,,,,,276,f,23,2023-04-04_14h48.37.235,RL,2022.2.4,60.30261049138401,
0,0.3,0.225,0,55,55,55,,,,,,,,,,None,719.4941375001799,719.4941375001799,719.4941375001799,719.4941375001799,719.4941375001799,719.4941375001799,j,0.5232445001602173,720.0426943001803,720.0426943001803,720.0426943001803,720.0426943001803,720.0426943001803,720.0426943001803,720.3421338000335,720.3421338000335,721.439302300103,721.439302300103,721.439302300103,721.439302300103,721.439302300103,721.439302300103,721.439302300103,721.439302300103,721.439302300103,721.439302300103,721.439302300103,721.439302300103,721.439302300103,721.439302300103,721.439302300103,721.439302300103,721.439302300103,39,56,27,70,70,81,4.0,1.8280631999950856,,,,,,,,,,,,,[],[],[],[],[],[],[],0.6,2,,[],[],[],[],[],[],[],,,,,None,None,725.8021735001821,727.4886809000745,723.9479500001762,723.9479500001762,723.9479500001762,723.9479500001762,723.9479500001762,,,,,,,,,,,,,,,,276,f,23,2023-04-04_14h48.37.235,RL,2022.2.4,60.30261049138401,
1,-0.3,-0.225,0,56,56,56,,,,,,,,,,None,727.4886809000745,727.4886809000745,727.4886809000745,727.4886809000745,727.4886809000745,727.4886809000745,i,0.8172542999964207,728.3369733002037,728.3369733002037,728.3369733002037,728.3369733002037,728.3369733002037,728.3369733002037,728.6362161000725,728.6362161000725,730.5474690999836,730.5474690999836,730.5642723999918,730.5642723999918,730.5642723999918,730.5642723999918,730.5642723999918,730.5642723999918,730.5642723999918,730.5642723999918,730.5642723999918,730.5642723999918,730.5642723999918,730.5642723999918,730.5642723999918,730.5642723999918,730.5642723999918,40,61,16,65,16,80,None,None,,,,,,,,,,,,,[],[],[],[],[],[],[],0.2,1,20,[-0.028703703703703703],[-0.3037037037037037],[1],[0],[0],[3.289499399950728],['tijiao_random_2'],736.3874241001904,736.3874241001904,736.3874241001904,736.3874241001904,5.351851851851852,3.4996957001276314,739.9040687000379,741.6669360999949,,,,,,733.0830618001055,733.0830618001055,733.0830618001055,733.0830618001055,733.0830618001055,733.0830618001055,733.0830618001055,733.0830618001055,0.0068304999731481075,733.0830618001055,,,,,,276,f,23,2023-04-04_14h48.37.235,RL,2022.2.4,60.30261049138401,
0,0.3,0.225,0,57,57,57,,,,,,,,,,None,741.6669360999949,741.6669360999949,741.6669360999949,741.6669360999949,741.6669360999949,741.6669360999949,j,0.9279491000343114,742.6169735000003,742.6169735000003,742.6169735000003,742.6169735000003,742.6169735000003,742.6169735000003,742.9138836001512,742.9138836001512,744.925018100068,744.925018100068,744.925018100068,744.925018100068,744.925018100068,744.925018100068,744.925018100068,744.925018100068,744.925018100068,744.925018100068,744.925018100068,744.925018100068,744.925018100068,744.925018100068,744.925018100068,744.925018100068,744.925018100068,37,51,23,64,64,90,None,None,747.4353514001705,747.4353514001705,747.4353514001705,747.4353514001705,747.4353514001705,747.4353514001705,747.4353514001705,747.4353514001705,0.006734499940648675,747.4353514001705,70,70,[-0.030555555555555555],[-0.2611111111111111],[1],[0],[0],[4.494961100164801],['tijiao'],0.6,0,,[],[],[],[],[],[],[],751.9523082000669,751.9523082000669,751.9523082000669,751.9523082000669,6.518518518518518,2.60958920000121,754.580625000177,756.3934029000811,,,,,,,,,,,,,,,,,,,,,276,f,23,2023-04-04_14h48.37.235,RL,2022.2.4,60.30261049138401,
1,-0.3,-0.225,0,58,58,58,,,,,,,,,,None,756.3934029000811,756.3934029000811,756.3934029000811,756.3934029000811,756.3934029000811,756.3934029000811,j,0.4955256001558155,756.9094261000864,756.9094261000864,756.9094261000864,756.9094261000864,756.9094261000864,756.9094261000864,757.2082679001614,757.2082679001614,758.2885500001721,758.2885500001721,758.2885500001721,758.2885500001721,758.2885500001721,758.2885500001721,758.2885500001721,758.2885500001721,758.2885500001721,758.2885500001721,758.2885500001721,758.2885500001721,758.2885500001721,758.2885500001721,758.2885500001721,758.2885500001721,758.2885500001721,36,49,26,58,58,80,None,None,,,,,,,,,,,,,[],[],[],[],[],[],[],0.2,1,80,[0.03425925925925926],[-0.26296296296296295],[1],[0],[0],[5.848608699860051],['tijiao_random_2'],766.6686112000607,766.6686112000607,766.6686112000607,766.6686112000607,6.833333333333334,2.2541463999077678,768.9415060000028,770.6045012001414,,,,,,760.8074070001021,760.8074070001021,760.8074070001021,760.8074070001021,760.8074070001021,760.8074070001021,760.8074070001021,760.8074070001021,0.007187700131908059,760.8074070001021,,,,,,276,f,23,2023-04-04_14h48.37.235,RL,2022.2.4,60.30261049138401,
0,0.3,0.225,0,59,59,59,,,,,,,,,,None,770.6045012001414,770.6045012001414,770.6045012001414,770.6045012001414,770.6045012001414,770.6045012001414,f,0.9406343000009656,771.5702322002035,771.5702322002035,771.5702322002035,771.5702322002035,771.5702322002035,771.5702322002035,771.8682609000243,771.8682609000243,772.882054500049,772.882054500049,772.882054500049,772.882054500049,772.882054500049,772.882054500049,772.882054500049,772.882054500049,772.882054500049,772.882054500049,772.882054500049,772.882054500049,772.882054500049,772.882054500049,772.882054500049,772.882054500049,772.882054500049,39,46,19,59,46,87,None,None,775.3939787000418,775.3939787000418,775.3939787000418,775.3939787000418,775.3939787000418,775.3939787000418,775.3939787000418,775.3939787000418,0.007608099840581417,775.3939787000418,50,50,[0.05740740740740741],[-0.2740740740740741],[1],[0],[0],[4.5263960000593215],['tijiao'],0.6,0,,[],[],[],[],[],[],[],779.9410695000552,779.9410695000552,779.9410695000552,779.9410695000552,7.731481481481482,2.2624902999959886,782.2220907001756,784.0680272001773,,,,,,,,,,,,,,,,,,,,,276,f,23,2023-04-04_14h48.37.235,RL,2022.2.4,60.30261049138401,
1,-0.3,-0.225,0,60,60,60,,,,,,,,,,None,784.0680272001773,784.0680272001773,784.0680272001773,784.0680272001773,784.0680272001773,784.0680272001773,None,,,,,,,,,,,,,,,,,,,,,,,,,,,44,45,23,53,0,**,None,None,,,,,,,,,,,,,[],[],[],[],[],[],[],-0.6,0,,[],[],[],[],[],[],[],,,,,None,None,791.6135174001101,793.5254672002047,,,,,,,,,,,,,,,,785.6048307002056,791.6135174001101,,,,276,f,23,2023-04-04_14h48.37.235,RL,2022.2.4,60.30261049138401,
0,0.3,0.225,0,61,61,61,,,,,,,,,,None,793.5254672002047,793.5254672002047,793.5254672002047,793.5254672002047,793.5254672002047,793.5254672002047,j,0.2874741000123322,793.8416731001344,793.8416731001344,793.8416731001344,793.8416731001344,793.8416731001344,793.8416731001344,794.1408383999951,794.1408383999951,795.5868210000917,795.5868210000917,795.5868210000917,795.5868210000917,795.5868210000917,795.5868210000917,795.5868210000917,795.5868210000917,795.5868210000917,795.5868210000917,795.5868210000917,795.5868210000917,795.5868210000917,795.5868210000917,795.5868210000917,795.5868210000917,795.5868210000917,41,51,28,53,53,66,None,None,,,,,,,,,,,,,[],[],[],[],[],[],[],-0.6,1,60,[0.14814814814814814],[-0.2824074074074074],[1],[0],[0],[4.832310500089079],['tijiao_random_2'],802.9538476001471,802.9538476001471,802.9538476001471,802.9538476001471,7.0,3.999185400083661,806.9711379001383,808.9499061000533,,,,,,798.1082746000029,798.1082746000029,798.1082746000029,798.1082746000029,798.1082746000029,798.1082746000029,798.1082746000029,798.1082746000029,0.006851499900221825,798.1082746000029,,,,,,276,f,23,2023-04-04_14h48.37.235,RL,2022.2.4,60.30261049138401,
1,-0.3,-0.225,0,62,62,62,,,,,,,,,,None,808.9499061000533,808.9499061000533,808.9499061000533,808.9499061000533,808.9499061000533,808.9499061000533,j,0.3134848999325186,809.2859581999946,809.2859581999946,809.2859581999946,809.2859581999946,809.2859581999946,809.2859581999946,809.5816194000654,809.5816194000654,811.3434792000335,811.3434792000335,811.3434792000335,811.3434792000335,811.3434792000335,811.3434792000335,811.3434792000335,811.3434792000335,811.3434792000335,811.3434792000335,811.3434792000335,811.3434792000335,811.3434792000335,811.3434792000335,811.3434792000335,811.3434792000335,811.3434792000335,42,37,26,52,52,79,None,None,,,,,,,,,,,,,[],[],[],[],[],[],[],-0.2,1,60,[0.08981481481481482],[-0.2898148148148148],[1],[0],[0],[5.115457099862397],['tijiao_random_2'],818.993402000051,818.993402000051,818.993402000051,818.993402000051,5.305555555555555,3.500969200162217,822.5122677001636,824.0588201000355,,,,,,813.8643248002045,813.8643248002045,813.8643248002045,813.8643248002045,813.8643248002045,813.8643248002045,813.8643248002045,813.8643248002045,0.00713659985922277,813.8643248002045,,,,,,276,f,23,2023-04-04_14h48.37.235,RL,2022.2.4,60.30261049138401,
0,0.3,0.225,0,63,63,63,,,,,,,,,,None,824.0588201000355,824.0588201000355,824.0588201000355,824.0588201000355,824.0588201000355,824.0588201000355,i,0.2877456999849528,824.3750975001603,824.3750975001603,824.3750975001603,824.3750975001603,824.3750975001603,824.3750975001603,824.6739752001595,824.6739752001595,826.2197769000195,826.2197769000195,826.2197769000195,826.2197769000195,826.2197769000195,826.2197769000195,826.2197769000195,826.2197769000195,826.2197769000195,826.2197769000195,826.2197769000195,826.2197769000195,826.2197769000195,826.2197769000195,826.2197769000195,826.2197769000195,826.2197769000195,39,49,32,52,32,70,None,None,,,,,,,,,,,,,[],[],[],[],[],[],[],0.6,1,70,"[-0.05648148148148148, -0.05925925925925926]","[-0.23796296296296296, -0.2759259259259259]","[1, 1]","[0, 0]","[0, 0]","[4.034872699994594, 5.415082799969241]",['tijiao_random_2'],834.1683380000759,834.1683380000759,834.1683380000759,834.1683380000759,8.083333333333334,5.046247799880803,839.2329184000846,841.1120907000732,,,,,,828.7406764000189,828.7406764000189,828.7406764000189,828.7406764000189,828.7406764000189,828.7406764000189,828.7406764000189,828.7406764000189,0.006760200019925833,828.7406764000189,,,,,,276,f,23,2023-04-04_14h48.37.235,RL,2022.2.4,60.30261049138401,
1,-0.3,-0.225,0,64,64,64,,,,,,,,,,None,841.1120907000732,841.1120907000732,841.1120907000732,841.1120907000732,841.1120907000732,841.1120907000732,j,0.32593339984305203,841.4641269000713,841.4641269000713,841.4641269000713,841.4641269000713,841.4641269000713,841.4641269000713,841.7608051002026,841.7608051002026,843.0072898000944,843.0072898000944,843.0072898000944,843.0072898000944,843.0072898000944,843.0072898000944,843.0072898000944,843.0072898000944,843.0072898000944,843.0072898000944,843.0072898000944,843.0072898000944,843.0072898000944,843.0072898000944,843.0072898000944,843.0072898000944,843.0072898000944,38,43,33,46,46,82,3.0,2.957705399952829,,,,,,,,,,,,,[],[],[],[],[],[],[],0.2,2,,[],[],[],[],[],[],[],,,,,None,None,848.5020507001318,850.1376395002007,845.5165916001424,845.5165916001424,845.5165916001424,845.5165916001424,845.5165916001424,,,,,,,,,,,,,,,,276,f,23,2023-04-04_14h48.37.235,RL,2022.2.4,60.30261049138401,
0,0.3,0.225,0,65,65,65,,,,,,,,,,None,850.1376395002007,850.1376395002007,850.1376395002007,850.1376395002007,850.1376395002007,850.1376395002007,f,0.4310917998664081,850.5874460001942,850.5874460001942,850.5874460001942,850.5874460001942,850.5874460001942,850.5874460001942,850.8859229001682,850.8859229001682,851.9495599002112,851.9495599002112,851.9495599002112,851.9495599002112,851.9495599002112,851.9495599002112,851.9495599002112,851.9495599002112,851.9495599002112,851.9495599002112,851.9495599002112,851.9495599002112,851.9495599002112,851.9495599002112,851.9495599002112,851.9495599002112,851.9495599002112,38,47,30,53,47,76,2.0,2.774995499989018,,,,,,,,,,,,,[],[],[],[],[],[],[],0.6,3,,[],[],[],[],[],[],[],,,,,None,None,857.259036200121,859.1962600001134,854.4587436001748,854.4587436001748,854.4587436001748,854.4587436001748,854.4587436001748,,,,,,,,,,,,,,,,276,f,23,2023-04-04_14h48.37.235,RL,2022.2.4,60.30261049138401,
1,-0.3,-0.225,0,66,66,66,,,,,,,,,,None,859.1962600001134,859.1962600001134,859.1962600001134,859.1962600001134,859.1962600001134,859.1962600001134,r,0.40570980007760227,859.6293392002117,859.6293392002117,859.6293392002117,859.6293392002117,859.6293392002117,859.6293392002117,859.9279192001559,859.9279192001559,861.4236822000239,861.4236822000239,861.4403564999811,861.4403564999811,861.4403564999811,861.4403564999811,861.4403564999811,861.4403564999811,861.4403564999811,861.4403564999811,861.4403564999811,861.4403564999811,861.4403564999811,861.4403564999811,861.4403564999811,861.4403564999811,861.4403564999811,38,54,27,51,38,75,1.0,2.3263985998928547,,,,,,,,,,,,,[],[],[],[],[],[],[],-0.2,2,,[],[],[],[],[],[],[],,,,,None,None,866.3030501999892,867.8892393000424,863.9495048001409,863.9495048001409,863.9495048001409,863.9495048001409,863.9495048001409,,,,,,,,,,,,,,,,276,f,23,2023-04-04_14h48.37.235,RL,2022.2.4,60.30261049138401,
0,0.3,0.225,0,67,67,67,,,,,,,,,,None,867.8892393000424,867.8892393000424,867.8892393000424,867.8892393000424,867.8892393000424,867.8892393000424,r,0.5903113000094891,868.5066394000314,868.5066394000314,868.5066394000314,868.5066394000314,868.5066394000314,868.5066394000314,868.8037311001681,868.8037311001681,870.1498488001525,870.1498488001525,870.1498488001525,870.1498488001525,870.1498488001525,870.1498488001525,870.1498488001525,870.1498488001525,870.1498488001525,870.1498488001525,870.1498488001525,870.1498488001525,870.1498488001525,870.1498488001525,870.1498488001525,870.1498488001525,870.1498488001525,41,47,21,48,41,70,None,None,872.6600320001598,872.6600320001598,872.6600320001598,872.6600320001598,872.6600320001598,872.6600320001598,872.6600320001598,872.6600320001598,0.005570199806243181,872.6600320001598,30,30,[-0.12314814814814815],[-0.30277777777777776],[1],[0],[0],[5.193280099891126],['tijiao'],-0.6,0,,[],[],[],[],[],[],[],877.8740715000313,877.8740715000313,877.8740715000313,877.8740715000313,9.092592592592592,2.527797400020063,880.4207374001853,882.0506253000349,,,,,,,,,,,,,,,,,,,,,276,f,23,2023-04-04_14h48.37.235,RL,2022.2.4,60.30261049138401,
1,-0.3,-0.225,0,68,68,68,,,,,,,,,,None,882.0506253000349,882.0506253000349,882.0506253000349,882.0506253000349,882.0506253000349,882.0506253000349,i,0.4732548000756651,882.5505431999918,882.5505431999918,882.5505431999918,882.5505431999918,882.5505431999918,882.5505431999918,882.8484728999902,882.8484728999902,884.7268093000166,884.7268093000166,884.7434249999933,884.7434249999933,884.7434249999933,884.7434249999933,884.7434249999933,884.7434249999933,884.7434249999933,884.7434249999933,884.7434249999933,884.7434249999933,884.7434249999933,884.7434249999933,884.7434249999933,884.7434249999933,884.7434249999933,49,45,31,43,31,65,None,None,,,,,,,,,,,,,[],[],[],[],[],[],[],-0.2,1,45,[0.18425925925925926],[-0.25462962962962965],[1],[0],[0],[4.30172079987824],['tijiao_random_2'],891.5781288000289,891.5781288000289,891.5781288000289,891.5781288000289,8.287037037037038,2.1047419998794794,893.7011410000268,895.5140089001507,,,,,,887.2631175999995,887.2631175999995,887.2631175999995,887.2631175999995,887.2631175999995,887.2631175999995,887.2631175999995,887.2631175999995,0.00693379994481802,887.2631175999995,,,,,,276,f,23,2023-04-04_14h48.37.235,RL,2022.2.4,60.30261049138401,
0,0.3,0.225,0,69,69,69,,,,,,,,,,None,895.5140089001507,895.5140089001507,895.5140089001507,895.5140089001507,895.5140089001507,895.5140089001507,r,1.3429580999072641,896.8777964999899,896.8777964999899,896.8777964999899,896.8777964999899,896.8777964999899,896.8777964999899,897.1760853000451,897.1760853000451,898.3232391001657,898.3232391001657,898.3232391001657,898.3232391001657,898.3232391001657,898.3232391001657,898.3232391001657,898.3232391001657,898.3232391001657,898.3232391001657,898.3232391001657,898.3232391001657,898.3232391001657,898.3232391001657,898.3232391001657,898.3232391001657,898.3232391001657,41,52,31,52,41,71,None,None,,,,,,,,,,,,,[],[],[],[],[],[],[],0.6,1,70,[0.10833333333333334],[-0.2935185185185185],[1],[0],[0],[9.886759500019252],['tijiao_random_2'],910.7422824001405,910.7422824001405,910.7422824001405,910.7422824001405,8.074074074074073,2.968873600009829,913.7298683000263,915.6754911001772,,,,,,900.8440986000933,900.8440986000933,900.8440986000933,900.8440986000933,900.8440986000933,900.8440986000933,900.8440986000933,900.8440986000933,0.006785599980503321,900.8440986000933,,,,,,276,f,23,2023-04-04_14h48.37.235,RL,2022.2.4,60.30261049138401,
1,-0.3,-0.225,0,70,70,70,,,,,,,,,,None,915.6754911001772,915.6754911001772,915.6754911001772,915.6754911001772,915.6754911001772,915.6754911001772,j,0.5055740000680089,916.2093283000868,916.2093283000868,916.2093283000868,916.2093283000868,916.2093283000868,916.2093283000868,916.5069172000512,916.5069172000512,917.4375977001619,917.4375977001619,917.4375977001619,917.4375977001619,917.4375977001619,917.4375977001619,917.4375977001619,917.4375977001619,917.4375977001619,917.4375977001619,917.4375977001619,917.4375977001619,917.4375977001619,917.4375977001619,917.4375977001619,917.4375977001619,917.4375977001619,47,42,27,46,46,67,2.0,2.294147599954158,,,,,,,,,,,,,[],[],[],[],[],[],[],0.2,3,,[],[],[],[],[],[],[],,,,,None,None,922.2646411000751,924.2354644001462,919.9462672001682,919.9462672001682,919.9462672001682,919.9462672001682,919.9462672001682,,,,,,,,,,,,,,,,276,f,23,2023-04-04_14h48.37.235,RL,2022.2.4,60.30261049138401,
0,0.3,0.225,0,71,71,71,,,,,,,,,,None,924.2354644001462,924.2354644001462,924.2354644001462,924.2354644001462,924.2354644001462,924.2354644001462,j,0.28403929993510246,924.5518804001622,924.5518804001622,924.5518804001622,924.5518804001622,924.5518804001622,924.5518804001622,924.8506899001077,924.8506899001077,925.7981074000709,925.7981074000709,925.7981074000709,925.7981074000709,925.7981074000709,925.7981074000709,925.7981074000709,925.7981074000709,925.7981074000709,925.7981074000709,925.7981074000709,925.7981074000709,925.7981074000709,925.7981074000709,925.7981074000709,925.7981074000709,925.7981074000709,29,45,34,50,50,60,None,None,928.3090700001922,928.3090700001922,928.3090700001922,928.3090700001922,928.3090700001922,928.3090700001922,928.3090700001922,928.3090700001922,0.006712999893352389,928.3090700001922,70,70,[-0.04814814814814815],[-0.25555555555555554],[1],[0],[0],[7.618435600074008],['tijiao'],0.6,0,,[],[],[],[],[],[],[],935.94645830011,935.94645830011,935.94645830011,935.94645830011,7.7592592592592595,2.164272699970752,938.1297575000208,939.8594415001571,,,,,,,,,,,,,,,,,,,,,276,f,23,2023-04-04_14h48.37.235,RL,2022.2.4,60.30261049138401,
1,-0.3,-0.225,0,72,72,72,,,,,,,,,,None,939.8594415001571,939.8594415001571,939.8594415001571,939.8594415001571,939.8594415001571,939.8594415001571,j,0.30255199992097914,940.1925490000285,940.1925490000285,940.1925490000285,940.1925490000285,940.1925490000285,940.1925490000285,940.4913130002096,940.4913130002096,942.2530175000429,942.2530175000429,942.2530175000429,942.2530175000429,942.2530175000429,942.2530175000429,942.2530175000429,942.2530175000429,942.2530175000429,942.2530175000429,942.2530175000429,942.2530175000429,942.2530175000429,942.2530175000429,942.2530175000429,942.2530175000429,942.2530175000429,34,40,34,46,46,68,3.0,2.5415990999899805,,,,,,,,,,,,,[],[],[],[],[],[],[],0.2,2,,[],[],[],[],[],[],[],,,,,None,None,947.3330074001569,949.2172874000389,944.7618975001387,944.7618975001387,944.7618975001387,944.7618975001387,944.7618975001387,,,,,,,,,,,,,,,,276,f,23,2023-04-04_14h48.37.235,RL,2022.2.4,60.30261049138401,
0,0.3,0.225,0,73,73,73,,,,,,,,,,None,949.2172874000389,949.2172874000389,949.2172874000389,949.2172874000389,949.2172874000389,949.2172874000389,j,0.6813433999195695,949.9160509000067,949.9160509000067,949.9160509000067,949.9160509000067,949.9160509000067,949.9160509000067,950.214489800157,950.214489800157,951.029184400104,951.029184400104,951.029184400104,951.029184400104,951.029184400104,951.029184400104,951.029184400104,951.029184400104,951.029184400104,951.029184400104,951.029184400104,951.029184400104,951.029184400104,951.029184400104,951.029184400104,951.029184400104,951.029184400104,31,53,38,41,41,69,3.0,2.874862900003791,,,,,,,,,,,,,[],[],[],[],[],[],[],-0.6,2,,[],[],[],[],[],[],[],,,,,None,None,956.440294300206,958.0598807001952,953.5384770000819,953.5384770000819,953.5384770000819,953.5384770000819,953.5384770000819,,,,,,,,,,,,,,,,276,f,23,2023-04-04_14h48.37.235,RL,2022.2.4,60.30261049138401,
1,-0.3,-0.225,0,74,74,74,,,,,,,,,,None,958.0598807001952,958.0598807001952,958.0598807001952,958.0598807001952,958.0598807001952,958.0598807001952,j,0.5122974999248981,958.5921124999877,958.5921124999877,958.5921124999877,958.5921124999877,958.5921124999877,958.5921124999877,958.8912932001986,958.8912932001986,960.6862120002043,960.6862120002043,960.6862120002043,960.6862120002043,960.6862120002043,960.6862120002043,960.6862120002043,960.6862120002043,960.6862120002043,960.6862120002043,960.6862120002043,960.6862120002043,960.6862120002043,960.6862120002043,960.6862120002043,960.6862120002043,960.6862120002043,32,49,45,45,45,60,2.0,1.8608389000874013,,,,,,,,,,,,,[],[],[],[],[],[],[],-0.2,2,,[],[],[],[],[],[],[],,,,,None,None,965.0816015000455,966.7854567000177,963.1951201001648,963.1951201001648,963.1951201001648,963.1951201001648,963.1951201001648,,,,,,,,,,,,,,,,276,f,23,2023-04-04_14h48.37.235,RL,2022.2.4,60.30261049138401,
0,0.3,0.225,0,75,75,75,,,,,,,,,,q,1007.2933840001933,1007.2933840001933,1007.2933840001933,1007.2933840001933,1007.2933840001933,1007.2933840001933,j,0.9012181002181023,1008.2240550999995,1008.2240550999995,1008.2240550999995,1008.2240550999995,1008.2240550999995,1008.2240550999995,1008.5224894001149,1008.5224894001149,1009.6692268000916,1009.6692268000916,1009.6692268000916,1009.6692268000916,1009.6692268000916,1009.6692268000916,1009.6692268000916,1009.6692268000916,1009.6692268000916,1009.6692268000916,1009.6692268000916,1009.6692268000916,1009.6692268000916,1009.6692268000916,1009.6692268000916,1009.6692268000916,1009.6692268000916,36,57,39,42,42,55,2.0,2.525459200143814,,,,,,,,,,,,,[],[],[],[],[],[],[],-0.2,3,,[],[],[],[],[],[],[],,,,,None,None,1014.7334271001164,1016.6995693000499,1012.1784173999913,1012.1784173999913,1012.1784173999913,1012.1784173999913,1012.1784173999913,,,,,,,,,,,,,966.7854567000177,966.7854567000177,40.47443410009146,276,f,23,2023-04-04_14h48.37.235,RL,2022.2.4,60.30261049138401,
1,-0.3,-0.225,0,76,76,76,,,,,,,,,,None,1016.6995693000499,1016.6995693000499,1016.6995693000499,1016.6995693000499,1016.6995693000499,1016.6995693000499,r,0.25710760010406375,1016.9844182999805,1016.9844182999805,1016.9844182999805,1016.9844182999805,1016.9844182999805,1016.9844182999805,1017.2818846001755,1017.2818846001755,1018.3123000999913,1018.3123000999913,1018.3123000999913,1018.3123000999913,1018.3123000999913,1018.3123000999913,1018.3123000999913,1018.3123000999913,1018.3123000999913,1018.3123000999913,1018.3123000999913,1018.3123000999913,1018.3123000999913,1018.3123000999913,1018.3123000999913,1018.3123000999913,1018.3123000999913,42,46,34,43,42,56,None,None,1020.8239967001136,1020.8239967001136,1020.8239967001136,1020.8239967001136,1020.8239967001136,1020.8239967001136,1020.8239967001136,1020.8239967001136,0.007590000052005053,1020.8239967001136,48,48,"[-0.21203703703703702, -0.12777777777777777]","[-0.30092592592592593, -0.2935185185185185]","[1, 1]","[0, 0]","[0, 0]","[5.174963700119406, 6.520711400080472]",['tijiao'],0.6,0,,[],[],[],[],[],[],[],1027.3651845999993,1027.3651845999993,1027.3651845999993,1027.3651845999993,5.9907407407407405,2.5949790000449866,1029.9797538002022,1031.8081949001644,,,,,,,,,,,,,,,,,,,,,276,f,23,2023-04-04_14h48.37.235,RL,2022.2.4,60.30261049138401,
0,0.3,0.225,0,77,77,77,,,,,,,,,,None,1031.8081949001644,1031.8081949001644,1031.8081949001644,1031.8081949001644,1031.8081949001644,1031.8081949001644,r,0.3146887000184506,1032.1426478000358,1032.1426478000358,1032.1426478000358,1032.1426478000358,1032.1426478000358,1032.1426478000358,1032.4406360001303,1032.4406360001303,1034.1521948000882,1034.1521948000882,1034.1521948000882,1034.1521948000882,1034.1521948000882,1034.1521948000882,1034.1521948000882,1034.1521948000882,1034.1521948000882,1034.1521948000882,1034.1521948000882,1034.1521948000882,1034.1521948000882,1034.1521948000882,1034.1521948000882,1034.1521948000882,1034.1521948000882,31,52,40,50,31,55,None,None,,,,,,,,,,,,,[],[],[],[],[],[],[],-0.2,1,55,[-0.03518518518518519],[-0.30277777777777776],[1],[0],[0],[4.120936900144443],['tijiao_random_2'],1040.8035824000835,1040.8035824000835,1040.8035824000835,1040.8035824000835,7.055555555555555,1.8386213998310268,1042.6611464000307,1044.457261200063,,,,,,1036.6704844001215,1036.6704844001215,1036.6704844001215,1036.6704844001215,1036.6704844001215,1036.6704844001215,1036.6704844001215,1036.6704844001215,0.006744799902662635,1036.6704844001215,,,,,,276,f,23,2023-04-04_14h48.37.235,RL,2022.2.4,60.30261049138401,
1,-0.3,-0.225,0,78,78,78,,,,,,,,,,None,1044.457261200063,1044.457261200063,1044.457261200063,1044.457261200063,1044.457261200063,1044.457261200063,f,0.2601336999796331,1044.741823400138,1044.741823400138,1044.741823400138,1044.741823400138,1044.741823400138,1044.741823400138,1045.039100300055,1045.039100300055,1046.1029853001237,1046.1029853001237,1046.1029853001237,1046.1029853001237,1046.1029853001237,1046.1029853001237,1046.1029853001237,1046.1029853001237,1046.1029853001237,1046.1029853001237,1046.1029853001237,1046.1029853001237,1046.1029853001237,1046.1029853001237,1046.1029853001237,1046.1029853001237,1046.1029853001237,35,55,46,42,55,64,4.0,2.176324100000784,,,,,,,,,,,,,[],[],[],[],[],[],[],-0.6,2,,[],[],[],[],[],[],[],,,,,None,None,1050.8170195000712,1052.76800739998,1048.6122711000498,1048.6122711000498,1048.6122711000498,1048.6122711000498,1048.6122711000498,,,,,,,,,,,,,,,,276,f,23,2023-04-04_14h48.37.235,RL,2022.2.4,60.30261049138401,
0,0.3,0.225,0,79,79,79,,,,,,,,,,None,1052.76800739998,1052.76800739998,1052.76800739998,1052.76800739998,1052.76800739998,1052.76800739998,j,0.8579718000255525,1053.6505915001035,1053.6505915001035,1053.6505915001035,1053.6505915001035,1053.6505915001035,1053.6505915001035,1053.948356400011,1053.948356400011,1054.962229100056,1054.962229100056,1054.962229100056,1054.962229100056,1054.962229100056,1054.962229100056,1054.962229100056,1054.962229100056,1054.962229100056,1054.962229100056,1054.962229100056,1054.962229100056,1054.962229100056,1054.962229100056,1054.962229100056,1054.962229100056,1054.962229100056,34,58,43,53,53,36,None,None,1057.4729271000251,1057.4729271000251,1057.4729271000251,1057.4729271000251,1057.4729271000251,1057.4729271000251,1057.4729271000251,1057.4729271000251,0.006614800076931715,1057.4729271000251,55,55,[-0.03796296296296296],[-0.2759259259259259],[1],[0],[0],[8.1341222000774],['tijiao'],0.6,0,,[],[],[],[],[],[],[],1065.6307995000388,1065.6307995000388,1065.6307995000388,1065.6307995000388,7.814814814814815,3.5722020999528468,1069.2220600000583,1071.101228600135,,,,,,,,,,,,,,,,,,,,,276,f,23,2023-04-04_14h48.37.235,RL,2022.2.4,60.30261049138401,
1,-0.3,-0.225,0,80,80,80,,,,,,,,,,None,1071.101228600135,1071.101228600135,1071.101228600135,1071.101228600135,1071.101228600135,1071.101228600135,j,0.2934034999925643,1071.41868230002,1071.41868230002,1071.41868230002,1071.41868230002,1071.41868230002,1071.41868230002,1071.716308800038,1071.716308800038,1073.6942609001417,1073.6942609001417,1073.7109505999833,1073.7109505999833,1073.7109505999833,1073.7109505999833,1073.7109505999833,1073.7109505999833,1073.7109505999833,1073.7109505999833,1073.7109505999833,1073.7109505999833,1073.7109505999833,1073.7109505999833,1073.7109505999833,1073.7109505999833,1073.7109505999833,33,56,46,51,51,56,4.0,2.5257681000512093,,,,,,,,,,,,,[],[],[],[],[],[],[],-0.2,3,,[],[],[],[],[],[],[],,,,,None,None,1078.773397100158,1080.4591342001222,1076.2202087000478,1076.2202087000478,1076.2202087000478,1076.2202087000478,1076.2202087000478,,,,,,,,,,,,,,,,276,f,23,2023-04-04_14h48.37.235,RL,2022.2.4,60.30261049138401,
0,0.3,0.225,0,81,81,81,,,,,,,,,,None,1080.4591342001222,1080.4591342001222,1080.4591342001222,1080.4591342001222,1080.4591342001222,1080.4591342001222,i,0.7431751999538392,1081.2251593000256,1081.2251593000256,1081.2251593000256,1081.2251593000256,1081.2251593000256,1081.2251593000256,1081.5228571000043,1081.5228571000043,1082.370789000066,1082.370789000066,1082.370789000066,1082.370789000066,1082.370789000066,1082.370789000066,1082.370789000066,1082.370789000066,1082.370789000066,1082.370789000066,1082.370789000066,1082.370789000066,1082.370789000066,1082.370789000066,1082.370789000066,1082.370789000066,1082.370789000066,45,52,41,60,41,63,None,None,,,,,,,,,,,,,[],[],[],[],[],[],[],0.6,1,63,[0.002777777777777778],[-0.29259259259259257],[1],[0],[0],[4.635032900143415],['tijiao_random_2'],1089.5405634001363,1089.5405634001363,1089.5405634001363,1089.5405634001363,7.074074074074074,1.987445899983868,1091.5444531000685,1093.2576099000871,,,,,,1084.8893218000885,1084.8893218000885,1084.8893218000885,1084.8893218000885,1084.8893218000885,1084.8893218000885,1084.8893218000885,1084.8893218000885,0.006953299976885319,1084.8893218000885,,,,,,276,f,23,2023-04-04_14h48.37.235,RL,2022.2.4,60.30261049138401,
1,-0.3,-0.225,0,82,82,82,,,,,,,,,,None,1093.2576099000871,1093.2576099000871,1093.2576099000871,1093.2576099000871,1093.2576099000871,1093.2576099000871,j,0.2844511999282986,1093.5740701002069,1093.5740701002069,1093.5740701002069,1093.5740701002069,1093.5740701002069,1093.5740701002069,1093.8729328000918,1093.8729328000918,1094.8696400001645,1094.8696400001645,1094.8696400001645,1094.8696400001645,1094.8696400001645,1094.8696400001645,1094.8696400001645,1094.8696400001645,1094.8696400001645,1094.8696400001645,1094.8696400001645,1094.8696400001645,1094.8696400001645,1094.8696400001645,1094.8696400001645,1094.8696400001645,1094.8696400001645,33,66,42,53,53,69,3.0,1.9937044000253081,,,,,,,,,,,,,[],[],[],[],[],[],[],0.2,2,,[],[],[],[],[],[],[],,,,,None,None,1099.397867300082,1100.9698891001754,1097.3789365000557,1097.3789365000557,1097.3789365000557,1097.3789365000557,1097.3789365000557,,,,,,,,,,,,,,,,276,f,23,2023-04-04_14h48.37.235,RL,2022.2.4,60.30261049138401,
0,0.3,0.225,0,83,83,83,,,,,,,,,,None,1100.9698891001754,1100.9698891001754,1100.9698891001754,1100.9698891001754,1100.9698891001754,1100.9698891001754,f,0.5147039999719709,1101.5019978000782,1101.5019978000782,1101.5019978000782,1101.5019978000782,1101.5019978000782,1101.5019978000782,1101.8011305001564,1101.8011305001564,1102.7816669000313,1102.7816669000313,1102.7816669000313,1102.7816669000313,1102.7816669000313,1102.7816669000313,1102.7816669000313,1102.7816669000313,1102.7816669000313,1102.7816669000313,1102.7816669000313,1102.7816669000313,1102.7816669000313,1102.7816669000313,1102.7816669000313,1102.7816669000313,1102.7816669000313,29,61,59,57,61,62,4.0,2.243139199912548,,,,,,,,,,,,,[],[],[],[],[],[],[],-0.2,2,,[],[],[],[],[],[],[],,,,,None,None,1107.5627217001747,1109.263711699983,1105.2909258999862,1105.2909258999862,1105.2909258999862,1105.2909258999862,1105.2909258999862,,,,,,,,,,,,,,,,276,f,23,2023-04-04_14h48.37.235,RL,2022.2.4,60.30261049138401,
1,-0.3,-0.225,0,84,84,84,,,,,,,,,,None,1109.263711699983,1109.263711699983,1109.263711699983,1109.263711699983,1109.263711699983,1109.263711699983,j,0.5391420000232756,1109.8304934999906,1109.8304934999906,1109.8304934999906,1109.8304934999906,1109.8304934999906,1109.8304934999906,1110.1285285002086,1110.1285285002086,1111.4414834000636,1111.4414834000636,1111.4414834000636,1111.4414834000636,1111.4414834000636,1111.4414834000636,1111.4414834000636,1111.4414834000636,1111.4414834000636,1111.4414834000636,1111.4414834000636,1111.4414834000636,1111.4414834000636,1111.4414834000636,1111.4414834000636,1111.4414834000636,1111.4414834000636,31,63,54,49,49,66,None,None,,,,,,,,,,,,,[],[],[],[],[],[],[],0.6,1,66,"[-0.05648148148148148, -0.06111111111111111]","[0.05740740740740741, -0.3277777777777778]","[1, 1]","[0, 0]","[0, 0]","[2.4074325999245048, 4.402878099819645]",['tijiao_random_2'],1118.3751449000556,1118.3751449000556,1118.3751449000556,1118.3751449000556,8.101851851851853,3.4348238999955356,1121.8284784001298,1123.6575888001826,,,,,,1113.9608027001377,1113.9608027001377,1113.9608027001377,1113.9608027001377,1113.9608027001377,1113.9608027001377,1113.9608027001377,1113.9608027001377,0.006673499941825867,1113.9608027001377,,,,,,276,f,23,2023-04-04_14h48.37.235,RL,2022.2.4,60.30261049138401,
0,0.3,0.225,0,85,85,85,,,,,,,,,,None,1123.6575888001826,1123.6575888001826,1123.6575888001826,1123.6575888001826,1123.6575888001826,1123.6575888001826,i,0.3634768999181688,1124.043928900035,1124.043928900035,1124.043928900035,1124.043928900035,1124.043928900035,1124.043928900035,1124.3396358001046,1124.3396358001046,1126.2345559999812,1126.2345559999812,1126.2345559999812,1126.2345559999812,1126.2345559999812,1126.2345559999812,1126.2345559999812,1126.2345559999812,1126.2345559999812,1126.2345559999812,1126.2345559999812,1126.2345559999812,1126.2345559999812,1126.2345559999812,1126.2345559999812,1126.2345559999812,1126.2345559999812,41,64,64,43,64,58,None,None,,,,,,,,,,,,,[],[],[],[],[],[],[],0.6,1,75,[0.1398148148148148],[-0.29444444444444445],[1],[0],[0],[6.131232199957594],['tijiao_random_2'],1134.8970804000273,1134.8970804000273,1134.8970804000273,1134.8970804000273,6.185185185185185,2.403865800006315,1137.3197962001432,1139.1489584001247,,,,,,1128.7526865000837,1128.7526865000837,1128.7526865000837,1128.7526865000837,1128.7526865000837,1128.7526865000837,1128.7526865000837,1128.7526865000837,0.0060489000752568245,1128.7526865000837,,,,,,276,f,23,2023-04-04_14h48.37.235,RL,2022.2.4,60.30261049138401,
1,-0.3,-0.225,0,86,86,86,,,,,,,,,,None,1139.1489584001247,1139.1489584001247,1139.1489584001247,1139.1489584001247,1139.1489584001247,1139.1489584001247,j,0.31360269989818335,1139.482765900204,1139.482765900204,1139.482765900204,1139.482765900204,1139.482765900204,1139.482765900204,1139.7810043999925,1139.7810043999925,1141.077256300021,1141.077256300021,1141.077256300021,1141.077256300021,1141.077256300021,1141.077256300021,1141.077256300021,1141.077256300021,1141.077256300021,1141.077256300021,1141.077256300021,1141.077256300021,1141.077256300021,1141.077256300021,1141.077256300021,1141.077256300021,1141.077256300021,39,57,67,57,57,65,None,None,1143.5881827999838,1143.5881827999838,1143.5881827999838,1143.5881827999838,1143.5881827999838,1143.5881827999838,1143.5881827999838,1143.5881827999838,0.006408100016415119,1143.5881827999838,60,60,[0.013888888888888888],[-0.3194444444444444],[1],[0],[0],[4.693510700017214],['tijiao'],0.6,0,,[],[],[],[],[],[],[],1148.3037824002095,1148.3037824002095,1148.3037824002095,1148.3037824002095,6.62962962962963,2.1784323998726904,1150.5002548000775,1152.2964302999899,,,,,,,,,,,,,,,,,,,,,276,f,23,2023-04-04_14h48.37.235,RL,2022.2.4,60.30261049138401,
0,0.3,0.225,0,87,87,87,,,,,,,,,,None,1152.2964302999899,1152.2964302999899,1152.2964302999899,1152.2964302999899,1152.2964302999899,1152.2964302999899,j,0.33023590012453496,1152.6474462000187,1152.6474462000187,1152.6474462000187,1152.6474462000187,1152.6474462000187,1152.6474462000187,1152.9450803000946,1152.9450803000946,1154.0585015001707,1154.0585015001707,1154.0585015001707,1154.0585015001707,1154.0585015001707,1154.0585015001707,1154.0585015001707,1154.0585015001707,1154.0585015001707,1154.0585015001707,1154.0585015001707,1154.0585015001707,1154.0585015001707,1154.0585015001707,1154.0585015001707,1154.0585015001707,1154.0585015001707,31,72,71,51,51,66,None,None,1156.569079700159,1156.569079700159,1156.569079700159,1156.569079700159,1156.569079700159,1156.569079700159,1156.569079700159,1156.569079700159,0.006630599964410067,1156.569079700159,50,50,[0.03981481481481482],[-0.29814814814814816],[1],[0],[0],[4.561147500062361],['tijiao'],0.6,0,,[],[],[],[],[],[],[],1161.1511435001157,1161.1511435001157,1161.1511435001157,1161.1511435001157,7.175925925925926,1.9129323000088334,1163.0826048001181,1164.762498000171,,,,,,,,,,,,,,,,,,,,,276,f,23,2023-04-04_14h48.37.235,RL,2022.2.4,60.30261049138401,
1,-0.3,-0.225,0,88,88,88,,,,,,,,,,None,1164.762498000171,1164.762498000171,1164.762498000171,1164.762498000171,1164.762498000171,1164.762498000171,i,0.3288084000814706,1165.1130890001077,1165.1130890001077,1165.1130890001077,1165.1130890001077,1165.1130890001077,1165.1130890001077,1165.4110281001776,1165.4110281001776,1166.9898272000719,1166.9898272000719,1166.9898272000719,1166.9898272000719,1166.9898272000719,1166.9898272000719,1166.9898272000719,1166.9898272000719,1166.9898272000719,1166.9898272000719,1166.9898272000719,1166.9898272000719,1166.9898272000719,1166.9898272000719,1166.9898272000719,1166.9898272000719,1166.9898272000719,40,64,63,48,63,31,7.0,2.260009900201112,,,,,,,,,,,,,[],[],[],[],[],[],[],-0.2,3,,[],[],[],[],[],[],[],,,,,None,None,1171.7852132001426,1173.6714744002093,1169.4990748001728,1169.4990748001728,1169.4990748001728,1169.4990748001728,1169.4990748001728,,,,,,,,,,,,,,,,276,f,23,2023-04-04_14h48.37.235,RL,2022.2.4,60.30261049138401,
0,0.3,0.225,0,89,89,89,,,,,,,,,,None,1173.6714744002093,1173.6714744002093,1173.6714744002093,1173.6714744002093,1173.6714744002093,1173.6714744002093,f,0.8728298000060022,1174.5710482001305,1174.5710482001305,1174.5710482001305,1174.5710482001305,1174.5710482001305,1174.5710482001305,1174.8685038001277,1174.8685038001277,1175.7659895999823,1175.7659895999823,1175.7659895999823,1175.7659895999823,1175.7659895999823,1175.7659895999823,1175.7659895999823,1175.7659895999823,1175.7659895999823,1175.7659895999823,1175.7659895999823,1175.7659895999823,1175.7659895999823,1175.7659895999823,1175.7659895999823,1175.7659895999823,1175.7659895999823,37,52,67,49,52,76,None,None,,,,,,,,,,,,,[],[],[],[],[],[],[],-0.6,1,50,[0.13148148148148148],[-0.2601851851851852],[1],[0],[0],[4.402473900001496],['tijiao_random_2'],1182.7002617002,1182.7002617002,1182.7002617002,1182.7002617002,1.416666666666667,3.2844495999161154,1186.0038497000933,1187.9325670001563,,,,,,1178.2853635000065,1178.2853635000065,1178.2853635000065,1178.2853635000065,1178.2853635000065,1178.2853635000065,1178.2853635000065,1178.2853635000065,0.006345799891278148,1178.2853635000065,,,,,,276,f,23,2023-04-04_14h48.37.235,RL,2022.2.4,60.30261049138401,
