bandit0,black_x_pos_random,black_y_pos_random,trials.thisRepN,trials.thisTrialN,trials.thisN,trials.thisIndex,instru_img1.started,instru_resp.started,instru_resp.keys,instru_resp.rt,instru_img2.started,instru_resp2.started,instru_resp2.keys,instru_resp2.rt,fixbefore_2.started,rest_response.keys,red.started,green.started,yellow.started,blue.started,choose_bandit.started,Fixation.started,choose_bandit.keys,choose_bandit.rt,black.started,red_2.started,green_2.started,yellow_2.started,blue_2.started,fixation_2.started,docs.started,wait_playerB.started,docs.stopped,wait_playerB.stopped,black.stopped,red_2.stopped,green_2.stopped,yellow_2.stopped,blue_2.stopped,fixation_2.stopped,black_com.started,reward_sub.started,palyerb.started,reward__sub.started,compare.started,red_compare.started,green_com.started,yellow_com.started,blue_com.started,image_3.started,slider.started,text.started,image_4.started,image_5.started,rewardyellow,rewardred,rewardblue,rewardgreen,subchoose,playerb,slider.response,slider.rt,expectself.text,value_expect_self,tijiao_click.x,tijiao_click.y,tijiao_click.leftButton,tijiao_click.midButton,tijiao_click.rightButton,tijiao_click.time,tijiao_click.clicked_name,random_whicharm,whether_ask,expect_random_3.text,tijiao_random.x,tijiao_random.y,tijiao_random.leftButton,tijiao_random.midButton,tijiao_random.rightButton,tijiao_random.time,tijiao_random.clicked_name,slider_2.response,slider_2.rt,intertrialfix.started,intertrialfix.stopped,jiantou_random.started,expect_red.started,expect_green.started,expect_yellow.started,expect_blue.started,expect_random_2.started,expect_random_3.started,tijiao_random_2.started,tijiao_random.started,check_2.started,slider_2.started,image_7.started,confi.started,notconfi.started,expectself.started,expect_self_black.started,expect_self.started,expect_self_red.started,expect_self_green.started,expect_self_yellow.started,expect_self_blue.started,tijiao.started,tijiao_click.started,check.started,rest_image.started,rest_response.started,rest_response.rt,bigx.started,bigx.stopped,participant,Gender,Age,date,expName,psychopyVersion,frameRate,
,,,,,,,11.857099400134757,11.857099400134757,space,5.803344799904153,,,,,,,,,,,,,,,,,,,,,,,,,,,,,,,,,,,,,,,,,,,,,,,,,,,,,,,,,,,,,,,,,,,,,,,,,,,,,,,,,,,,,,,,,,,,,,,,,,,,,,,,,1,f,1,2023-04-04_16h26.43.895,RL,2022.2.4,60.123794898420904,
,,,,,,,,,,,17.689568100031465,17.689568100031465,s,71.0924806999974,,,,,,,,,,,,,,,,,,,,,,,,,,,,,,,,,,,,,,,,,,,,,,,,,,,,,,,,,,,,,,,,,,,,,,,,,,,,,,,,,,,,,,,,,,,,,,,,,,,,,1,f,1,2023-04-04_16h26.43.895,RL,2022.2.4,60.123794898420904,
1,-0.3,-0.225,0,0,0,0,,,,,,,,,88.80444930004887,None,89.83149360003881,89.83149360003881,89.83149360003881,89.83149360003881,89.83149360003881,89.83149360003881,f,0.48424609983339906,90.35590560012497,90.35590560012497,90.35590560012497,90.35590560012497,90.35590560012497,90.35590560012497,90.63307870016433,90.63307870016433,91.54693990014493,91.54693990014493,91.5661522001028,91.5661522001028,91.5661522001028,91.5661522001028,91.5661522001028,91.5661522001028,91.5661522001028,91.5661522001028,91.5661522001028,91.5661522001028,91.5661522001028,91.5661522001028,91.5661522001028,91.5661522001028,91.5661522001028,94.07313040015288,94.07313040015288,94.07313040015288,94.07313040015288,94.07313040015288,53,48,64,42,48,49,4.0,3.505955999949947,,,[],[],[],[],[],[],[],0.6,2,,[],[],[],[],[],[],[],None,None,97.76423860015348,99.57482800004072,,,,,,,,,,,,,,,,,,,,,,,,,,,,,,1,f,1,2023-04-04_16h26.43.895,RL,2022.2.4,60.123794898420904,
0,0.3,0.225,0,1,1,1,,,,,,,,,,None,99.57482800004072,99.57482800004072,99.57482800004072,99.57482800004072,99.57482800004072,99.57482800004072,i,0.5226786001585424,100.12915450008586,100.12915450008586,100.12915450008586,100.12915450008586,100.12915450008586,100.12915450008586,100.42280870000832,100.42280870000832,101.8185149000492,101.8185149000492,101.8185149000492,101.8185149000492,101.8185149000492,101.8185149000492,101.8185149000492,101.8185149000492,101.8185149000492,101.8185149000492,101.8185149000492,101.8185149000492,101.8185149000492,101.8185149000492,101.8185149000492,101.8185149000492,101.8185149000492,104.32801340008155,104.32801340008155,104.32801340008155,104.32801340008155,104.32801340008155,51,55,58,41,58,42,5.0,1.727831199998036,,,[],[],[],[],[],[],[],0.2,3,,[],[],[],[],[],[],[],None,None,106.0838491001632,107.95214210008271,,,,,,,,,,,,,,,,,,,,,,,,,,,,,,1,f,1,2023-04-04_16h26.43.895,RL,2022.2.4,60.123794898420904,
1,-0.3,-0.225,0,2,2,2,,,,,,,,,,None,107.95214210008271,107.95214210008271,107.95214210008271,107.95214210008271,107.95214210008271,107.95214210008271,j,0.513219199841842,108.49127440014854,108.49127440014854,108.49127440014854,108.49127440014854,108.49127440014854,108.49127440014854,108.78299590013921,108.78299590013921,109.78027139999904,109.78027139999904,109.78027139999904,109.78027139999904,109.78027139999904,109.78027139999904,109.78027139999904,109.78027139999904,109.78027139999904,109.78027139999904,109.78027139999904,109.78027139999904,109.78027139999904,109.78027139999904,109.78027139999904,109.78027139999904,109.78027139999904,,,,,,44,55,67,40,40,37,None,None,,,[],[],[],[],[],[],[],0.2,1,50,[0.018518518518518517],[-0.25092592592592594],[1],[0],[0],[7.38029560004361],['tijiao_random_2'],1.972222222222222,3.7986824000254273,123.5252551001031,125.27144280006178,112.32357240002602,112.32357240002602,112.32357240002602,112.32357240002602,112.32357240002602,112.32357240002602,112.32357240002602,112.32357240002602,0.007806899957358837,112.32357240002602,119.71430760016665,119.71430760016665,119.71430760016665,119.71430760016665,,,,,,,,,,,,,,,,1,f,1,2023-04-04_16h26.43.895,RL,2022.2.4,60.123794898420904,
0,0.3,0.225,0,3,3,3,,,,,,,,,,None,125.27144280006178,125.27144280006178,125.27144280006178,125.27144280006178,125.27144280006178,125.27144280006178,i,0.588761700084433,125.88790019997396,125.88790019997396,125.88790019997396,125.88790019997396,125.88790019997396,125.88790019997396,126.18598140007816,126.18598140007816,127.03314980003051,127.03314980003051,127.03314980003051,127.03314980003051,127.03314980003051,127.03314980003051,127.03314980003051,127.03314980003051,127.03314980003051,127.03314980003051,127.03314980003051,127.03314980003051,127.03314980003051,127.03314980003051,127.03314980003051,127.03314980003051,127.03314980003051,129.54272960009985,129.54272960009985,129.54272960009985,129.54272960009985,129.54272960009985,60,54,64,38,64,51,5.0,2.8746937999967486,,,[],[],[],[],[],[],[],0.2,2,,[],[],[],[],[],[],[],None,None,132.44390800013207,134.24684319994412,,,,,,,,,,,,,,,,,,,,,,,,,,,,,,1,f,1,2023-04-04_16h26.43.895,RL,2022.2.4,60.123794898420904,
1,-0.3,-0.225,0,4,4,4,,,,,,,,,,None,134.24684319994412,134.24684319994412,134.24684319994412,134.24684319994412,134.24684319994412,134.24684319994412,i,0.49127120012417436,134.76532530016266,134.76532530016266,134.76532530016266,134.76532530016266,134.76532530016266,134.76532530016266,135.06187870004214,135.06187870004214,137.05613350006752,137.05613350006752,137.05613350006752,137.05613350006752,137.05613350006752,137.05613350006752,137.05613350006752,137.05613350006752,137.05613350006752,137.05613350006752,137.05613350006752,137.05613350006752,137.05613350006752,137.05613350006752,137.05613350006752,137.05613350006752,137.05613350006752,,,,,,55,57,54,44,54,52,None,None,,,[],[],[],[],[],[],[],0.2,1,54,[0.01574074074074074],[-0.30185185185185187],[1],[0],[0],[5.198737300001085],['tijiao_random_2'],9.935185185185187,3.6827175999060273,148.49034140002914,150.05386700015515,139.57704799994826,139.57704799994826,139.57704799994826,139.57704799994826,139.57704799994826,139.57704799994826,139.57704799994826,139.57704799994826,0.00633540004491806,139.57704799994826,144.78918660013005,144.78918660013005,144.78918660013005,144.78918660013005,,,,,,,,,,,,,,,,1,f,1,2023-04-04_16h26.43.895,RL,2022.2.4,60.123794898420904,
0,0.3,0.225,0,5,5,5,,,,,,,,,,None,150.05386700015515,150.05386700015515,150.05386700015515,150.05386700015515,150.05386700015515,150.05386700015515,r,0.3809068000409752,150.45989780011587,150.45989780011587,150.45989780011587,150.45989780011587,150.45989780011587,150.45989780011587,150.75221780012362,150.75221780012362,152.41396789997816,152.41396789997816,152.4309048000723,152.4309048000723,152.4309048000723,152.4309048000723,152.4309048000723,152.4309048000723,152.4309048000723,152.4309048000723,152.4309048000723,152.4309048000723,152.4309048000723,152.4309048000723,152.4309048000723,152.4309048000723,152.4309048000723,154.9399678001646,154.9399678001646,154.9399678001646,154.9399678001646,154.9399678001646,50,53,59,51,50,72,3.0,2.874925300013274,,,[],[],[],[],[],[],[],0.6,3,,[],[],[],[],[],[],[],None,None,157.84104160009883,159.36177630000748,,,,,,,,,,,,,,,,,,,,,,,,,,,,,,1,f,1,2023-04-04_16h26.43.895,RL,2022.2.4,60.123794898420904,
1,-0.3,-0.225,0,6,6,6,,,,,,,,,,None,159.36177630000748,159.36177630000748,159.36177630000748,159.36177630000748,159.36177630000748,159.36177630000748,f,0.4700899999588728,159.86242519994266,159.86242519994266,159.86242519994266,159.86242519994266,159.86242519994266,159.86242519994266,160.15974389994517,160.15974389994517,161.24017830006778,161.24017830006778,161.24017830006778,161.24017830006778,161.24017830006778,161.24017830006778,161.24017830006778,161.24017830006778,161.24017830006778,161.24017830006778,161.24017830006778,161.24017830006778,161.24017830006778,161.24017830006778,161.24017830006778,161.24017830006778,161.24017830006778,,,,,,59,59,58,43,59,65,None,None,60,60,[-0.07685185185185185],[-0.27685185185185185],[1],[0],[0],[9.780320799909532],['tijiao'],0.2,0,,[],[],[],[],[],[],[],2.9814814814814814,3.374355399981141,176.94617710006423,178.925124600064,,,,,,,,,,,173.5527189001441,173.5527189001441,173.5527189001441,173.5527189001441,163.75400470010936,163.75400470010936,163.75400470010936,163.75400470010936,163.75400470010936,163.75400470010936,163.75400470010936,163.75400470010936,0.0062818999867886305,163.75400470010936,,,,,,1,f,1,2023-04-04_16h26.43.895,RL,2022.2.4,60.123794898420904,
0,0.3,0.225,0,7,7,7,,,,,,,,,,None,178.925124600064,178.925124600064,178.925124600064,178.925124600064,178.925124600064,178.925124600064,j,0.4089710998814553,179.35853460012004,179.35853460012004,179.35853460012004,179.35853460012004,179.35853460012004,179.35853460012004,179.65666540013626,179.65666540013626,180.48737500002608,180.48737500002608,180.48737500002608,180.48737500002608,180.48737500002608,180.48737500002608,180.48737500002608,180.48737500002608,180.48737500002608,180.48737500002608,180.48737500002608,180.48737500002608,180.48737500002608,180.48737500002608,180.48737500002608,180.48737500002608,180.48737500002608,182.99689080007374,182.99689080007374,182.99689080007374,182.99689080007374,182.99689080007374,52,50,61,53,53,50,4.0,2.59237219998613,,,[],[],[],[],[],[],[],-0.2,2,,[],[],[],[],[],[],[],None,None,185.6141498000361,187.21907490002923,,,,,,,,,,,,,,,,,,,,,,,,,,,,,,1,f,1,2023-04-04_16h26.43.895,RL,2022.2.4,60.123794898420904,
1,-0.3,-0.225,0,8,8,8,,,,,,,,,,None,187.21907490002923,187.21907490002923,187.21907490002923,187.21907490002923,187.21907490002923,187.21907490002923,j,0.6232225000858307,187.86828149994835,187.86828149994835,187.86828149994835,187.86828149994835,187.86828149994835,187.86828149994835,188.16661159996875,188.16661159996875,189.9952410000842,189.9952410000842,189.9952410000842,189.9952410000842,189.9952410000842,189.9952410000842,189.9952410000842,189.9952410000842,189.9952410000842,189.9952410000842,189.9952410000842,189.9952410000842,189.9952410000842,189.9952410000842,189.9952410000842,189.9952410000842,189.9952410000842,192.50407100003213,192.50407100003213,192.50407100003213,192.50407100003213,192.50407100003213,53,52,56,49,49,49,4.0,1.7611077001783997,,,[],[],[],[],[],[],[],-0.6,2,,[],[],[],[],[],[],[],None,None,194.2931862999685,196.04496309999377,,,,,,,,,,,,,,,,,,,,,,,,,,,,,,1,f,1,2023-04-04_16h26.43.895,RL,2022.2.4,60.123794898420904,
0,0.3,0.225,0,9,9,9,,,,,,,,,,None,196.04496309999377,196.04496309999377,196.04496309999377,196.04496309999377,196.04496309999377,196.04496309999377,i,0.42840510001406074,196.49539660010487,196.49539660010487,196.49539660010487,196.49539660010487,196.49539660010487,196.49539660010487,196.7928927000612,196.7928927000612,197.60746840015054,197.60746840015054,197.60746840015054,197.60746840015054,197.60746840015054,197.60746840015054,197.60746840015054,197.60746840015054,197.60746840015054,197.60746840015054,197.60746840015054,197.60746840015054,197.60746840015054,197.60746840015054,197.60746840015054,197.60746840015054,197.60746840015054,,,,,,52,44,57,39,57,71,None,None,65,65,[-0.01574074074074074],[-0.2759259259259259],[1],[0],[0],[7.600779699860141],['tijiao'],0.6,0,,[],[],[],[],[],[],[],2.944444444444444,3.1077459000516683,210.8703282000497,212.59961439995095,,,,,,,,,,,207.7437619001139,207.7437619001139,207.7437619001139,207.7437619001139,200.12048329995014,200.12048329995014,200.12048329995014,200.12048329995014,200.12048329995014,200.12048329995014,200.12048329995014,200.12048329995014,0.008361399872228503,200.12048329995014,,,,,,1,f,1,2023-04-04_16h26.43.895,RL,2022.2.4,60.123794898420904,
1,-0.3,-0.225,0,10,10,10,,,,,,,,,,None,212.59961439995095,212.59961439995095,212.59961439995095,212.59961439995095,212.59961439995095,212.59961439995095,f,0.5639148000627756,213.18232830008492,213.18232830008492,213.18232830008492,213.18232830008492,213.18232830008492,213.18232830008492,213.48079800000414,213.48079800000414,215.0764705000911,215.0764705000911,215.0764705000911,215.0764705000911,215.0764705000911,215.0764705000911,215.0764705000911,215.0764705000911,215.0764705000911,215.0764705000911,215.0764705000911,215.0764705000911,215.0764705000911,215.0764705000911,215.0764705000911,215.0764705000911,215.0764705000911,217.58559880009852,217.58559880009852,217.58559880009852,217.58559880009852,217.58559880009852,40,47,58,55,47,69,3.0,3.2063118000514805,,,[],[],[],[],[],[],[],0.2,3,,[],[],[],[],[],[],[],None,None,220.8199440999888,222.63895549997687,,,,,,,,,,,,,,,,,,,,,,,,,,,,,,1,f,1,2023-04-04_16h26.43.895,RL,2022.2.4,60.123794898420904,
0,0.3,0.225,0,11,11,11,,,,,,,,,,None,222.63895549997687,222.63895549997687,222.63895549997687,222.63895549997687,222.63895549997687,222.63895549997687,j,0.7110857998486608,223.37105930014513,223.37105930014513,223.37105930014513,223.37105930014513,223.37105930014513,223.37105930014513,223.66997899999842,223.66997899999842,224.83329420001246,224.83329420001246,224.83329420001246,224.83329420001246,224.83329420001246,224.83329420001246,224.83329420001246,224.83329420001246,224.83329420001246,224.83329420001246,224.83329420001246,224.83329420001246,224.83329420001246,224.83329420001246,224.83329420001246,224.83329420001246,224.83329420001246,227.34247509995475,227.34247509995475,227.34247509995475,227.34247509995475,227.34247509995475,48,48,54,37,37,28,3.0,1.8275765001308173,,,[],[],[],[],[],[],[],0.2,3,,[],[],[],[],[],[],[],None,None,229.19909540005028,230.9996055001393,,,,,,,,,,,,,,,,,,,,,,,,,,,,,,1,f,1,2023-04-04_16h26.43.895,RL,2022.2.4,60.123794898420904,
1,-0.3,-0.225,0,12,12,12,,,,,,,,,,None,230.9996055001393,230.9996055001393,230.9996055001393,230.9996055001393,230.9996055001393,230.9996055001393,r,0.43289689999073744,231.46559630008414,231.46559630008414,231.46559630008414,231.46559630008414,231.46559630008414,231.46559630008414,231.76446320000105,231.76446320000105,233.6593726000283,233.6593726000283,233.6593726000283,233.6593726000283,233.6593726000283,233.6593726000283,233.6593726000283,233.6593726000283,233.6593726000283,233.6593726000283,233.6593726000283,233.6593726000283,233.6593726000283,233.6593726000283,233.6593726000283,233.6593726000283,233.6593726000283,,,,,,47,53,52,33,47,79,None,None,60,60,[-0.05092592592592592],[-0.25555555555555554],[1],[0],[0],[6.439221299951896],['tijiao'],0.6,0,,[],[],[],[],[],[],[],2.9722222222222223,2.411882600048557,245.06064709997736,246.93954730010591,,,,,,,,,,,242.6294382000342,242.6294382000342,242.6294382000342,242.6294382000342,236.1702205000911,236.1702205000911,236.1702205000911,236.1702205000911,236.1702205000911,236.1702205000911,236.1702205000911,236.1702205000911,0.00627589994110167,236.1702205000911,,,,,,1,f,1,2023-04-04_16h26.43.895,RL,2022.2.4,60.123794898420904,
0,0.3,0.225,0,13,13,13,,,,,,,,,,None,246.93954730010591,246.93954730010591,246.93954730010591,246.93954730010591,246.93954730010591,246.93954730010591,i,0.4785984999034554,247.4387040999718,247.4387040999718,247.4387040999718,247.4387040999718,247.4387040999718,247.4387040999718,247.73725600005127,247.73725600005127,249.33250440005213,249.33250440005213,249.33250440005213,249.33250440005213,249.33250440005213,249.33250440005213,249.33250440005213,249.33250440005213,249.33250440005213,249.33250440005213,249.33250440005213,249.33250440005213,249.33250440005213,249.33250440005213,249.33250440005213,249.33250440005213,249.33250440005213,251.8420595000498,251.8420595000498,251.8420595000498,251.8420595000498,251.8420595000498,46,53,57,43,57,70,3.0,2.4586803999263793,,,[],[],[],[],[],[],[],-0.2,3,,[],[],[],[],[],[],[],None,None,254.3305165001657,255.99807600001805,,,,,,,,,,,,,,,,,,,,,,,,,,,,,,1,f,1,2023-04-04_16h26.43.895,RL,2022.2.4,60.123794898420904,
1,-0.3,-0.225,0,14,14,14,,,,,,,,,,None,255.99807600001805,255.99807600001805,255.99807600001805,255.99807600001805,255.99807600001805,255.99807600001805,j,0.661930900067091,256.67981550004333,256.67981550004333,256.67981550004333,256.67981550004333,256.67981550004333,256.67981550004333,256.9789081001654,256.9789081001654,258.7906108000316,258.7906108000316,258.7906108000316,258.7906108000316,258.7906108000316,258.7906108000316,258.7906108000316,258.7906108000316,258.7906108000316,258.7906108000316,258.7906108000316,258.7906108000316,258.7906108000316,258.7906108000316,258.7906108000316,258.7906108000316,258.7906108000316,261.2997165999841,261.2997165999841,261.2997165999841,261.2997165999841,261.2997165999841,46,53,54,46,46,76,3.0,1.329184299800545,,,[],[],[],[],[],[],[],-0.6,2,,[],[],[],[],[],[],[],None,None,262.65763560007326,264.5076560000889,,,,,,,,,,,,,,,,,,,,,,,,,,,,,,1,f,1,2023-04-04_16h26.43.895,RL,2022.2.4,60.123794898420904,
0,0.3,0.225,0,15,15,15,,,,,,,,,,None,264.5076560000889,264.5076560000889,264.5076560000889,264.5076560000889,264.5076560000889,264.5076560000889,r,0.5603734999895096,265.09097500005737,265.09097500005737,265.09097500005737,265.09097500005737,265.09097500005737,265.09097500005737,265.3892817001324,265.3892817001324,267.2342010999564,267.2342010999564,267.2342010999564,267.2342010999564,267.2342010999564,267.2342010999564,267.2342010999564,267.2342010999564,267.2342010999564,267.2342010999564,267.2342010999564,267.2342010999564,267.2342010999564,267.2342010999564,267.2342010999564,267.2342010999564,267.2342010999564,,,,,,48,42,57,44,48,71,None,None,,,[],[],[],[],[],[],[],0.2,1,70,[-0.05277777777777778],[-0.25462962962962965],[1],[0],[0],[5.482249800115824],['tijiao_random_2'],2.9074074074074074,1.7390857001300901,277.0065756000113,278.73600280005485,269.7532999999821,269.7532999999821,269.7532999999821,269.7532999999821,269.7532999999821,269.7532999999821,269.7532999999821,269.7532999999821,0.007067499915137887,269.7532999999821,275.24917560000904,275.24917560000904,275.24917560000904,275.24917560000904,,,,,,,,,,,,,,,,1,f,1,2023-04-04_16h26.43.895,RL,2022.2.4,60.123794898420904,
1,-0.3,-0.225,0,16,16,16,,,,,,,,,,None,278.73600280005485,278.73600280005485,278.73600280005485,278.73600280005485,278.73600280005485,278.73600280005485,f,0.38478640001267195,279.1536398001481,279.1536398001481,279.1536398001481,279.1536398001481,279.1536398001481,279.1536398001481,279.45057750004344,279.45057750004344,280.3817456001416,280.3817456001416,280.3983829000499,280.3983829000499,280.3983829000499,280.3983829000499,280.3983829000499,280.3983829000499,280.3983829000499,280.3983829000499,280.3983829000499,280.3983829000499,280.3983829000499,280.3983829000499,280.3983829000499,280.3983829000499,280.3983829000499,282.9075393001549,282.9075393001549,282.9075393001549,282.9075393001549,282.9075393001549,45,49,64,45,49,64,2.0,2.4259953999426216,,,[],[],[],[],[],[],[],-0.2,3,,[],[],[],[],[],[],[],None,None,285.35978549998254,287.3123866999522,,,,,,,,,,,,,,,,,,,,,,,,,,,,,,1,f,1,2023-04-04_16h26.43.895,RL,2022.2.4,60.123794898420904,
0,0.3,0.225,0,17,17,17,,,,,,,,,,None,287.3123866999522,287.3123866999522,287.3123866999522,287.3123866999522,287.3123866999522,287.3123866999522,i,0.3863468000199646,287.7289353001397,287.7289353001397,287.7289353001397,287.7289353001397,287.7289353001397,287.7289353001397,288.02765020006336,288.02765020006336,289.19061079993844,289.19061079993844,289.20734700001776,289.20734700001776,289.20734700001776,289.20734700001776,289.20734700001776,289.20734700001776,289.20734700001776,289.20734700001776,289.20734700001776,289.20734700001776,289.20734700001776,289.20734700001776,289.20734700001776,289.20734700001776,289.20734700001776,,,,,,52,48,69,40,69,85,None,None,70,70,[-0.075],[-0.26666666666666666],[1],[0],[0],[9.69809120008722],['tijiao'],0.6,0,,[],[],[],[],[],[],[],2.8981481481481484,2.4562214000616223,303.9161545999814,305.89526490005665,,,,,,,,,,,301.4411872001365,301.4411872001365,301.4411872001365,301.4411872001365,291.7179397,291.7179397,291.7179397,291.7179397,291.7179397,291.7179397,291.7179397,291.7179397,0.0060876000206917524,291.7179397,,,,,,1,f,1,2023-04-04_16h26.43.895,RL,2022.2.4,60.123794898420904,
1,-0.3,-0.225,0,18,18,18,,,,,,,,,,None,305.89526490005665,305.89526490005665,305.89526490005665,305.89526490005665,305.89526490005665,305.89526490005665,i,0.45685290009714663,306.37754809996113,306.37754809996113,306.37754809996113,306.37754809996113,306.37754809996113,306.37754809996113,306.67663719994016,306.67663719994016,308.33856910001487,308.33856910001487,308.35537960007787,308.35537960007787,308.35537960007787,308.35537960007787,308.35537960007787,308.35537960007787,308.35537960007787,308.35537960007787,308.35537960007787,308.35537960007787,308.35537960007787,308.35537960007787,308.35537960007787,308.35537960007787,308.35537960007787,310.86453160014935,310.86453160014935,310.86453160014935,310.86453160014935,310.86453160014935,42,46,65,49,65,78,3.0,2.5921932000201195,,,[],[],[],[],[],[],[],0.2,3,,[],[],[],[],[],[],[],None,None,313.48428150010295,315.4022964001633,,,,,,,,,,,,,,,,,,,,,,,,,,,,,,1,f,1,2023-04-04_16h26.43.895,RL,2022.2.4,60.123794898420904,
0,0.3,0.225,0,19,19,19,,,,,,,,,,None,315.4022964001633,315.4022964001633,315.4022964001633,315.4022964001633,315.4022964001633,315.4022964001633,f,0.45586999994702637,315.8845439001452,315.8845439001452,315.8845439001452,315.8845439001452,315.8845439001452,315.8845439001452,316.18398480000906,316.18398480000906,317.1149019000586,317.1149019000586,317.1149019000586,317.1149019000586,317.1149019000586,317.1149019000586,317.1149019000586,317.1149019000586,317.1149019000586,317.1149019000586,317.1149019000586,317.1149019000586,317.1149019000586,317.1149019000586,317.1149019000586,317.1149019000586,317.1149019000586,,,,,,45,45,69,44,45,79,None,None,60,60,[-0.09537037037037037],[-0.27870370370370373],[1],[0],[0],[6.604448100086302],['tijiao'],0.2,0,,[],[],[],[],[],[],[],4.018518518518518,1.5964437001384795,327.86761560011655,329.81308360002004,,,,,,,,,,,326.2522665001452,326.2522665001452,326.2522665001452,326.2522665001452,319.6265322000254,319.6265322000254,319.6265322000254,319.6265322000254,319.6265322000254,319.6265322000254,319.6265322000254,319.6265322000254,0.00782880000770092,319.6265322000254,,,,,,1,f,1,2023-04-04_16h26.43.895,RL,2022.2.4,60.123794898420904,
1,-0.3,-0.225,0,20,20,20,,,,,,,,,,None,329.81308360002004,329.81308360002004,329.81308360002004,329.81308360002004,329.81308360002004,329.81308360002004,f,0.2287133999634534,330.0636857000645,330.0636857000645,330.0636857000645,330.0636857000645,330.0636857000645,330.0636857000645,330.3620758000761,330.3620758000761,331.95772710000165,331.95772710000165,331.95772710000165,331.95772710000165,331.95772710000165,331.95772710000165,331.95772710000165,331.95772710000165,331.95772710000165,331.95772710000165,331.95772710000165,331.95772710000165,331.95772710000165,331.95772710000165,331.95772710000165,331.95772710000165,331.95772710000165,,,,,,50,54,74,45,54,55,None,None,65,65,[-0.028703703703703703],[-0.2777777777777778],[1],[0],[0],[5.209012199891731],['tijiao'],0.6,0,,[],[],[],[],[],[],[],3.9444444444444446,1.7301074999850243,341.4470689999871,342.9937052000314,,,,,,,,,,,339.69849160010926,339.69849160010926,339.69849160010926,339.69849160010926,334.46804510010406,334.46804510010406,334.46804510010406,334.46804510010406,334.46804510010406,334.46804510010406,334.46804510010406,334.46804510010406,0.006441000150516629,334.46804510010406,,,,,,1,f,1,2023-04-04_16h26.43.895,RL,2022.2.4,60.123794898420904,
0,0.3,0.225,0,21,21,21,,,,,,,,,,None,342.9937052000314,342.9937052000314,342.9937052000314,342.9937052000314,342.9937052000314,342.9937052000314,i,0.3465623001102358,343.36165140010417,343.36165140010417,343.36165140010417,343.36165140010417,343.36165140010417,343.36165140010417,343.6590647001285,343.6590647001285,345.12190679996274,345.12190679996274,345.12190679996274,345.12190679996274,345.12190679996274,345.12190679996274,345.12190679996274,345.12190679996274,345.12190679996274,345.12190679996274,345.12190679996274,345.12190679996274,345.12190679996274,345.12190679996274,345.12190679996274,345.12190679996274,345.12190679996274,,,,,,30,48,65,50,65,77,None,None,,,[],[],[],[],[],[],[],-0.6,1,50,[-0.04351851851851852],[-0.3277777777777778],[1],[0],[0],[4.1685665000695735],['tijiao_random_2'],2.9814814814814814,1.3241495999973267,353.16562169999816,355.12750199995935,347.6416812001262,347.6416812001262,347.6416812001262,347.6416812001262,347.6416812001262,347.6416812001262,347.6416812001262,347.6416812001262,0.00612489995546639,347.6416812001262,351.82239200011827,351.82239200011827,351.82239200011827,351.82239200011827,,,,,,,,,,,,,,,,1,f,1,2023-04-04_16h26.43.895,RL,2022.2.4,60.123794898420904,
1,-0.3,-0.225,0,22,22,22,,,,,,,,,,None,355.12750199995935,355.12750199995935,355.12750199995935,355.12750199995935,355.12750199995935,355.12750199995935,r,0.7169997999444604,355.87837930000387,355.87837930000387,355.87837930000387,355.87837930000387,355.87837930000387,355.87837930000387,356.1748804000672,356.1748804000672,357.9863458001055,357.9863458001055,357.9863458001055,357.9863458001055,357.9863458001055,357.9863458001055,357.9863458001055,357.9863458001055,357.9863458001055,357.9863458001055,357.9863458001055,357.9863458001055,357.9863458001055,357.9863458001055,357.9863458001055,357.9863458001055,357.9863458001055,,,,,,42,48,70,38,42,76,None,None,,,[],[],[],[],[],[],[],-0.2,1,50,[-0.1824074074074074],[-0.2722222222222222],[1],[0],[0],[6.363568400032818],['tijiao_random_2'],2.9722222222222223,1.4895410002209246,368.39027269999497,369.93719920003787,360.50627840007655,360.50627840007655,360.50627840007655,360.50627840007655,360.50627840007655,360.50627840007655,360.50627840007655,360.50627840007655,0.006719300057739019,360.50627840007655,366.881944200024,366.881944200024,366.881944200024,366.881944200024,,,,,,,,,,,,,,,,1,f,1,2023-04-04_16h26.43.895,RL,2022.2.4,60.123794898420904,
0,0.3,0.225,0,23,23,23,,,,,,,,,,None,369.93719920003787,369.93719920003787,369.93719920003787,369.93719920003787,369.93719920003787,369.93719920003787,i,1.0289434001315385,370.98770179995336,370.98770179995336,370.98770179995336,370.98770179995336,370.98770179995336,370.98770179995336,371.28322760015726,371.28322760015726,372.4304723001551,372.4304723001551,372.4473177001346,372.4473177001346,372.4473177001346,372.4473177001346,372.4473177001346,372.4473177001346,372.4473177001346,372.4473177001346,372.4473177001346,372.4473177001346,372.4473177001346,372.4473177001346,372.4473177001346,372.4473177001346,372.4473177001346,,,,,,45,48,55,48,55,62,None,None,,,[],[],[],[],[],[],[],-0.2,1,50,[-0.05092592592592592],[-0.3055555555555556],[1],[0],[0],[3.870969600044191],['tijiao_random_2'],2.8981481481481484,1.040694700088352,379.908775200136,381.67192540015094,374.9653750001453,374.9653750001453,374.9653750001453,374.9653750001453,374.9653750001453,374.9653750001453,374.9653750001453,374.9653750001453,0.006608800031244755,374.9653750001453,378.8496306000743,378.8496306000743,378.8496306000743,378.8496306000743,,,,,,,,,,,,,,,,1,f,1,2023-04-04_16h26.43.895,RL,2022.2.4,60.123794898420904,
1,-0.3,-0.225,0,24,24,24,,,,,,,,,,None,381.67192540015094,381.67192540015094,381.67192540015094,381.67192540015094,381.67192540015094,381.67192540015094,j,0.33434409997425973,382.03975680004805,382.03975680004805,382.03975680004805,382.03975680004805,382.03975680004805,382.03975680004805,382.3367052001413,382.3367052001413,383.6995258999523,383.6995258999523,383.6995258999523,383.6995258999523,383.6995258999523,383.6995258999523,383.6995258999523,383.6995258999523,383.6995258999523,383.6995258999523,383.6995258999523,383.6995258999523,383.6995258999523,383.6995258999523,383.6995258999523,383.6995258999523,383.6995258999523,386.20888569997624,386.20888569997624,386.20888569997624,386.20888569997624,386.20888569997624,48,47,69,46,46,67,3.0,3.0080619000364095,,,[],[],[],[],[],[],[],-0.2,3,,[],[],[],[],[],[],[],None,None,389.2453215001151,390.8965749000199,,,,,,,,,,,,,,,,,,,,,,,,,,,,,,1,f,1,2023-04-04_16h26.43.895,RL,2022.2.4,60.123794898420904,
0,0.3,0.225,0,25,25,25,,,,,,,,,,None,390.8965749000199,390.8965749000199,390.8965749000199,390.8965749000199,390.8965749000199,390.8965749000199,r,0.5128649999387562,391.42878370010294,391.42878370010294,391.42878370010294,391.42878370010294,391.42878370010294,391.42878370010294,391.7279998001177,391.7279998001177,393.1573634000961,393.1573634000961,393.1573634000961,393.1573634000961,393.1573634000961,393.1573634000961,393.1573634000961,393.1573634000961,393.1573634000961,393.1573634000961,393.1573634000961,393.1573634000961,393.1573634000961,393.1573634000961,393.1573634000961,393.1573634000961,393.1573634000961,395.6663355000783,395.6663355000783,395.6663355000783,395.6663355000783,395.6663355000783,34,52,73,55,34,65,3.0,2.9743311000056565,,,[],[],[],[],[],[],[],0.6,3,,[],[],[],[],[],[],[],None,None,398.6663743001409,400.4205666000489,,,,,,,,,,,,,,,,,,,,,,,,,,,,,,1,f,1,2023-04-04_16h26.43.895,RL,2022.2.4,60.123794898420904,
1,-0.3,-0.225,0,26,26,26,,,,,,,,,,None,400.4205666000489,400.4205666000489,400.4205666000489,400.4205666000489,400.4205666000489,400.4205666000489,f,0.4459178000688553,400.8862443000544,400.8862443000544,400.8862443000544,400.8862443000544,400.8862443000544,400.8862443000544,401.1856478000991,401.1856478000991,402.5649278999772,402.5649278999772,402.5649278999772,402.5649278999772,402.5649278999772,402.5649278999772,402.5649278999772,402.5649278999772,402.5649278999772,402.5649278999772,402.5649278999772,402.5649278999772,402.5649278999772,402.5649278999772,402.5649278999772,402.5649278999772,402.5649278999772,405.0739297999535,405.0739297999535,405.0739297999535,405.0739297999535,405.0739297999535,40,53,68,45,53,31,4.0,1.3954523000866175,,,[],[],[],[],[],[],[],-0.2,3,,[],[],[],[],[],[],[],None,None,406.4976040001493,408.2155608001631,,,,,,,,,,,,,,,,,,,,,,,,,,,,,,1,f,1,2023-04-04_16h26.43.895,RL,2022.2.4,60.123794898420904,
0,0.3,0.225,0,27,27,27,,,,,,,,,,None,408.2155608001631,408.2155608001631,408.2155608001631,408.2155608001631,408.2155608001631,408.2155608001631,i,0.5893012001179159,408.8316840000916,408.8316840000916,408.8316840000916,408.8316840000916,408.8316840000916,408.8316840000916,409.13035220000893,409.13035220000893,410.0112557001412,410.0112557001412,410.0279403999448,410.0279403999448,410.0279403999448,410.0279403999448,410.0279403999448,410.0279403999448,410.0279403999448,410.0279403999448,410.0279403999448,410.0279403999448,410.0279403999448,410.0279403999448,410.0279403999448,410.0279403999448,410.0279403999448,,,,,,36,50,62,46,62,71,None,None,60,60,[0.03518518518518519],[-0.2962962962962963],[1],[0],[0],[4.842730099800974],['tijiao'],-0.6,0,,[],[],[],[],[],[],[],4.046296296296296,2.442863999865949,419.86672809999436,421.8122317001689,,,,,,,,,,,417.40480910008773,417.40480910008773,417.40480910008773,417.40480910008773,412.5395780999679,412.5395780999679,412.5395780999679,412.5395780999679,412.5395780999679,412.5395780999679,412.5395780999679,412.5395780999679,0.0070420000702142715,412.5395780999679,,,,,,1,f,1,2023-04-04_16h26.43.895,RL,2022.2.4,60.123794898420904,
1,-0.3,-0.225,0,28,28,28,,,,,,,,,,None,421.8122317001689,421.8122317001689,421.8122317001689,421.8122317001689,421.8122317001689,421.8122317001689,j,0.3711928001139313,422.2114884001203,422.2114884001203,422.2114884001203,422.2114884001203,422.2114884001203,422.2114884001203,422.5102197001688,422.5102197001688,423.7402349000331,423.7402349000331,423.7402349000331,423.7402349000331,423.7402349000331,423.7402349000331,423.7402349000331,423.7402349000331,423.7402349000331,423.7402349000331,423.7402349000331,423.7402349000331,423.7402349000331,423.7402349000331,423.7402349000331,423.7402349000331,423.7402349000331,426.24959370004945,426.24959370004945,426.24959370004945,426.24959370004945,426.24959370004945,42,44,71,47,47,74,3.0,1.993674999801442,,,[],[],[],[],[],[],[],0.6,2,,[],[],[],[],[],[],[],None,None,428.2685547999572,429.99005810008384,,,,,,,,,,,,,,,,,,,,,,,,,,,,,,1,f,1,2023-04-04_16h26.43.895,RL,2022.2.4,60.123794898420904,
0,0.3,0.225,0,29,29,29,,,,,,,,,,None,429.99005810008384,429.99005810008384,429.99005810008384,429.99005810008384,429.99005810008384,429.99005810008384,j,0.391233199974522,430.4070055000484,430.4070055000484,430.4070055000484,430.4070055000484,430.4070055000484,430.4070055000484,430.7045428000856,430.7045428000856,432.3833924001083,432.3833924001083,432.3833924001083,432.3833924001083,432.3833924001083,432.3833924001083,432.3833924001083,432.3833924001083,432.3833924001083,432.3833924001083,432.3833924001083,432.3833924001083,432.3833924001083,432.3833924001083,432.3833924001083,432.3833924001083,432.3833924001083,,,,,,53,41,66,50,50,76,None,None,55,55,"[-0.09259259259259259, -0.09259259259259259, -0.046296296296296294]","[-0.2462962962962963, -0.2462962962962963, -0.2935185185185185]","[1, 1, 1]","[0, 0, 0]","[0, 0, 0]","[4.244276799960062, 5.307621299987659, 6.188221100019291]",['tijiao'],-0.2,0,,[],[],[],[],[],[],[],4.0,2.344293399946764,443.4688562999945,445.0485122001264,,,,,,,,,,,441.1056977000553,441.1056977000553,441.1056977000553,441.1056977000553,434.89555080002174,434.89555080002174,434.89555080002174,434.89555080002174,434.89555080002174,434.89555080002174,434.89555080002174,434.89555080002174,0.008145800093188882,434.89555080002174,,,,,,1,f,1,2023-04-04_16h26.43.895,RL,2022.2.4,60.123794898420904,
1,-0.3,-0.225,0,30,30,30,,,,,,,,,,None,445.0485122001264,445.0485122001264,445.0485122001264,445.0485122001264,445.0485122001264,445.0485122001264,i,0.299037299817428,445.36682260013185,445.36682260013185,445.36682260013185,445.36682260013185,445.36682260013185,445.36682260013185,445.66416850010864,445.66416850010864,446.94370550010353,446.94370550010353,446.9603415001184,446.9603415001184,446.9603415001184,446.9603415001184,446.9603415001184,446.9603415001184,446.9603415001184,446.9603415001184,446.9603415001184,446.9603415001184,446.9603415001184,446.9603415001184,446.9603415001184,446.9603415001184,446.9603415001184,449.4696051001083,449.4696051001083,449.4696051001083,449.4696051001083,449.4696051001083,40,46,68,52,68,78,3.0,2.0602496000938118,,,[],[],[],[],[],[],[],-0.6,2,,[],[],[],[],[],[],[],None,None,451.5560366001446,453.3429297001567,,,,,,,,,,,,,,,,,,,,,,,,,,,,,,1,f,1,2023-04-04_16h26.43.895,RL,2022.2.4,60.123794898420904,
0,0.3,0.225,0,31,31,31,,,,,,,,,,None,453.3429297001567,453.3429297001567,453.3429297001567,453.3429297001567,453.3429297001567,453.3429297001567,i,0.4726271000690758,453.84287870000117,453.84287870000117,453.84287870000117,453.84287870000117,453.84287870000117,453.84287870000117,454.140662800055,454.140662800055,456.1186965999659,456.1186965999659,456.1186965999659,456.1186965999659,456.1186965999659,456.1186965999659,456.1186965999659,456.1186965999659,456.1186965999659,456.1186965999659,456.1186965999659,456.1186965999659,456.1186965999659,456.1186965999659,456.1186965999659,456.1186965999659,456.1186965999659,458.6276150001213,458.6276150001213,458.6276150001213,458.6276150001213,458.6276150001213,35,44,52,51,52,69,3.0,1.1623252001591027,,,[],[],[],[],[],[],[],0.2,3,,[],[],[],[],[],[],[],None,None,459.81580039998516,461.81981849996373,,,,,,,,,,,,,,,,,,,,,,,,,,,,,,1,f,1,2023-04-04_16h26.43.895,RL,2022.2.4,60.123794898420904,
1,-0.3,-0.225,0,32,32,32,,,,,,,,,,None,461.81981849996373,461.81981849996373,461.81981849996373,461.81981849996373,461.81981849996373,461.81981849996373,i,0.3178294999524951,462.16925580007955,462.16925580007955,462.16925580007955,462.16925580007955,462.16925580007955,462.16925580007955,462.46832840004936,462.46832840004936,463.7644388000481,463.7644388000481,463.7644388000481,463.7644388000481,463.7644388000481,463.7644388000481,463.7644388000481,463.7644388000481,463.7644388000481,463.7644388000481,463.7644388000481,463.7644388000481,463.7644388000481,463.7644388000481,463.7644388000481,463.7644388000481,463.7644388000481,,,,,,31,48,52,49,52,50,None,None,,,[],[],[],[],[],[],[],0.2,1,52,"[-0.05277777777777778, -0.020370370370370372]","[-0.1935185185185185, -0.30925925925925923]","[1, 1]","[0, 0]","[0, 0]","[5.4483899001497775, 6.495074100093916]",['tijiao_random_2'],9.046296296296296,2.337284600129351,475.1491203000769,476.9948712999467,466.28531599999405,466.28531599999405,466.28531599999405,466.28531599999405,466.28531599999405,466.28531599999405,466.28531599999405,466.28531599999405,0.00695640011690557,466.28531599999405,472.79392440011725,472.79392440011725,472.79392440011725,472.79392440011725,,,,,,,,,,,,,,,,1,f,1,2023-04-04_16h26.43.895,RL,2022.2.4,60.123794898420904,
0,0.3,0.225,0,33,33,33,,,,,,,,,,None,476.9948712999467,476.9948712999467,476.9948712999467,476.9948712999467,476.9948712999467,476.9948712999467,r,0.2949371999129653,477.3123308001086,477.3123308001086,477.3123308001086,477.3123308001086,477.3123308001086,477.3123308001086,477.6103124001529,477.6103124001529,478.80691660009325,478.80691660009325,478.80691660009325,478.80691660009325,478.80691660009325,478.80691660009325,478.80691660009325,478.80691660009325,478.80691660009325,478.80691660009325,478.80691660009325,478.80691660009325,478.80691660009325,478.80691660009325,478.80691660009325,478.80691660009325,478.80691660009325,,,,,,30,51,53,53,30,66,None,None,,,[],[],[],[],[],[],[],0.2,1,60,[0.18055555555555555],[-0.2759259259259259],[1],[0],[0],[3.9523505999241024],['tijiao_random_2'],4.87037037037037,1.589707300066948,486.90036620013416,488.779536300106,481.32733430014923,481.32733430014923,481.32733430014923,481.32733430014923,481.32733430014923,481.32733430014923,481.32733430014923,481.32733430014923,0.007055000169202685,481.32733430014923,485.29307240014896,485.29307240014896,485.29307240014896,485.29307240014896,,,,,,,,,,,,,,,,1,f,1,2023-04-04_16h26.43.895,RL,2022.2.4,60.123794898420904,
1,-0.3,-0.225,0,34,34,34,,,,,,,,,,None,488.779536300106,488.779536300106,488.779536300106,488.779536300106,488.779536300106,488.779536300106,f,0.3302521000150591,489.13147519994527,489.13147519994527,489.13147519994527,489.13147519994527,489.13147519994527,489.13147519994527,489.42803309997544,489.42803309997544,491.1898358000908,491.1898358000908,491.1898358000908,491.1898358000908,491.1898358000908,491.1898358000908,491.1898358000908,491.1898358000908,491.1898358000908,491.1898358000908,491.1898358000908,491.1898358000908,491.1898358000908,491.1898358000908,491.1898358000908,491.1898358000908,491.1898358000908,,,,,,25,58,59,48,58,62,None,None,60,60,"[-0.07314814814814814, -0.06111111111111111]","[-0.2101851851851852, -0.2759259259259259]","[1, 1]","[0, 0]","[0, 0]","[4.526909600012004, 5.4081354001536965]",['tijiao'],0.2,0,,[],[],[],[],[],[],[],2.944444444444444,1.8295281999744475,500.978702200111,502.5586916001048,,,,,,,,,,,499.13017680007033,499.13017680007033,499.13017680007033,499.13017680007033,493.7010236000642,493.7010236000642,493.7010236000642,493.7010236000642,493.7010236000642,493.7010236000642,493.7010236000642,493.7010236000642,0.007150400197133422,493.7010236000642,,,,,,1,f,1,2023-04-04_16h26.43.895,RL,2022.2.4,60.123794898420904,
0,0.3,0.225,0,35,35,35,,,,,,,,,,None,502.5586916001048,502.5586916001048,502.5586916001048,502.5586916001048,502.5586916001048,502.5586916001048,i,0.3741013999097049,502.95975450007245,502.95975450007245,502.95975450007245,502.95975450007245,502.95975450007245,502.95975450007245,503.2566349999979,503.2566349999979,504.3870805001352,504.3870805001352,504.4037206999492,504.4037206999492,504.4037206999492,504.4037206999492,504.4037206999492,504.4037206999492,504.4037206999492,504.4037206999492,504.4037206999492,504.4037206999492,504.4037206999492,504.4037206999492,504.4037206999492,504.4037206999492,504.4037206999492,,,,,,34,46,53,50,53,58,None,None,,,[],[],[],[],[],[],[],0.2,1,53,"[-0.2064814814814815, 0.001851851851851852]","[-0.225, -0.27037037037037037]","[1, 1]","[0, 0]","[0, 0]","[5.89808820001781, 6.795845299959183]",['tijiao_random_2'],9.74074074074074,1.6211372998077422,515.3725264000241,517.2850520999637,506.92306930013,506.92306930013,506.92306930013,506.92306930013,506.92306930013,506.92306930013,506.92306930013,506.92306930013,0.006420199992135167,506.92306930013,513.7327008000575,513.7327008000575,513.7327008000575,513.7327008000575,,,,,,,,,,,,,,,,1,f,1,2023-04-04_16h26.43.895,RL,2022.2.4,60.123794898420904,
1,-0.3,-0.225,0,36,36,36,,,,,,,,,,None,517.2850520999637,517.2850520999637,517.2850520999637,517.2850520999637,517.2850520999637,517.2850520999637,j,0.5258222999982536,517.8349518999457,517.8349518999457,517.8349518999457,517.8349518999457,517.8349518999457,517.8349518999457,518.132976599969,518.132976599969,519.9447360001504,519.9447360001504,519.9447360001504,519.9447360001504,519.9447360001504,519.9447360001504,519.9447360001504,519.9447360001504,519.9447360001504,519.9447360001504,519.9447360001504,519.9447360001504,519.9447360001504,519.9447360001504,519.9447360001504,519.9447360001504,519.9447360001504,,,,,,36,54,59,49,49,67,None,None,,,[],[],[],[],[],[],[],0.6,1,49,"[0.19537037037037036, 0.11296296296296296]","[-0.24814814814814815, -0.30833333333333335]","[1, 1]","[0, 0]","[0, 0]","[4.336719800019637, 5.766344000119716]",['tijiao_random_2'],9.25925925925926,2.3689003998879343,530.6308526000939,532.4935693000443,522.4631366000976,522.4631366000976,522.4631366000976,522.4631366000976,522.4631366000976,522.4631366000976,522.4631366000976,522.4631366000976,0.006738000083714724,522.4631366000976,528.2451800000854,528.2451800000854,528.2451800000854,528.2451800000854,,,,,,,,,,,,,,,,1,f,1,2023-04-04_16h26.43.895,RL,2022.2.4,60.123794898420904,
0,0.3,0.225,0,37,37,37,,,,,,,,,,None,532.4935693000443,532.4935693000443,532.4935693000443,532.4935693000443,532.4935693000443,532.4935693000443,j,0.434182700002566,532.9606492000166,532.9606492000166,532.9606492000166,532.9606492000166,532.9606492000166,532.9606492000166,533.2580697000958,533.2580697000958,534.6711937000509,534.6711937000509,534.6711937000509,534.6711937000509,534.6711937000509,534.6711937000509,534.6711937000509,534.6711937000509,534.6711937000509,534.6711937000509,534.6711937000509,534.6711937000509,534.6711937000509,534.6711937000509,534.6711937000509,534.6711937000509,534.6711937000509,,,,,,32,48,63,48,48,61,None,None,,,[],[],[],[],[],[],[],0.2,1,65,"[0.12407407407407407, -0.000925925925925926]","[-0.2, -0.3351851851851852]","[1, 1]","[0, 0]","[0, 0]","[5.018170600058511, 5.765839400002733]",['tijiao_random_2'],4.435185185185185,1.5391620001755655,544.5266323001124,546.522115000058,537.1901800001506,537.1901800001506,537.1901800001506,537.1901800001506,537.1901800001506,537.1901800001506,537.1901800001506,537.1901800001506,0.006495899986475706,537.1901800001506,542.9693216001615,542.9693216001615,542.9693216001615,542.9693216001615,,,,,,,,,,,,,,,,1,f,1,2023-04-04_16h26.43.895,RL,2022.2.4,60.123794898420904,
1,-0.3,-0.225,0,38,38,38,,,,,,,,,,None,546.522115000058,546.522115000058,546.522115000058,546.522115000058,546.522115000058,546.522115000058,f,0.5391295000445098,547.0881102001294,547.0881102001294,547.0881102001294,547.0881102001294,547.0881102001294,547.0881102001294,547.3866328999866,547.3866328999866,548.6659216999542,548.6659216999542,548.6659216999542,548.6659216999542,548.6659216999542,548.6659216999542,548.6659216999542,548.6659216999542,548.6659216999542,548.6659216999542,548.6659216999542,548.6659216999542,548.6659216999542,548.6659216999542,548.6659216999542,548.6659216999542,548.6659216999542,,,,,,40,47,74,56,47,61,None,None,,,[],[],[],[],[],[],[],-0.2,1,47,[-0.04814814814814815],[-0.2601851851851852],[1],[0],[0],[3.9045764000620693],['tijiao_random_2'],8.444444444444445,2.6027993001043797,557.7235531001352,559.6694203000516,551.1864434001036,551.1864434001036,551.1864434001036,551.1864434001036,551.1864434001036,551.1864434001036,551.1864434001036,551.1864434001036,0.006789699895307422,551.1864434001036,555.1017597001046,555.1017597001046,555.1017597001046,555.1017597001046,,,,,,,,,,,,,,,,1,f,1,2023-04-04_16h26.43.895,RL,2022.2.4,60.123794898420904,
0,0.3,0.225,0,39,39,39,,,,,,,,,,None,559.6694203000516,559.6694203000516,559.6694203000516,559.6694203000516,559.6694203000516,559.6694203000516,f,0.7509323998820037,560.4513849001378,560.4513849001378,560.4513849001378,560.4513849001378,560.4513849001378,560.4513849001378,560.7498155999929,560.7498155999929,562.5283795001451,562.5283795001451,562.5283795001451,562.5283795001451,562.5283795001451,562.5283795001451,562.5283795001451,562.5283795001451,562.5283795001451,562.5283795001451,562.5283795001451,562.5283795001451,562.5283795001451,562.5283795001451,562.5283795001451,562.5283795001451,562.5283795001451,,,,,,37,38,67,54,38,52,None,None,,,[],[],[],[],[],[],[],-0.2,1,38,[0.1527777777777778],[-0.32314814814814813],[1],[0],[0],[5.150684599997476],['tijiao_random_2'],8.972222222222223,2.020744899986312,572.2506154000293,574.0466682000551,565.0476532001048,565.0476532001048,565.0476532001048,565.0476532001048,565.0476532001048,565.0476532001048,565.0476532001048,565.0476532001048,0.006755399983376265,565.0476532001048,570.2117773999926,570.2117773999926,570.2117773999926,570.2117773999926,,,,,,,,,,,,,,,,1,f,1,2023-04-04_16h26.43.895,RL,2022.2.4,60.123794898420904,
1,-0.3,-0.225,0,40,40,40,,,,,,,,,,None,574.0466682000551,574.0466682000551,574.0466682000551,574.0466682000551,574.0466682000551,574.0466682000551,i,0.3169267000630498,574.39643910015,574.39643910015,574.39643910015,574.39643910015,574.39643910015,574.39643910015,574.6950561001431,574.6950561001431,576.1081318000797,576.1081318000797,576.1081318000797,576.1081318000797,576.1081318000797,576.1081318000797,576.1081318000797,576.1081318000797,576.1081318000797,576.1081318000797,576.1081318000797,576.1081318000797,576.1081318000797,576.1081318000797,576.1081318000797,576.1081318000797,576.1081318000797,578.6172587000765,578.6172587000765,578.6172587000765,578.6172587000765,578.6172587000765,42,40,68,52,68,69,4.0,1.5618632000405341,,,[],[],[],[],[],[],[],0.6,3,,[],[],[],[],[],[],[],None,None,580.2053775000386,582.0582435000688,,,,,,,,,,,,,,,,,,,,,,,,,,,,,,1,f,1,2023-04-04_16h26.43.895,RL,2022.2.4,60.123794898420904,
0,0.3,0.225,0,41,41,41,,,,,,,,,,None,582.0582435000688,582.0582435000688,582.0582435000688,582.0582435000688,582.0582435000688,582.0582435000688,i,0.3746525999158621,582.4574701001402,582.4574701001402,582.4574701001402,582.4574701001402,582.4574701001402,582.4574701001402,582.7565742000006,582.7565742000006,583.8702020000201,583.8702020000201,583.8702020000201,583.8702020000201,583.8702020000201,583.8702020000201,583.8702020000201,583.8702020000201,583.8702020000201,583.8702020000201,583.8702020000201,583.8702020000201,583.8702020000201,583.8702020000201,583.8702020000201,583.8702020000201,583.8702020000201,,,,,,42,48,76,51,76,69,None,None,80,80,"[0.049074074074074076, 0.046296296296296294]","[-0.36574074074074076, -0.30833333333333335]","[1, 1]","[0, 0]","[0, 0]","[5.1590408000629395, 6.505787699948996]",['tijiao'],0.6,0,,[],[],[],[],[],[],[],4.842592592592593,2.0283683000598103,594.9553772001527,596.5354402000085,,,,,,,,,,,592.9084735000506,592.9084735000506,592.9084735000506,592.9084735000506,586.3813855000772,586.3813855000772,586.3813855000772,586.3813855000772,586.3813855000772,586.3813855000772,586.3813855000772,586.3813855000772,0.006635300116613507,586.3813855000772,,,,,,1,f,1,2023-04-04_16h26.43.895,RL,2022.2.4,60.123794898420904,
1,-0.3,-0.225,0,42,42,42,,,,,,,,,,None,596.5354402000085,596.5354402000085,596.5354402000085,596.5354402000085,596.5354402000085,596.5354402000085,i,0.35573289985768497,596.9188256000634,596.9188256000634,596.9188256000634,596.9188256000634,596.9188256000634,596.9188256000634,597.2173250000924,597.2173250000924,598.1976279001683,598.1976279001683,598.1976279001683,598.1976279001683,598.1976279001683,598.1976279001683,598.1976279001683,598.1976279001683,598.1976279001683,598.1976279001683,598.1976279001683,598.1976279001683,598.1976279001683,598.1976279001683,598.1976279001683,598.1976279001683,598.1976279001683,600.7070329999551,600.7070329999551,600.7070329999551,600.7070329999551,600.7070329999551,38,44,77,53,77,68,4.0,1.9603840000927448,,,[],[],[],[],[],[],[],-0.2,2,,[],[],[],[],[],[],[],None,None,602.6933671000879,604.2308903001249,,,,,,,,,,,,,,,,,,,,,,,,,,,,,,1,f,1,2023-04-04_16h26.43.895,RL,2022.2.4,60.123794898420904,
0,0.3,0.225,0,43,43,43,,,,,,,,,,None,604.2308903001249,604.2308903001249,604.2308903001249,604.2308903001249,604.2308903001249,604.2308903001249,i,0.36808079993352294,604.6311938001309,604.6311938001309,604.6311938001309,604.6311938001309,604.6311938001309,604.6311938001309,604.9295107000507,604.9295107000507,606.2591474000365,606.2591474000365,606.2591474000365,606.2591474000365,606.2591474000365,606.2591474000365,606.2591474000365,606.2591474000365,606.2591474000365,606.2591474000365,606.2591474000365,606.2591474000365,606.2591474000365,606.2591474000365,606.2591474000365,606.2591474000365,606.2591474000365,608.7680186000653,608.7680186000653,608.7680186000653,608.7680186000653,608.7680186000653,44,56,72,57,72,75,4.0,2.675792400026694,,,[],[],[],[],[],[],[],-0.6,2,,[],[],[],[],[],[],[],None,None,611.4710594001226,613.3725095000118,,,,,,,,,,,,,,,,,,,,,,,,,,,,,,1,f,1,2023-04-04_16h26.43.895,RL,2022.2.4,60.123794898420904,
1,-0.3,-0.225,0,44,44,44,,,,,,,,,,None,613.3725095000118,613.3725095000118,613.3725095000118,613.3725095000118,613.3725095000118,613.3725095000118,i,0.5591497998684645,613.954918500036,613.954918500036,613.954918500036,613.954918500036,613.954918500036,613.954918500036,614.254149600165,614.254149600165,616.0823323000222,616.0823323000222,616.0823323000222,616.0823323000222,616.0823323000222,616.0823323000222,616.0823323000222,616.0823323000222,616.0823323000222,616.0823323000222,616.0823323000222,616.0823323000222,616.0823323000222,616.0823323000222,616.0823323000222,616.0823323000222,616.0823323000222,618.5911557001527,618.5911557001527,618.5911557001527,618.5911557001527,618.5911557001527,46,62,73,56,73,65,4.0,1.5116155000869185,,,[],[],[],[],[],[],[],-0.2,3,,[],[],[],[],[],[],[],None,None,620.1318958001211,621.8164803001564,,,,,,,,,,,,,,,,,,,,,,,,,,,,,,1,f,1,2023-04-04_16h26.43.895,RL,2022.2.4,60.123794898420904,
0,0.3,0.225,0,45,45,45,,,,,,,,,,None,621.8164803001564,621.8164803001564,621.8164803001564,621.8164803001564,621.8164803001564,621.8164803001564,i,0.47855819994583726,622.3181937001646,622.3181937001646,622.3181937001646,622.3181937001646,622.3181937001646,622.3181937001646,622.6141932001337,622.6141932001337,623.5124488000292,623.5124488000292,623.5124488000292,623.5124488000292,623.5124488000292,623.5124488000292,623.5124488000292,623.5124488000292,623.5124488000292,623.5124488000292,623.5124488000292,623.5124488000292,623.5124488000292,623.5124488000292,623.5124488000292,623.5124488000292,623.5124488000292,,,,,,48,54,70,60,70,66,None,None,,,[],[],[],[],[],[],[],-0.6,1,30,[0.08148148148148149],[-0.2657407407407407],[1],[0],[0],[3.5381474001333117],['tijiao_random_2'],4.453703703703704,1.9714351000729948,631.5722177000716,633.3848886999767,626.0310820001177,626.0310820001177,626.0310820001177,626.0310820001177,626.0310820001177,626.0310820001177,626.0310820001177,626.0310820001177,0.006866399897262454,626.0310820001177,629.5821649001446,629.5821649001446,629.5821649001446,629.5821649001446,,,,,,,,,,,,,,,,1,f,1,2023-04-04_16h26.43.895,RL,2022.2.4,60.123794898420904,
1,-0.3,-0.225,0,46,46,46,,,,,,,,,,None,633.3848886999767,633.3848886999767,633.3848886999767,633.3848886999767,633.3848886999767,633.3848886999767,i,0.32055979990400374,633.7361171001103,633.7361171001103,633.7361171001103,633.7361171001103,633.7361171001103,633.7361171001103,634.0334284000564,634.0334284000564,635.9777222000994,635.9777222000994,635.9777222000994,635.9777222000994,635.9777222000994,635.9777222000994,635.9777222000994,635.9777222000994,635.9777222000994,635.9777222000994,635.9777222000994,635.9777222000994,635.9777222000994,635.9777222000994,635.9777222000994,635.9777222000994,635.9777222000994,638.4868296999484,638.4868296999484,638.4868296999484,638.4868296999484,638.4868296999484,53,55,69,59,69,63,4.0,3.921675099991262,,,[],[],[],[],[],[],[],-0.6,2,,[],[],[],[],[],[],[],None,None,642.4340679000597,644.0558162000962,,,,,,,,,,,,,,,,,,,,,,,,,,,,,,1,f,1,2023-04-04_16h26.43.895,RL,2022.2.4,60.123794898420904,
0,0.3,0.225,0,47,47,47,,,,,,,,,,None,644.0558162000962,644.0558162000962,644.0558162000962,644.0558162000962,644.0558162000962,644.0558162000962,i,0.4309773000422865,644.5059281999711,644.5059281999711,644.5059281999711,644.5059281999711,644.5059281999711,644.5059281999711,644.8040517000481,644.8040517000481,646.5989665000234,646.5989665000234,646.5989665000234,646.5989665000234,646.5989665000234,646.5989665000234,646.5989665000234,646.5989665000234,646.5989665000234,646.5989665000234,646.5989665000234,646.5989665000234,646.5989665000234,646.5989665000234,646.5989665000234,646.5989665000234,646.5989665000234,,,,,,56,49,83,53,83,69,None,None,,,[],[],[],[],[],[],[],0.6,1,55,"[-0.032407407407407406, -0.05740740740740741]","[-0.2212962962962963, -0.31574074074074077]","[1, 1]","[0, 0]","[0, 0]","[6.246156099950895, 6.977303500054404]",['tijiao_random_2'],4.851851851851852,0.9562156000174582,657.0857403001282,659.0148907999974,649.1191762001254,649.1191762001254,649.1191762001254,649.1191762001254,649.1191762001254,649.1191762001254,649.1191762001254,649.1191762001254,0.006220899987965822,649.1191762001254,656.1115898001008,656.1115898001008,656.1115898001008,656.1115898001008,,,,,,,,,,,,,,,,1,f,1,2023-04-04_16h26.43.895,RL,2022.2.4,60.123794898420904,
1,-0.3,-0.225,0,48,48,48,,,,,,,,,,None,659.0148907999974,659.0148907999974,659.0148907999974,659.0148907999974,659.0148907999974,659.0148907999974,i,0.419662999920547,659.4669884000905,659.4669884000905,659.4669884000905,659.4669884000905,659.4669884000905,659.4669884000905,659.7628431001212,659.7628431001212,660.8436400999781,660.8436400999781,660.8600276000798,660.8600276000798,660.8600276000798,660.8600276000798,660.8600276000798,660.8600276000798,660.8600276000798,660.8600276000798,660.8600276000798,660.8600276000798,660.8600276000798,660.8600276000798,660.8600276000798,660.8600276000798,660.8600276000798,,,,,,65,54,77,54,77,57,None,None,71,71,[0.018518518518518517],[-0.31851851851851853],[1],[0],[0],[11.159268100047484],['tijiao'],-0.2,0,,[],[],[],[],[],[],[],4.962962962962964,1.7778119000140578,676.3498048000038,678.2952248000074,,,,,,,,,,,674.5535671000835,674.5535671000835,674.5535671000835,674.5535671000835,663.3717635001522,663.3717635001522,663.3717635001522,663.3717635001522,663.3717635001522,663.3717635001522,663.3717635001522,663.3717635001522,0.007123199990019202,663.3717635001522,,,,,,1,f,1,2023-04-04_16h26.43.895,RL,2022.2.4,60.123794898420904,
0,0.3,0.225,0,49,49,49,,,,,,,,,,None,678.2952248000074,678.2952248000074,678.2952248000074,678.2952248000074,678.2952248000074,678.2952248000074,i,0.3623495998326689,678.6787529001012,678.6787529001012,678.6787529001012,678.6787529001012,678.6787529001012,678.6787529001012,678.977082000114,678.977082000114,680.7392693001311,680.7392693001311,680.7392693001311,680.7392693001311,680.7392693001311,680.7392693001311,680.7392693001311,680.7392693001311,680.7392693001311,680.7392693001311,680.7392693001311,680.7392693001311,680.7392693001311,680.7392693001311,680.7392693001311,680.7392693001311,680.7392693001311,,,,,,57,49,79,58,79,81,None,None,,,[],[],[],[],[],[],[],-0.6,1,30,[-0.026851851851851852],[-0.3212962962962963],[1],[0],[0],[5.5668989000841975],['tijiao_random_2'],4.953703703703704,1.5879176000598818,690.4447927000001,692.091380200116,683.2575863001402,683.2575863001402,683.2575863001402,683.2575863001402,683.2575863001402,683.2575863001402,683.2575863001402,683.2575863001402,0.006821000017225742,683.2575863001402,688.8387657001149,688.8387657001149,688.8387657001149,688.8387657001149,,,,,,,,,,,,,,,,1,f,1,2023-04-04_16h26.43.895,RL,2022.2.4,60.123794898420904,
1,-0.3,-0.225,0,50,50,50,,,,,,,,,,None,692.091380200116,692.091380200116,692.091380200116,692.091380200116,692.091380200116,692.091380200116,i,0.3805654998868704,692.4923557001166,692.4923557001166,692.4923557001166,692.4923557001166,692.4923557001166,692.4923557001166,692.7898109999951,692.7898109999951,693.7869069001172,693.7869069001172,693.7869069001172,693.7869069001172,693.7869069001172,693.7869069001172,693.7869069001172,693.7869069001172,693.7869069001172,693.7869069001172,693.7869069001172,693.7869069001172,693.7869069001172,693.7869069001172,693.7869069001172,693.7869069001172,693.7869069001172,,,,,,61,44,68,58,68,85,None,None,66,66,[-0.062037037037037036],[-0.25],[1],[0],[0],[9.962984199868515],['tijiao'],0.2,0,,[],[],[],[],[],[],[],3.9444444444444446,1.6782052000053227,707.9803760000505,709.6929742000066,,,,,,,,,,,706.28321220004,706.28321220004,706.28321220004,706.28321220004,696.2979486000258,696.2979486000258,696.2979486000258,696.2979486000258,696.2979486000258,696.2979486000258,696.2979486000258,696.2979486000258,0.006987999891862273,696.2979486000258,,,,,,1,f,1,2023-04-04_16h26.43.895,RL,2022.2.4,60.123794898420904,
0,0.3,0.225,0,51,51,51,,,,,,,,,,None,709.6929742000066,709.6929742000066,709.6929742000066,709.6929742000066,709.6929742000066,709.6929742000066,i,0.3387627999763936,710.0601874000859,710.0601874000859,710.0601874000859,710.0601874000859,710.0601874000859,710.0601874000859,710.3583434999455,710.3583434999455,711.2559005001094,711.2559005001094,711.2559005001094,711.2559005001094,711.2559005001094,711.2559005001094,711.2559005001094,711.2559005001094,711.2559005001094,711.2559005001094,711.2559005001094,711.2559005001094,711.2559005001094,711.2559005001094,711.2559005001094,711.2559005001094,711.2559005001094,713.7650850999635,713.7650850999635,713.7650850999635,713.7650850999635,713.7650850999635,62,53,75,53,75,65,4.0,2.659041600069031,,,[],[],[],[],[],[],[],0.6,3,,[],[],[],[],[],[],[],None,None,716.4497928000055,718.4195075000171,,,,,,,,,,,,,,,,,,,,,,,,,,,,,,1,f,1,2023-04-04_16h26.43.895,RL,2022.2.4,60.123794898420904,
1,-0.3,-0.225,0,52,52,52,,,,,,,,,,None,718.4195075000171,718.4195075000171,718.4195075000171,718.4195075000171,718.4195075000171,718.4195075000171,i,0.6342421998269856,719.0859258000273,719.0859258000273,719.0859258000273,719.0859258000273,719.0859258000273,719.0859258000273,719.3838917999528,719.3838917999528,721.2614891000558,721.2614891000558,721.2784667001106,721.2784667001106,721.2784667001106,721.2784667001106,721.2784667001106,721.2784667001106,721.2784667001106,721.2784667001106,721.2784667001106,721.2784667001106,721.2784667001106,721.2784667001106,721.2784667001106,721.2784667001106,721.2784667001106,723.7873474999797,723.7873474999797,723.7873474999797,723.7873474999797,723.7873474999797,65,46,73,50,73,81,4.0,6.282218199921772,,,[],[],[],[],[],[],[],0.6,2,,[],[],[],[],[],[],[],None,None,730.0980974000413,732.0988435000181,,,,,,,,,,,,,,,,,,,,,,,,,,,,,,1,f,1,2023-04-04_16h26.43.895,RL,2022.2.4,60.123794898420904,
0,0.3,0.225,0,53,53,53,,,,,,,,,,None,732.0988435000181,732.0988435000181,732.0988435000181,732.0988435000181,732.0988435000181,732.0988435000181,i,0.38847880018875003,732.5156595001463,732.5156595001463,732.5156595001463,732.5156595001463,732.5156595001463,732.5156595001463,732.8139516999945,732.8139516999945,733.661268700147,733.661268700147,733.661268700147,733.661268700147,733.661268700147,733.661268700147,733.661268700147,733.661268700147,733.661268700147,733.661268700147,733.661268700147,733.661268700147,733.661268700147,733.661268700147,733.661268700147,733.661268700147,733.661268700147,736.1704810000956,736.1704810000956,736.1704810000956,736.1704810000956,736.1704810000956,69,49,73,56,73,75,4.0,0.9802230000495911,,,[],[],[],[],[],[],[],-0.2,3,,[],[],[],[],[],[],[],None,None,737.1759615000337,738.8803177999798,,,,,,,,,,,,,,,,,,,,,,,,,,,,,,1,f,1,2023-04-04_16h26.43.895,RL,2022.2.4,60.123794898420904,
1,-0.3,-0.225,0,54,54,54,,,,,,,,,,None,738.8803177999798,738.8803177999798,738.8803177999798,738.8803177999798,738.8803177999798,738.8803177999798,i,0.5530819001141936,739.4629069000948,739.4629069000948,739.4629069000948,739.4629069000948,739.4629069000948,739.4629069000948,739.7615651001688,739.7615651001688,741.4237524999771,741.4237524999771,741.4237524999771,741.4237524999771,741.4237524999771,741.4237524999771,741.4237524999771,741.4237524999771,741.4237524999771,741.4237524999771,741.4237524999771,741.4237524999771,741.4237524999771,741.4237524999771,741.4237524999771,741.4237524999771,741.4237524999771,,,,,,61,41,69,41,69,53,None,None,70,70,[0.03148148148148148],[-0.28055555555555556],[1],[0],[0],[6.489195500034839],['tijiao'],-0.2,0,,[],[],[],[],[],[],[],4.148148148148149,1.9106707000173628,752.3757369001396,754.0056388000958,,,,,,,,,,,750.446135400096,750.446135400096,750.446135400096,750.446135400096,743.9345899999607,743.9345899999607,743.9345899999607,743.9345899999607,743.9345899999607,743.9345899999607,743.9345899999607,743.9345899999607,0.006910799769684672,743.9345899999607,,,,,,1,f,1,2023-04-04_16h26.43.895,RL,2022.2.4,60.123794898420904,
0,0.3,0.225,0,55,55,55,,,,,,,,,,None,754.0056388000958,754.0056388000958,754.0056388000958,754.0056388000958,754.0056388000958,754.0056388000958,i,0.24520809995010495,754.2743993999902,754.2743993999902,754.2743993999902,754.2743993999902,754.2743993999902,754.2743993999902,754.5710041001439,754.5710041001439,756.4658856000751,756.4658856000751,756.4658856000751,756.4658856000751,756.4658856000751,756.4658856000751,756.4658856000751,756.4658856000751,756.4658856000751,756.4658856000751,756.4658856000751,756.4658856000751,756.4658856000751,756.4658856000751,756.4658856000751,756.4658856000751,756.4658856000751,758.9751854999922,758.9751854999922,758.9751854999922,758.9751854999922,758.9751854999922,67,54,64,64,64,61,4.0,2.8750897999852896,,,[],[],[],[],[],[],[],0.6,2,,[],[],[],[],[],[],[],None,None,761.874310299987,763.6793842001352,,,,,,,,,,,,,,,,,,,,,,,,,,,,,,1,f,1,2023-04-04_16h26.43.895,RL,2022.2.4,60.123794898420904,
1,-0.3,-0.225,0,56,56,56,,,,,,,,,,None,763.6793842001352,763.6793842001352,763.6793842001352,763.6793842001352,763.6793842001352,763.6793842001352,i,0.593027199851349,764.2968260000926,764.2968260000926,764.2968260000926,764.2968260000926,764.2968260000926,764.2968260000926,764.593730899971,764.593730899971,765.5907622000668,765.5907622000668,765.607699100161,765.607699100161,765.607699100161,765.607699100161,765.607699100161,765.607699100161,765.607699100161,765.607699100161,765.607699100161,765.607699100161,765.607699100161,765.607699100161,765.607699100161,765.607699100161,765.607699100161,,,,,,64,44,63,46,63,54,None,None,,,[],[],[],[],[],[],[],0.6,1,50,[0.049074074074074076],[-0.2824074074074074],[1],[0],[0],[4.433888599975035],['tijiao_random_2'],3.8148148148148144,2.5875723001081496,775.180196700152,777.1757143000141,768.1279855000321,768.1279855000321,768.1279855000321,768.1279855000321,768.1279855000321,768.1279855000321,768.1279855000321,768.1279855000321,0.00658600009046495,768.1279855000321,772.5745534000453,772.5745534000453,772.5745534000453,772.5745534000453,,,,,,,,,,,,,,,,1,f,1,2023-04-04_16h26.43.895,RL,2022.2.4,60.123794898420904,
0,0.3,0.225,0,57,57,57,,,,,,,,,,None,777.1757143000141,777.1757143000141,777.1757143000141,777.1757143000141,777.1757143000141,777.1757143000141,i,0.7254713999573141,777.9247906000819,777.9247906000819,777.9247906000819,777.9247906000819,777.9247906000819,777.9247906000819,778.223346099956,778.223346099956,780.2178801000118,780.2178801000118,780.2178801000118,780.2178801000118,780.2178801000118,780.2178801000118,780.2178801000118,780.2178801000118,780.2178801000118,780.2178801000118,780.2178801000118,780.2178801000118,780.2178801000118,780.2178801000118,780.2178801000118,780.2178801000118,780.2178801000118,,,,,,64,43,65,52,65,51,None,None,63,63,[-0.06574074074074074],[-0.26851851851851855],[1],[0],[0],[6.356174899963662],['tijiao'],-0.2,0,,[],[],[],[],[],[],[],4.111111111111111,1.9478182001039386,791.0703466001432,792.6005786000751,,,,,,,,,,,789.1045655000489,789.1045655000489,789.1045655000489,789.1045655000489,782.7279539001174,782.7279539001174,782.7279539001174,782.7279539001174,782.7279539001174,782.7279539001174,782.7279539001174,782.7279539001174,0.006716300034895539,782.7279539001174,,,,,,1,f,1,2023-04-04_16h26.43.895,RL,2022.2.4,60.123794898420904,
1,-0.3,-0.225,0,58,58,58,,,,,,,,,,None,792.6005786000751,792.6005786000751,792.6005786000751,792.6005786000751,792.6005786000751,792.6005786000751,i,0.31381019996479154,792.9357145000249,792.9357145000249,792.9357145000249,792.9357145000249,792.9357145000249,792.9357145000249,793.2323622000404,793.2323622000404,795.0276587000117,795.0276587000117,795.0276587000117,795.0276587000117,795.0276587000117,795.0276587000117,795.0276587000117,795.0276587000117,795.0276587000117,795.0276587000117,795.0276587000117,795.0276587000117,795.0276587000117,795.0276587000117,795.0276587000117,795.0276587000117,795.0276587000117,,,,,,66,46,80,45,80,93,None,None,70,70,[-0.023148148148148147],[-0.3138888888888889],[1],[0],[0],[5.589981999946758],['tijiao'],-0.6,0,,[],[],[],[],[],[],[],5.12037037037037,1.5967029000166804,804.766134600155,806.7117800000124,,,,,,,,,,,803.151016900083,803.151016900083,803.151016900083,803.151016900083,797.5394475001376,797.5394475001376,797.5394475001376,797.5394475001376,797.5394475001376,797.5394475001376,797.5394475001376,797.5394475001376,0.008027900010347366,797.5394475001376,,,,,,1,f,1,2023-04-04_16h26.43.895,RL,2022.2.4,60.123794898420904,
0,0.3,0.225,0,59,59,59,,,,,,,,,,None,806.7117800000124,806.7117800000124,806.7117800000124,806.7117800000124,806.7117800000124,806.7117800000124,i,0.3769935998134315,807.1118632000871,807.1118632000871,807.1118632000871,807.1118632000871,807.1118632000871,807.1118632000871,807.4101810001303,807.4101810001303,808.9393395001534,808.9393395001534,808.9393395001534,808.9393395001534,808.9393395001534,808.9393395001534,808.9393395001534,808.9393395001534,808.9393395001534,808.9393395001534,808.9393395001534,808.9393395001534,808.9393395001534,808.9393395001534,808.9393395001534,808.9393395001534,808.9393395001534,811.4482764001004,811.4482764001004,811.4482764001004,811.4482764001004,811.4482764001004,57,44,66,57,66,92,2.0,2.14361589984037,,,[],[],[],[],[],[],[],-0.6,2,,[],[],[],[],[],[],[],None,None,813.6193151001353,815.5877774001565,,,,,,,,,,,,,,,,,,,,,,,,,,,,,,1,f,1,2023-04-04_16h26.43.895,RL,2022.2.4,60.123794898420904,
1,-0.3,-0.225,0,60,60,60,,,,,,,,,,None,815.5877774001565,815.5877774001565,815.5877774001565,815.5877774001565,815.5877774001565,815.5877774001565,r,0.6466687000356615,816.25326519995,816.25326519995,816.25326519995,816.25326519995,816.25326519995,816.25326519995,816.5519014000893,816.5519014000893,817.9315812999848,817.9315812999848,817.9315812999848,817.9315812999848,817.9315812999848,817.9315812999848,817.9315812999848,817.9315812999848,817.9315812999848,817.9315812999848,817.9315812999848,817.9315812999848,817.9315812999848,817.9315812999848,817.9315812999848,817.9315812999848,817.9315812999848,820.4405654999427,820.4405654999427,820.4405654999427,820.4405654999427,820.4405654999427,69,46,69,53,69,83,3.0,2.2761775001417845,,,[],[],[],[],[],[],[],0.2,2,,[],[],[],[],[],[],[],None,None,822.7442036999855,824.2973684000317,,,,,,,,,,,,,,,,,,,,,,,,,,,,,,1,f,1,2023-04-04_16h26.43.895,RL,2022.2.4,60.123794898420904,
0,0.3,0.225,0,61,61,61,,,,,,,,,,None,824.2973684000317,824.2973684000317,824.2973684000317,824.2973684000317,824.2973684000317,824.2973684000317,f,0.4794488998595625,824.7969722000416,824.7969722000416,824.7969722000416,824.7969722000416,824.7969722000416,824.7969722000416,825.0952945000026,825.0952945000026,826.2088220999576,826.2088220999576,826.2088220999576,826.2088220999576,826.2088220999576,826.2088220999576,826.2088220999576,826.2088220999576,826.2088220999576,826.2088220999576,826.2088220999576,826.2088220999576,826.2088220999576,826.2088220999576,826.2088220999576,826.2088220999576,826.2088220999576,,,,,,64,49,61,49,49,75,None,None,65,65,"[-0.12129629629629629, -0.06481481481481481]","[-0.17314814814814813, -0.337037037037037]","[1, 1]","[0, 0]","[0, 0]","[3.8630325000267476, 4.993342899950221]",['tijiao'],-0.6,0,,[],[],[],[],[],[],[],3.9907407407407405,1.811769099906087,835.5654855000321,837.1455085000489,,,,,,,,,,,833.7346230000257,833.7346230000257,833.7346230000257,833.7346230000257,828.7190591001417,828.7190591001417,828.7190591001417,828.7190591001417,828.7190591001417,828.7190591001417,828.7190591001417,828.7190591001417,0.00650890008546412,828.7190591001417,,,,,,1,f,1,2023-04-04_16h26.43.895,RL,2022.2.4,60.123794898420904,
1,-0.3,-0.225,0,62,62,62,,,,,,,,,,None,837.1455085000489,837.1455085000489,837.1455085000489,837.1455085000489,837.1455085000489,837.1455085000489,i,0.35052670002914965,837.5283530999441,837.5283530999441,837.5283530999441,837.5283530999441,837.5283530999441,837.5283530999441,837.8272915000562,837.8272915000562,839.3394275000319,839.3394275000319,839.3394275000319,839.3394275000319,839.3394275000319,839.3394275000319,839.3394275000319,839.3394275000319,839.3394275000319,839.3394275000319,839.3394275000319,839.3394275000319,839.3394275000319,839.3394275000319,839.3394275000319,839.3394275000319,839.3394275000319,,,,,,70,42,50,51,50,48,None,None,,,[],[],[],[],[],[],[],0.2,1,50,[-0.14351851851851852],[-0.287962962962963],[1],[0],[0],[3.9355881998781115],['tijiao_random_2'],9.564814814814813,2.073672499973327,847.8985783001408,849.7278694000561,841.8600645000115,841.8600645000115,841.8600645000115,841.8600645000115,841.8600645000115,841.8600645000115,841.8600645000115,841.8600645000115,0.006265499861910939,841.8600645000115,845.8083552001044,845.8083552001044,845.8083552001044,845.8083552001044,,,,,,,,,,,,,,,,1,f,1,2023-04-04_16h26.43.895,RL,2022.2.4,60.123794898420904,
0,0.3,0.225,0,63,63,63,,,,,,,,,,None,849.7278694000561,849.7278694000561,849.7278694000561,849.7278694000561,849.7278694000561,849.7278694000561,j,0.2830872000195086,850.0448710999917,850.0448710999917,850.0448710999917,850.0448710999917,850.0448710999917,850.0448710999917,850.3428051001392,850.3428051001392,851.7724937000312,851.7724937000312,851.7724937000312,851.7724937000312,851.7724937000312,851.7724937000312,851.7724937000312,851.7724937000312,851.7724937000312,851.7724937000312,851.7724937000312,851.7724937000312,851.7724937000312,851.7724937000312,851.7724937000312,851.7724937000312,851.7724937000312,854.2814964000136,854.2814964000136,854.2814964000136,854.2814964000136,854.2814964000136,66,36,57,41,41,84,4.0,2.5421830997802317,,,[],[],[],[],[],[],[],0.2,2,,[],[],[],[],[],[],[],None,None,856.8504832000472,858.7366404000204,,,,,,,,,,,,,,,,,,,,,,,,,,,,,,1,f,1,2023-04-04_16h26.43.895,RL,2022.2.4,60.123794898420904,
1,-0.3,-0.225,0,64,64,64,,,,,,,,,,None,858.7366404000204,858.7366404000204,858.7366404000204,858.7366404000204,858.7366404000204,858.7366404000204,r,0.32660860009491444,859.0865273999516,859.0865273999516,859.0865273999516,859.0865273999516,859.0865273999516,859.0865273999516,859.3851114001591,859.3851114001591,860.3491456001066,860.3491456001066,860.3491456001066,860.3491456001066,860.3491456001066,860.3491456001066,860.3491456001066,860.3491456001066,860.3491456001066,860.3491456001066,860.3491456001066,860.3491456001066,860.3491456001066,860.3491456001066,860.3491456001066,860.3491456001066,860.3491456001066,,,,,,66,37,56,42,66,82,None,None,,,[],[],[],[],[],[],[],-0.6,1,66,[-0.028703703703703703],[-0.29444444444444445],[1],[0],[0],[3.3051377998199314],['tijiao_random_2'],9.425925925925926,2.4214641998987645,868.6251071000006,870.5377806001343,862.8680796001572,862.8680796001572,862.8680796001572,862.8680796001572,862.8680796001572,862.8680796001572,862.8680796001572,862.8680796001572,0.007234100019559264,862.8680796001572,866.185226800153,866.185226800153,866.185226800153,866.185226800153,,,,,,,,,,,,,,,,1,f,1,2023-04-04_16h26.43.895,RL,2022.2.4,60.123794898420904,
0,0.3,0.225,0,65,65,65,,,,,,,,,,None,870.5377806001343,870.5377806001343,870.5377806001343,870.5377806001343,870.5377806001343,870.5377806001343,f,0.31565900007262826,870.8731376000214,870.8731376000214,870.8731376000214,870.8731376000214,870.8731376000214,870.8731376000214,871.1696248000953,871.1696248000953,873.1304280001204,873.1304280001204,873.14758180012,873.14758180012,873.14758180012,873.14758180012,873.14758180012,873.14758180012,873.14758180012,873.14758180012,873.14758180012,873.14758180012,873.14758180012,873.14758180012,873.14758180012,873.14758180012,873.14758180012,,,,,,67,35,44,31,35,85,None,None,,,[],[],[],[],[],[],[],0.2,1,70,"[0.06944444444444445, 0.026851851851851852]","[-0.24351851851851852, -0.28703703703703703]","[1, 1]","[0, 0]","[0, 0]","[5.483675500145182, 6.331496800063178]",['tijiao_random_2'],4.018518518518518,1.405324500054121,883.4348534001037,885.430387499975,875.6650900000241,875.6650900000241,875.6650900000241,875.6650900000241,875.6650900000241,875.6650900000241,875.6650900000241,875.6650900000241,0.006235500099137425,875.6650900000241,882.0110039000865,882.0110039000865,882.0110039000865,882.0110039000865,,,,,,,,,,,,,,,,1,f,1,2023-04-04_16h26.43.895,RL,2022.2.4,60.123794898420904,
1,-0.3,-0.225,0,66,66,66,,,,,,,,,,None,885.430387499975,885.430387499975,885.430387499975,885.430387499975,885.430387499975,885.430387499975,f,0.5995899001136422,886.0629086000845,886.0629086000845,886.0629086000845,886.0629086000845,886.0629086000845,886.0629086000845,886.361460500164,886.361460500164,888.2226778999902,888.2226778999902,888.2226778999902,888.2226778999902,888.2226778999902,888.2226778999902,888.2226778999902,888.2226778999902,888.2226778999902,888.2226778999902,888.2226778999902,888.2226778999902,888.2226778999902,888.2226778999902,888.2226778999902,888.2226778999902,888.2226778999902,,,,,,61,40,52,30,40,93,None,None,70,70,"[-0.11666666666666667, 0.03888888888888889]","[-0.24537037037037038, -0.27870370370370373]","[1, 1]","[0, 0]","[0, 0]","[4.478684399975464, 5.310385999968275]",['tijiao'],-0.6,0,,[],[],[],[],[],[],[],4.740740740740741,1.3793424998875707,897.4631050000899,899.1261742000934,,,,,,,,,,,896.0654933000915,896.0654933000915,896.0654933000915,896.0654933000915,890.733116999967,890.733116999967,890.733116999967,890.733116999967,890.733116999967,890.733116999967,890.733116999967,890.733116999967,0.005929700098931789,890.733116999967,,,,,,1,f,1,2023-04-04_16h26.43.895,RL,2022.2.4,60.123794898420904,
0,0.3,0.225,0,67,67,67,,,,,,,,,,None,899.1261742000934,899.1261742000934,899.1261742000934,899.1261742000934,899.1261742000934,899.1261742000934,i,0.4178513998631388,899.5783160000574,899.5783160000574,899.5783160000574,899.5783160000574,899.5783160000574,899.5783160000574,899.8745353000704,899.8745353000704,900.7883497001603,900.7883497001603,900.7883497001603,900.7883497001603,900.7883497001603,900.7883497001603,900.7883497001603,900.7883497001603,900.7883497001603,900.7883497001603,900.7883497001603,900.7883497001603,900.7883497001603,900.7883497001603,900.7883497001603,900.7883497001603,900.7883497001603,903.2978866000194,903.2978866000194,903.2978866000194,903.2978866000194,903.2978866000194,68,33,54,18,54,80,2.0,2.8912623000796884,,,[],[],[],[],[],[],[],0.2,3,,[],[],[],[],[],[],[],None,None,906.2171495000366,908.0849760000128,,,,,,,,,,,,,,,,,,,,,,,,,,,,,,1,f,1,2023-04-04_16h26.43.895,RL,2022.2.4,60.123794898420904,
1,-0.3,-0.225,0,68,68,68,,,,,,,,,,None,908.0849760000128,908.0849760000128,908.0849760000128,908.0849760000128,908.0849760000128,908.0849760000128,j,0.2764423000626266,908.3851646999829,908.3851646999829,908.3851646999829,908.3851646999829,908.3851646999829,908.3851646999829,908.6839181999676,908.6839181999676,909.514481900027,909.514481900027,909.514481900027,909.514481900027,909.514481900027,909.514481900027,909.514481900027,909.514481900027,909.514481900027,909.514481900027,909.514481900027,909.514481900027,909.514481900027,909.514481900027,909.514481900027,909.514481900027,909.514481900027,,,,,,69,42,52,28,28,80,None,None,70,70,"[-0.046296296296296294, -0.046296296296296294, -0.041666666666666664]","[-0.27685185185185185, -0.27685185185185185, -0.2814814814814815]","[1, 1, 1]","[0, 0, 0]","[0, 0, 0]","[7.336834199959412, 8.067999999970198, 10.06265090010129]",['tijiao'],-0.2,0,,[],[],[],[],[],[],[],3.9907407407407405,1.6638294998556376,923.7913298001513,925.5705153001472,,,,,,,,,,,922.1087214001454,922.1087214001454,922.1087214001454,922.1087214001454,912.0263664000668,912.0263664000668,912.0263664000668,912.0263664000668,912.0263664000668,912.0263664000668,912.0263664000668,912.0263664000668,0.006947600049898028,912.0263664000668,,,,,,1,f,1,2023-04-04_16h26.43.895,RL,2022.2.4,60.123794898420904,
0,0.3,0.225,0,69,69,69,,,,,,,,,,None,925.5705153001472,925.5705153001472,925.5705153001472,925.5705153001472,925.5705153001472,925.5705153001472,r,0.31113569997251034,925.9036247001495,925.9036247001495,925.9036247001495,925.9036247001495,925.9036247001495,925.9036247001495,926.2021002999973,926.2021002999973,927.8150723001454,927.8150723001454,927.8150723001454,927.8150723001454,927.8150723001454,927.8150723001454,927.8150723001454,927.8150723001454,927.8150723001454,927.8150723001454,927.8150723001454,927.8150723001454,927.8150723001454,927.8150723001454,927.8150723001454,927.8150723001454,927.8150723001454,930.3241793001071,930.3241793001071,930.3241793001071,930.3241793001071,930.3241793001071,65,47,56,34,65,79,3.0,2.0273165001999587,,,[],[],[],[],[],[],[],-0.2,3,,[],[],[],[],[],[],[],None,None,932.3771876001265,933.9313864000142,,,,,,,,,,,,,,,,,,,,,,,,,,,,,,1,f,1,2023-04-04_16h26.43.895,RL,2022.2.4,60.123794898420904,
1,-0.3,-0.225,0,70,70,70,,,,,,,,,,None,933.9313864000142,933.9313864000142,933.9313864000142,933.9313864000142,933.9313864000142,933.9313864000142,r,0.24913629982620478,934.199006699957,934.199006699957,934.199006699957,934.199006699957,934.199006699957,934.199006699957,934.4966563000344,934.4966563000344,936.3416685000993,936.3416685000993,936.3416685000993,936.3416685000993,936.3416685000993,936.3416685000993,936.3416685000993,936.3416685000993,936.3416685000993,936.3416685000993,936.3416685000993,936.3416685000993,936.3416685000993,936.3416685000993,936.3416685000993,936.3416685000993,936.3416685000993,,,,,,64,39,49,32,64,79,None,None,,,[],[],[],[],[],[],[],-0.2,1,60,[-0.075],[-0.29907407407407405],[1],[0],[0],[6.248177699977532],['tijiao_random_2'],3.759259259259259,1.506357700098306,946.6455657000188,948.1593598001637,938.8598176999949,938.8598176999949,938.8598176999949,938.8598176999949,938.8598176999949,938.8598176999949,938.8598176999949,938.8598176999949,0.00654580001719296,938.8598176999949,945.1206388000865,945.1206388000865,945.1206388000865,945.1206388000865,,,,,,,,,,,,,,,,1,f,1,2023-04-04_16h26.43.895,RL,2022.2.4,60.123794898420904,
0,0.3,0.225,0,71,71,71,,,,,,,,,,None,948.1593598001637,948.1593598001637,948.1593598001637,948.1593598001637,948.1593598001637,948.1593598001637,f,0.2330823999363929,948.4254442001693,948.4254442001693,948.4254442001693,948.4254442001693,948.4254442001693,948.4254442001693,948.7242308999412,948.7242308999412,950.36957300012,950.36957300012,950.36957300012,950.36957300012,950.36957300012,950.36957300012,950.36957300012,950.36957300012,950.36957300012,950.36957300012,950.36957300012,950.36957300012,950.36957300012,950.36957300012,950.36957300012,950.36957300012,950.36957300012,952.8788077000063,952.8788077000063,952.8788077000063,952.8788077000063,952.8788077000063,59,42,47,20,42,46,3.0,1.9275267999619246,,,[],[],[],[],[],[],[],0.6,3,,[],[],[],[],[],[],[],None,None,954.8311885001604,956.8355320000555,,,,,,,,,,,,,,,,,,,,,,,,,,,,,,1,f,1,2023-04-04_16h26.43.895,RL,2022.2.4,60.123794898420904,
1,-0.3,-0.225,0,72,72,72,,,,,,,,,,None,956.8355320000555,956.8355320000555,956.8355320000555,956.8355320000555,956.8355320000555,956.8355320000555,i,0.23957390012219548,957.1017426000908,957.1017426000908,957.1017426000908,957.1017426000908,957.1017426000908,957.1017426000908,957.4005964000244,957.4005964000244,959.3955119999591,959.3955119999591,959.3955119999591,959.3955119999591,959.3955119999591,959.3955119999591,959.3955119999591,959.3955119999591,959.3955119999591,959.3955119999591,959.3955119999591,959.3955119999591,959.3955119999591,959.3955119999591,959.3955119999591,959.3955119999591,959.3955119999591,961.9041959000751,961.9041959000751,961.9041959000751,961.9041959000751,961.9041959000751,55,40,49,23,49,69,3.0,1.3627476000692695,,,[],[],[],[],[],[],[],-0.6,3,,[],[],[],[],[],[],[],None,None,963.293996399967,965.2626658000518,,,,,,,,,,,,,,,,,,,,,,,,,,,,,,1,f,1,2023-04-04_16h26.43.895,RL,2022.2.4,60.123794898420904,
0,0.3,0.225,0,73,73,73,,,,,,,,,,None,965.2626658000518,965.2626658000518,965.2626658000518,965.2626658000518,965.2626658000518,965.2626658000518,i,0.26026370003819466,965.5474358000793,965.5474358000793,965.5474358000793,965.5474358000793,965.5474358000793,965.5474358000793,965.8446802999824,965.8446802999824,966.7088268999942,966.7088268999942,966.7088268999942,966.7088268999942,966.7088268999942,966.7088268999942,966.7088268999942,966.7088268999942,966.7088268999942,966.7088268999942,966.7088268999942,966.7088268999942,966.7088268999942,966.7088268999942,966.7088268999942,966.7088268999942,966.7088268999942,969.2178355001379,969.2178355001379,969.2178355001379,969.2178355001379,969.2178355001379,55,30,50,26,50,53,3.0,0.7971001998521388,,,[],[],[],[],[],[],[],0.6,3,,[],[],[],[],[],[],[],None,None,970.0423497001175,971.8779237000272,,,,,,,,,,,,,,,,,,,,,,,,,,,,,,1,f,1,2023-04-04_16h26.43.895,RL,2022.2.4,60.123794898420904,
1,-0.3,-0.225,0,74,74,74,,,,,,,,,,None,971.8779237000272,971.8779237000272,971.8779237000272,971.8779237000272,971.8779237000272,971.8779237000272,i,0.38955639977939427,972.2947258001659,972.2947258001659,972.2947258001659,972.2947258001659,972.2947258001659,972.2947258001659,972.5929201999679,972.5929201999679,973.5070982000325,973.5070982000325,973.5070982000325,973.5070982000325,973.5070982000325,973.5070982000325,973.5070982000325,973.5070982000325,973.5070982000325,973.5070982000325,973.5070982000325,973.5070982000325,973.5070982000325,973.5070982000325,973.5070982000325,973.5070982000325,973.5070982000325,976.0158520000987,976.0158520000987,976.0158520000987,976.0158520000987,976.0158520000987,46,45,50,10,50,75,2.0,1.2963201999664307,,,[],[],[],[],[],[],[],0.2,2,,[],[],[],[],[],[],[],None,None,977.3392562000081,979.0079177001026,,,,,,,,,,,,,,,,,,,,,,,,,,,,,,1,f,1,2023-04-04_16h26.43.895,RL,2022.2.4,60.123794898420904,
0,0.3,0.225,0,75,75,75,,,,,,,,,,q,1080.0505913000088,1080.0505913000088,1080.0505913000088,1080.0505913000088,1080.0505913000088,1080.0505913000088,r,0.8269057001452893,1080.9004204000812,1080.9004204000812,1080.9004204000812,1080.9004204000812,1080.9004204000812,1080.9004204000812,1081.1965650001075,1081.1965650001075,1082.110482300166,1082.110482300166,1082.110482300166,1082.110482300166,1082.110482300166,1082.110482300166,1082.110482300166,1082.110482300166,1082.110482300166,1082.110482300166,1082.110482300166,1082.110482300166,1082.110482300166,1082.110482300166,1082.110482300166,1082.110482300166,1082.110482300166,1084.6197303000372,1084.6197303000372,1084.6197303000372,1084.6197303000372,1084.6197303000372,60,43,48,17,60,48,3.0,2.4930030999239534,,,[],[],[],[],[],[],[],-0.2,3,,[],[],[],[],[],[],[],None,None,1087.1395016000606,1088.6920348999556,,,,,,,,,,,,,,,,,,,,,,,,,979.0079177001026,979.0079177001026,101.0101168002002,,,1,f,1,2023-04-04_16h26.43.895,RL,2022.2.4,60.123794898420904,
1,-0.3,-0.225,0,76,76,76,,,,,,,,,,None,1088.6920348999556,1088.6920348999556,1088.6920348999556,1088.6920348999556,1088.6920348999556,1088.6920348999556,r,0.31830589985474944,1089.0420508999377,1089.0420508999377,1089.0420508999377,1089.0420508999377,1089.0420508999377,1089.0420508999377,1089.3409895000514,1089.3409895000514,1090.9198239999823,1090.9198239999823,1090.9366139001213,1090.9366139001213,1090.9366139001213,1090.9366139001213,1090.9366139001213,1090.9366139001213,1090.9366139001213,1090.9366139001213,1090.9366139001213,1090.9366139001213,1090.9366139001213,1090.9366139001213,1090.9366139001213,1090.9366139001213,1090.9366139001213,1093.4456122000702,1093.4456122000702,1093.4456122000702,1093.4456122000702,1093.4456122000702,59,40,46,26,59,79,3.0,1.7606726998928934,,,[],[],[],[],[],[],[],-0.2,2,,[],[],[],[],[],[],[],None,None,1095.2341947001405,1097.1194607999641,,,,,,,,,,,,,,,,,,,,,,,,,,,,,,1,f,1,2023-04-04_16h26.43.895,RL,2022.2.4,60.123794898420904,
0,0.3,0.225,0,77,77,77,,,,,,,,,,None,1097.1194607999641,1097.1194607999641,1097.1194607999641,1097.1194607999641,1097.1194607999641,1097.1194607999641,i,0.2990043999161571,1097.4361127000302,1097.4361127000302,1097.4361127000302,1097.4361127000302,1097.4361127000302,1097.4361127000302,1097.734623900149,1097.734623900149,1098.8979380000383,1098.8979380000383,1098.8979380000383,1098.8979380000383,1098.8979380000383,1098.8979380000383,1098.8979380000383,1098.8979380000383,1098.8979380000383,1098.8979380000383,1098.8979380000383,1098.8979380000383,1098.8979380000383,1098.8979380000383,1098.8979380000383,1098.8979380000383,1098.8979380000383,1101.4072058999445,1101.4072058999445,1101.4072058999445,1101.4072058999445,1101.4072058999445,47,43,51,24,51,86,3.0,1.1292313998565078,,,[],[],[],[],[],[],[],0.6,3,,[],[],[],[],[],[],[],None,None,1102.5617239000276,1104.1502003001515,,,,,,,,,,,,,,,,,,,,,,,,,,,,,,1,f,1,2023-04-04_16h26.43.895,RL,2022.2.4,60.123794898420904,
1,-0.3,-0.225,0,78,78,78,,,,,,,,,,None,1104.1502003001515,1104.1502003001515,1104.1502003001515,1104.1502003001515,1104.1502003001515,1104.1502003001515,f,0.3367650001309812,1104.5179487999994,1104.5179487999994,1104.5179487999994,1104.5179487999994,1104.5179487999994,1104.5179487999994,1104.8154540001415,1104.8154540001415,1105.6464579999447,1105.6464579999447,1105.6464579999447,1105.6464579999447,1105.6464579999447,1105.6464579999447,1105.6464579999447,1105.6464579999447,1105.6464579999447,1105.6464579999447,1105.6464579999447,1105.6464579999447,1105.6464579999447,1105.6464579999447,1105.6464579999447,1105.6464579999447,1105.6464579999447,1108.1554483999498,1108.1554483999498,1108.1554483999498,1108.1554483999498,1108.1554483999498,45,41,44,24,41,89,3.0,1.0129819000139832,,,[],[],[],[],[],[],[],0.6,3,,[],[],[],[],[],[],[],None,None,1109.1953188001644,1111.1810232000425,,,,,,,,,,,,,,,,,,,,,,,,,,,,,,1,f,1,2023-04-04_16h26.43.895,RL,2022.2.4,60.123794898420904,
0,0.3,0.225,0,79,79,79,,,,,,,,,,None,1111.1810232000425,1111.1810232000425,1111.1810232000425,1111.1810232000425,1111.1810232000425,1111.1810232000425,i,0.3496985000092536,1111.565494300099,1111.565494300099,1111.565494300099,1111.565494300099,1111.565494300099,1111.565494300099,1111.8624557000585,1111.8624557000585,1113.5914346000645,1113.5914346000645,1113.5914346000645,1113.5914346000645,1113.5914346000645,1113.5914346000645,1113.5914346000645,1113.5914346000645,1113.5914346000645,1113.5914346000645,1113.5914346000645,1113.5914346000645,1113.5914346000645,1113.5914346000645,1113.5914346000645,1113.5914346000645,1113.5914346000645,1116.1005421001464,1116.1005421001464,1116.1005421001464,1116.1005421001464,1116.1005421001464,40,37,44,31,44,82,3.0,0.8791245999746025,,,[],[],[],[],[],[],[],0.2,2,,[],[],[],[],[],[],[],None,None,1117.0079501001164,1118.6108340001665,,,,,,,,,,,,,,,,,,,,,,,,,,,,,,1,f,1,2023-04-04_16h26.43.895,RL,2022.2.4,60.123794898420904,
1,-0.3,-0.225,0,80,80,80,,,,,,,,,,None,1118.6108340001665,1118.6108340001665,1118.6108340001665,1118.6108340001665,1118.6108340001665,1118.6108340001665,j,0.5477430000901222,1119.1792750000022,1119.1792750000022,1119.1792750000022,1119.1792750000022,1119.1792750000022,1119.1792750000022,1119.4750693000387,1119.4750693000387,1120.738461600151,1120.738461600151,1120.738461600151,1120.738461600151,1120.738461600151,1120.738461600151,1120.738461600151,1120.738461600151,1120.738461600151,1120.738461600151,1120.738461600151,1120.738461600151,1120.738461600151,1120.738461600151,1120.738461600151,1120.738461600151,1120.738461600151,1123.247712300159,1123.247712300159,1123.247712300159,1123.247712300159,1123.247712300159,47,35,56,22,22,86,3.0,0.8634558001067489,,,[],[],[],[],[],[],[],0.6,2,,[],[],[],[],[],[],[],None,None,1124.138304800028,1125.6576970999595,,,,,,,,,,,,,,,,,,,,,,,,,,,,,,1,f,1,2023-04-04_16h26.43.895,RL,2022.2.4,60.123794898420904,
0,0.3,0.225,0,81,81,81,,,,,,,,,,None,1125.6576970999595,1125.6576970999595,1125.6576970999595,1125.6576970999595,1125.6576970999595,1125.6576970999595,r,0.25014319992624223,1125.9423993001692,1125.9423993001692,1125.9423993001692,1125.9423993001692,1125.9423993001692,1125.9423993001692,1126.240083300043,1126.240083300043,1128.1849311001133,1128.1849311001133,1128.1849311001133,1128.1849311001133,1128.1849311001133,1128.1849311001133,1128.1849311001133,1128.1849311001133,1128.1849311001133,1128.1849311001133,1128.1849311001133,1128.1849311001133,1128.1849311001133,1128.1849311001133,1128.1849311001133,1128.1849311001133,1128.1849311001133,,,,,,45,37,53,26,45,70,None,None,60,60,[-0.04259259259259259],[-0.30185185185185187],[1],[0],[0],[3.7131365998648107],['tijiao'],-0.6,0,,[],[],[],[],[],[],[],2.9814814814814814,2.114562900038436,1136.560899300035,1138.4233969999477,,,,,,,,,,,1134.4283553999849,1134.4283553999849,1134.4283553999849,1134.4283553999849,1130.6949269000906,1130.6949269000906,1130.6949269000906,1130.6949269000906,1130.6949269000906,1130.6949269000906,1130.6949269000906,1130.6949269000906,0.006297199986875057,1130.6949269000906,,,,,,1,f,1,2023-04-04_16h26.43.895,RL,2022.2.4,60.123794898420904,
1,-0.3,-0.225,0,82,82,82,,,,,,,,,,None,1138.4233969999477,1138.4233969999477,1138.4233969999477,1138.4233969999477,1138.4233969999477,1138.4233969999477,f,0.3327456000261009,1138.789342700038,1138.789342700038,1138.789342700038,1138.789342700038,1138.789342700038,1138.789342700038,1139.0882912001107,1139.0882912001107,1140.567583499942,1140.567583499942,1140.567583499942,1140.567583499942,1140.567583499942,1140.567583499942,1140.567583499942,1140.567583499942,1140.567583499942,1140.567583499942,1140.567583499942,1140.567583499942,1140.567583499942,1140.567583499942,1140.567583499942,1140.567583499942,1140.567583499942,1143.076686500106,1143.076686500106,1143.076686500106,1143.076686500106,1143.076686500106,48,33,59,27,33,72,2.0,1.3955632001161575,,,[],[],[],[],[],[],[],-0.6,2,,[],[],[],[],[],[],[],None,None,1144.497761900071,1146.3019040999934,,,,,,,,,,,,,,,,,,,,,,,,,,,,,,1,f,1,2023-04-04_16h26.43.895,RL,2022.2.4,60.123794898420904,
0,0.3,0.225,0,83,83,83,,,,,,,,,,None,1146.3019040999934,1146.3019040999934,1146.3019040999934,1146.3019040999934,1146.3019040999934,1146.3019040999934,j,0.3473689998500049,1146.6705980000552,1146.6705980000552,1146.6705980000552,1146.6705980000552,1146.6705980000552,1146.6705980000552,1146.9670754000545,1146.9670754000545,1147.8478181001265,1147.8478181001265,1147.8478181001265,1147.8478181001265,1147.8478181001265,1147.8478181001265,1147.8478181001265,1147.8478181001265,1147.8478181001265,1147.8478181001265,1147.8478181001265,1147.8478181001265,1147.8478181001265,1147.8478181001265,1147.8478181001265,1147.8478181001265,1147.8478181001265,,,,,,40,40,58,26,26,52,None,None,50,50,"[-0.023148148148148147, -0.010185185185185186]","[-0.3537037037037037, -0.29444444444444445]","[1, 1]","[0, 0]","[0, 0]","[4.611493900185451, 5.625290400115773]",['tijiao'],0.6,0,,[],[],[],[],[],[],[],3.601851851851852,1.647154999896884,1157.6698869999964,1159.6156180000398,,,,,,,,,,,1156.003919500159,1156.003919500159,1156.003919500159,1156.003919500159,1150.357861299999,1150.357861299999,1150.357861299999,1150.357861299999,1150.357861299999,1150.357861299999,1150.357861299999,1150.357861299999,0.005767500028014183,1150.357861299999,,,,,,1,f,1,2023-04-04_16h26.43.895,RL,2022.2.4,60.123794898420904,
1,-0.3,-0.225,0,84,84,84,,,,,,,,,,None,1159.6156180000398,1159.6156180000398,1159.6156180000398,1159.6156180000398,1159.6156180000398,1159.6156180000398,j,0.2871205999981612,1159.9342625001445,1159.9342625001445,1159.9342625001445,1159.9342625001445,1159.9342625001445,1159.9342625001445,1160.230679600034,1160.230679600034,1161.8429086001124,1161.8429086001124,1161.8429086001124,1161.8429086001124,1161.8429086001124,1161.8429086001124,1161.8429086001124,1161.8429086001124,1161.8429086001124,1161.8429086001124,1161.8429086001124,1161.8429086001124,1161.8429086001124,1161.8429086001124,1161.8429086001124,1161.8429086001124,1161.8429086001124,1164.3520543000195,1164.3520543000195,1164.3520543000195,1164.3520543000195,1164.3520543000195,39,34,64,24,24,70,3.0,1.2958615999668837,,,[],[],[],[],[],[],[],0.2,2,,[],[],[],[],[],[],[],None,None,1165.674058200093,1167.4274907000363,,,,,,,,,,,,,,,,,,,,,,,,,,,,,,1,f,1,2023-04-04_16h26.43.895,RL,2022.2.4,60.123794898420904,
0,0.3,0.225,0,85,85,85,,,,,,,,,,None,1167.4274907000363,1167.4274907000363,1167.4274907000363,1167.4274907000363,1167.4274907000363,1167.4274907000363,i,0.37390050012618303,1167.8285308999475,1167.8285308999475,1167.8285308999475,1167.8285308999475,1167.8285308999475,1167.8285308999475,1168.1258555001114,1168.1258555001114,1169.688262999989,1169.688262999989,1169.688262999989,1169.688262999989,1169.688262999989,1169.688262999989,1169.688262999989,1169.688262999989,1169.688262999989,1169.688262999989,1169.688262999989,1169.688262999989,1169.688262999989,1169.688262999989,1169.688262999989,1169.688262999989,1169.688262999989,1172.1972225001082,1172.1972225001082,1172.1972225001082,1172.1972225001082,1172.1972225001082,41,44,60,25,60,65,4.0,2.79154139989987,,,[],[],[],[],[],[],[],-0.6,3,,[],[],[],[],[],[],[],None,None,1175.0149912999477,1176.8016492000315,,,,,,,,,,,,,,,,,,,,,,,,,,,,,,1,f,1,2023-04-04_16h26.43.895,RL,2022.2.4,60.123794898420904,
1,-0.3,-0.225,0,86,86,86,,,,,,,,,,None,1176.8016492000315,1176.8016492000315,1176.8016492000315,1176.8016492000315,1176.8016492000315,1176.8016492000315,i,0.30196249997243285,1177.1372652000282,1177.1372652000282,1177.1372652000282,1177.1372652000282,1177.1372652000282,1177.1372652000282,1177.4338644000236,1177.4338644000236,1179.0955417000223,1179.0955417000223,1179.0955417000223,1179.0955417000223,1179.0955417000223,1179.0955417000223,1179.0955417000223,1179.0955417000223,1179.0955417000223,1179.0955417000223,1179.0955417000223,1179.0955417000223,1179.0955417000223,1179.0955417000223,1179.0955417000223,1179.0955417000223,1179.0955417000223,1181.6046511000022,1181.6046511000022,1181.6046511000022,1181.6046511000022,1181.6046511000022,41,37,59,25,59,72,3.0,2.3098560001235455,,,[],[],[],[],[],[],[],0.2,3,,[],[],[],[],[],[],[],None,None,1183.9403389999643,1185.4616282000206,,,,,,,,,,,,,,,,,,,,,,,,,,,,,,1,f,1,2023-04-04_16h26.43.895,RL,2022.2.4,60.123794898420904,
0,0.3,0.225,0,87,87,87,,,,,,,,,,None,1185.4616282000206,1185.4616282000206,1185.4616282000206,1185.4616282000206,1185.4616282000206,1185.4616282000206,r,0.5064362001139671,1185.9939997999463,1185.9939997999463,1185.9939997999463,1185.9939997999463,1185.9939997999463,1185.9939997999463,1186.2929909001105,1186.2929909001105,1187.3067358999979,1187.3067358999979,1187.3067358999979,1187.3067358999979,1187.3067358999979,1187.3067358999979,1187.3067358999979,1187.3067358999979,1187.3067358999979,1187.3067358999979,1187.3067358999979,1187.3067358999979,1187.3067358999979,1187.3067358999979,1187.3067358999979,1187.3067358999979,1187.3067358999979,,,,,,37,41,65,29,37,64,None,None,,,[],[],[],[],[],[],[],-0.2,1,50,"[-0.013888888888888888, -0.010185185185185186]","[-0.21296296296296297, -0.26481481481481484]","[1, 1]","[0, 0]","[0, 0]","[3.5714996999595314, 4.335837499937043]",['tijiao_random_2'],3.2037037037037037,2.204278500052169,1196.3979350000154,1197.9937746000942,1189.8257377000991,1189.8257377000991,1189.8257377000991,1189.8257377000991,1189.8257377000991,1189.8257377000991,1189.8257377000991,1189.8257377000991,0.007120500085875392,1189.8257377000991,1194.1750885001384,1194.1750885001384,1194.1750885001384,1194.1750885001384,,,,,,,,,,,,,,,,1,f,1,2023-04-04_16h26.43.895,RL,2022.2.4,60.123794898420904,
1,-0.3,-0.225,0,88,88,88,,,,,,,,,,None,1197.9937746000942,1197.9937746000942,1197.9937746000942,1197.9937746000942,1197.9937746000942,1197.9937746000942,f,0.2524836999364197,1198.2789716001134,1198.2789716001134,1198.2789716001134,1198.2789716001134,1198.2789716001134,1198.2789716001134,1198.5759076999966,1198.5759076999966,1199.7895693001337,1199.7895693001337,1199.7895693001337,1199.7895693001337,1199.7895693001337,1199.7895693001337,1199.7895693001337,1199.7895693001337,1199.7895693001337,1199.7895693001337,1199.7895693001337,1199.7895693001337,1199.7895693001337,1199.7895693001337,1199.7895693001337,1199.7895693001337,1199.7895693001337,1202.2985619001556,1202.2985619001556,1202.2985619001556,1202.2985619001556,1202.2985619001556,40,42,76,34,42,68,3.0,2.542881299974397,,,[],[],[],[],[],[],[],-0.6,3,,[],[],[],[],[],[],[],None,None,1204.8678715999704,1206.6538019001018,,,,,,,,,,,,,,,,,,,,,,,,,,,,,,1,f,1,2023-04-04_16h26.43.895,RL,2022.2.4,60.123794898420904,
0,0.3,0.225,0,89,89,89,,,,,,,,,,None,1206.6538019001018,1206.6538019001018,1206.6538019001018,1206.6538019001018,1206.6538019001018,1206.6538019001018,f,0.5053852999117225,1207.1860134999733,1207.1860134999733,1207.1860134999733,1207.1860134999733,1207.1860134999733,1207.1860134999733,1207.485165399965,1207.485165399965,1208.3325058000628,1208.3325058000628,1208.3325058000628,1208.3325058000628,1208.3325058000628,1208.3325058000628,1208.3325058000628,1208.3325058000628,1208.3325058000628,1208.3325058000628,1208.3325058000628,1208.3325058000628,1208.3325058000628,1208.3325058000628,1208.3325058000628,1208.3325058000628,1208.3325058000628,,,,,,42,39,58,28,39,73,None,None,50,50,[-0.053703703703703705],[-0.3],[1],[0],[0],[3.282518400112167],['tijiao'],0.6,0,,[],[],[],[],[],[],[],2.9814814814814814,1.6120627999771386,1215.7777994000353,1217.5573832001537,,,,,,,,,,,1214.1473884000443,1214.1473884000443,1214.1473884000443,1214.1473884000443,1210.8430463001132,1210.8430463001132,1210.8430463001132,1210.8430463001132,1210.8430463001132,1210.8430463001132,1210.8430463001132,1210.8430463001132,0.006527699995785952,1210.8430463001132,,,,,,1,f,1,2023-04-04_16h26.43.895,RL,2022.2.4,60.123794898420904,
