bandit0,black_x_pos_random,black_y_pos_random,trials.thisRepN,trials.thisTrialN,trials.thisN,trials.thisIndex,instru_img1.started,instru_resp.started,instru_resp.keys,instru_resp.rt,instru_img2.started,instru_resp2.started,instru_resp2.keys,instru_resp2.rt,fixbefore_2.started,rest_response.keys,red.started,green.started,yellow.started,blue.started,choose_bandit.started,Fixation.started,choose_bandit.keys,choose_bandit.rt,black.started,red_2.started,green_2.started,yellow_2.started,blue_2.started,fixation_2.started,docs.started,wait_playerB.started,docs.stopped,wait_playerB.stopped,black.stopped,red_2.stopped,green_2.stopped,yellow_2.stopped,blue_2.stopped,fixation_2.stopped,black_com.started,reward_sub.started,palyerb.started,reward__sub.started,compare.started,red_compare.started,green_com.started,yellow_com.started,blue_com.started,rewardyellow,rewardred,rewardblue,rewardgreen,subchoose,playerb,slider.response,slider.rt,expectself.text,value_expect_self,tijiao_click.x,tijiao_click.y,tijiao_click.leftButton,tijiao_click.midButton,tijiao_click.rightButton,tijiao_click.time,tijiao_click.clicked_name,random_whicharm,whether_ask,jiantou_random.started,expect_red.started,expect_green.started,expect_yellow.started,expect_blue.started,expect_random_2.started,expect_random_3.started,tijiao_random_2.started,tijiao_random.started,check_2.started,expect_random_3.text,tijiao_random.x,tijiao_random.y,tijiao_random.leftButton,tijiao_random.midButton,tijiao_random.rightButton,tijiao_random.time,tijiao_random.clicked_name,slider_2.started,image_7.started,confi.started,notconfi.started,slider_2.response,slider_2.rt,intertrialfix.started,intertrialfix.stopped,image_3.started,slider.started,text.started,image_4.started,image_5.started,expectself.started,expect_self_black.started,expect_self.started,expect_self_red.started,expect_self_green.started,expect_self_yellow.started,expect_self_blue.started,tijiao.started,tijiao_click.started,check.started,bigx.started,bigx.stopped,rest_image.started,rest_response.started,rest_response.rt,participant,Gender,Age,date,expName,psychopyVersion,frameRate,
,,,,,,,54.59243780199904,54.59243780199904,space,1.9709189339992008,,,,,,,,,,,,,,,,,,,,,,,,,,,,,,,,,,,,,,,,,,,,,,,,,,,,,,,,,,,,,,,,,,,,,,,,,,,,,,,,,,,,,,,,,,,,,,,,,,,,,,,,,278,f,21,2023-04-04_16h27.31.907,RL,2022.2.4,59.56483693348153,
,,,,,,,,,,,56.61846654499823,56.61846654499823,s,23.296647667997604,,,,,,,,,,,,,,,,,,,,,,,,,,,,,,,,,,,,,,,,,,,,,,,,,,,,,,,,,,,,,,,,,,,,,,,,,,,,,,,,,,,,,,,,,,,,,,,,,,,,,278,f,21,2023-04-04_16h27.31.907,RL,2022.2.4,59.56483693348153,
1,-0.3,-0.225,0,0,0,0,,,,,,,,,79.9449191470012,None,80.99099877899789,80.99099877899789,80.99099877899789,80.99099877899789,80.99099877899789,80.99099877899789,r,0.38695867899878067,81.45956358799958,81.45956358799958,81.45956358799958,81.45956358799958,81.45956358799958,81.45956358799958,81.71585722999953,81.71585722999953,83.30962938199809,83.30962938199809,83.37292401299783,83.37292401299783,83.37292401299783,83.37292401299783,83.37292401299783,83.37292401299783,83.37292401299783,83.37292401299783,83.37292401299783,83.37292401299783,83.37292401299783,83.37292401299783,83.37292401299783,83.37292401299783,83.37292401299783,27,41,54,60,27,32,None,None,,,[],[],[],[],[],[],[],0.6,1,86.0045090450003,86.0045090450003,86.0045090450003,86.0045090450003,86.0045090450003,86.0045090450003,86.0045090450003,86.0045090450003,0.0156894320025458,86.0045090450003,50,[0.00375],[-0.32375],[1],[0],[0],[16.326958293000644],['tijiao_random_2'],102.4644780009985,102.4644780009985,102.4644780009985,102.4644780009985,6.0,5.445009085997299,107.90928723099933,109.90057511399937,,,,,,,,,,,,,,,,,,,,,278,f,21,2023-04-04_16h27.31.907,RL,2022.2.4,59.56483693348153,
0,0.3,0.225,0,1,1,1,,,,,,,,,,None,109.90057511399937,109.90057511399937,109.90057511399937,109.90057511399937,109.90057511399937,109.90057511399937,f,0.49705357199854916,110.43829927999832,110.43829927999832,110.43829927999832,110.43829927999832,110.43829927999832,110.43829927999832,110.7100391089989,110.7100391089989,112.05769164999947,112.05769164999947,112.10129471300024,112.10129471300024,112.10129471300024,112.10129471300024,112.10129471300024,112.10129471300024,112.10129471300024,112.10129471300024,112.10129471300024,112.10129471300024,112.10129471300024,112.10129471300024,112.10129471300024,112.10129471300024,112.10129471300024,29,32,54,51,32,37,5.0,5.803854465000768,,,[],[],[],[],[],[],[],0.2,3,,,,,,,,,,,,[],[],[],[],[],[],[],,,,,None,None,120.46393871799955,122.22285008499966,114.59702337199997,114.59702337199997,114.59702337199997,114.59702337199997,114.59702337199997,,,,,,,,,,,,,,,,278,f,21,2023-04-04_16h27.31.907,RL,2022.2.4,59.56483693348153,
1,-0.3,-0.225,0,2,2,2,,,,,,,,,,None,122.22285008499966,122.22285008499966,122.22285008499966,122.22285008499966,122.22285008499966,122.22285008499966,j,0.4080787999992026,122.68180747299994,122.68180747299994,122.68180747299994,122.68180747299994,122.68180747299994,122.68180747299994,122.95049108999956,122.95049108999956,124.09133111499978,124.09133111499978,124.13501623100092,124.13501623100092,124.13501623100092,124.13501623100092,124.13501623100092,124.13501623100092,124.13501623100092,124.13501623100092,124.13501623100092,124.13501623100092,124.13501623100092,124.13501623100092,124.13501623100092,124.13501623100092,124.13501623100092,29,37,56,54,54,50,6.0,4.613322746001359,,,[],[],[],[],[],[],[],-0.6,2,,,,,,,,,,,,[],[],[],[],[],[],[],,,,,None,None,131.30260876099783,132.8610131259993,126.63366407599824,126.63366407599824,126.63366407599824,126.63366407599824,126.63366407599824,,,,,,,,,,,,,,,,278,f,21,2023-04-04_16h27.31.907,RL,2022.2.4,59.56483693348153,
0,0.3,0.225,0,3,3,3,,,,,,,,,,None,132.8610131259993,132.8610131259993,132.8610131259993,132.8610131259993,132.8610131259993,132.8610131259993,f,0.3090875509988109,133.22049183000127,133.22049183000127,133.22049183000127,133.22049183000127,133.22049183000127,133.22049183000127,133.49944780999795,133.49944780999795,135.34614382400105,135.34614382400105,135.37393228200017,135.37393228200017,135.37393228200017,135.37393228200017,135.37393228200017,135.37393228200017,135.37393228200017,135.37393228200017,135.37393228200017,135.37393228200017,135.37393228200017,135.37393228200017,135.37393228200017,135.37393228200017,135.37393228200017,35,46,62,59,46,39,6.0,1.649729507000302,,,[],[],[],[],[],[],[],0.6,3,,,,,,,,,,,,[],[],[],[],[],[],[],,,,,None,None,139.565555975998,141.43226881900046,137.8662859420001,137.8662859420001,137.8662859420001,137.8662859420001,137.8662859420001,,,,,,,,,,,,,,,,278,f,21,2023-04-04_16h27.31.907,RL,2022.2.4,59.56483693348153,
1,-0.3,-0.225,0,4,4,4,,,,,,,,,,None,141.43226881900046,141.43226881900046,141.43226881900046,141.43226881900046,141.43226881900046,141.43226881900046,i,0.7432002810019185,142.2206479609995,142.2206479609995,142.2206479609995,142.2206479609995,142.2206479609995,142.2206479609995,142.48926630699862,142.48926630699862,144.26934190999964,144.26934190999964,144.31579708400022,144.31579708400022,144.31579708400022,144.31579708400022,144.31579708400022,144.31579708400022,144.31579708400022,144.31579708400022,144.31579708400022,144.31579708400022,144.31579708400022,144.31579708400022,144.31579708400022,144.31579708400022,144.31579708400022,31,43,51,58,51,39,6.0,2.5158359540000674,,,[],[],[],[],[],[],[],-0.2,3,,,,,,,,,,,,[],[],[],[],[],[],[],,,,,None,None,149.38821634600026,151.2203275719985,146.82321988900003,146.82321988900003,146.82321988900003,146.82321988900003,146.82321988900003,,,,,,,,,,,,,,,,278,f,21,2023-04-04_16h27.31.907,RL,2022.2.4,59.56483693348153,
0,0.3,0.225,0,5,5,5,,,,,,,,,,None,151.2203275719985,151.2203275719985,151.2203275719985,151.2203275719985,151.2203275719985,151.2203275719985,f,0.584043381997617,151.84249533500042,151.84249533500042,151.84249533500042,151.84249533500042,151.84249533500042,151.84249533500042,152.11209886199867,152.11209886199867,153.92495403499925,153.92495403499925,153.96661103099905,153.96661103099905,153.96661103099905,153.96661103099905,153.96661103099905,153.96661103099905,153.96661103099905,153.96661103099905,153.96661103099905,153.96661103099905,153.96661103099905,153.96661103099905,153.96661103099905,153.96661103099905,153.96661103099905,30,44,66,56,44,40,None,None,45,45,[0.0525],[-0.26375],[1],[0],[0],[7.147335143999953],['tijiao'],0.2,0,,,,,,,,,,,,[],[],[],[],[],[],[],163.6716343090011,163.6716343090011,163.6716343090011,163.6716343090011,9.8625,1.8283728620008333,165.51812638499905,167.05974872799925,,,,,,156.4924264129986,156.4924264129986,156.4924264129986,156.4924264129986,156.4924264129986,156.4924264129986,156.4924264129986,156.4924264129986,0.009203162000630982,156.4924264129986,,,,,,278,f,21,2023-04-04_16h27.31.907,RL,2022.2.4,59.56483693348153,
1,-0.3,-0.225,0,6,6,6,,,,,,,,,,None,167.05974872799925,167.05974872799925,167.05974872799925,167.05974872799925,167.05974872799925,167.05974872799925,j,1.2629261119982402,168.36452068699873,168.36452068699873,168.36452068699873,168.36452068699873,168.36452068699873,168.36452068699873,168.63514614900123,168.63514614900123,170.49537701100053,170.49537701100053,170.53590626499863,170.53590626499863,170.53590626499863,170.53590626499863,170.53590626499863,170.53590626499863,170.53590626499863,170.53590626499863,170.53590626499863,170.53590626499863,170.53590626499863,170.53590626499863,170.53590626499863,170.53590626499863,170.53590626499863,43,35,61,56,56,31,6.0,3.6183336100002634,,,[],[],[],[],[],[],[],-0.6,3,,,,,,,,,,,,[],[],[],[],[],[],[],,,,,None,None,176.70041305300037,178.3160705859991,173.03237633800018,173.03237633800018,173.03237633800018,173.03237633800018,173.03237633800018,,,,,,,,,,,,,,,,278,f,21,2023-04-04_16h27.31.907,RL,2022.2.4,59.56483693348153,
0,0.3,0.225,0,7,7,7,,,,,,,,,,None,178.3160705859991,178.3160705859991,178.3160705859991,178.3160705859991,178.3160705859991,178.3160705859991,f,0.5505702439986635,178.90446683000118,178.90446683000118,178.90446683000118,178.90446683000118,178.90446683000118,178.90446683000118,179.1724545859979,179.1724545859979,180.66523292000056,180.66523292000056,180.7035397619984,180.7035397619984,180.7035397619984,180.7035397619984,180.7035397619984,180.7035397619984,180.7035397619984,180.7035397619984,180.7035397619984,180.7035397619984,180.7035397619984,180.7035397619984,180.7035397619984,180.7035397619984,180.7035397619984,47,34,55,57,34,43,None,None,,,[],[],[],[],[],[],[],0.2,1,183.2493497459982,183.2493497459982,183.2493497459982,183.2493497459982,183.2493497459982,183.2493497459982,183.2493497459982,183.2493497459982,0.011853703999804566,183.2493497459982,36,[0.06375],[-0.31375],[1],[0],[0],[10.477296119002858],['tijiao_random_2'],193.74667889199918,193.74667889199918,193.74667889199918,193.74667889199918,2.8874999999999997,6.762504763999459,200.5230362049988,202.34412389999852,,,,,,,,,,,,,,,,,,,,,278,f,21,2023-04-04_16h27.31.907,RL,2022.2.4,59.56483693348153,
1,-0.3,-0.225,0,8,8,8,,,,,,,,,,None,202.34412389999852,202.34412389999852,202.34412389999852,202.34412389999852,202.34412389999852,202.34412389999852,j,0.31872675100021297,202.71697560399843,202.71697560399843,202.71697560399843,202.71697560399843,202.71697560399843,202.71697560399843,202.98477843100045,202.98477843100045,204.9518228220004,204.9518228220004,204.9739113830001,204.9739113830001,204.9739113830001,204.9739113830001,204.9739113830001,204.9739113830001,204.9739113830001,204.9739113830001,204.9739113830001,204.9739113830001,204.9739113830001,204.9739113830001,204.9739113830001,204.9739113830001,204.9739113830001,34,44,68,53,53,64,5.0,3.734311936001177,,,[],[],[],[],[],[],[],-0.2,2,,,,,,,,,,,,[],[],[],[],[],[],[],,,,,None,None,211.26583334899988,213.18309806199977,207.4836936799984,207.4836936799984,207.4836936799984,207.4836936799984,207.4836936799984,,,,,,,,,,,,,,,,278,f,21,2023-04-04_16h27.31.907,RL,2022.2.4,59.56483693348153,
0,0.3,0.225,0,9,9,9,,,,,,,,,,None,213.18309806199977,213.18309806199977,213.18309806199977,213.18309806199977,213.18309806199977,213.18309806199977,j,0.44442140300088795,213.67402738199962,213.67402738199962,213.67402738199962,213.67402738199962,213.67402738199962,213.67402738199962,213.939464305,213.939464305,214.876302228,214.876302228,214.91644448100124,214.91644448100124,214.91644448100124,214.91644448100124,214.91644448100124,214.91644448100124,214.91644448100124,214.91644448100124,214.91644448100124,214.91644448100124,214.91644448100124,214.91644448100124,214.91644448100124,214.91644448100124,214.91644448100124,41,35,68,51,51,53,5.0,3.427424443001655,,,[],[],[],[],[],[],[],0.2,2,,,,,,,,,,,,[],[],[],[],[],[],[],,,,,None,None,220.90500285899907,222.75329306899948,217.42583390299842,217.42583390299842,217.42583390299842,217.42583390299842,217.42583390299842,,,,,,,,,,,,,,,,278,f,21,2023-04-04_16h27.31.907,RL,2022.2.4,59.56483693348153,
1,-0.3,-0.225,0,10,10,10,,,,,,,,,,None,222.75329306899948,222.75329306899948,222.75329306899948,222.75329306899948,222.75329306899948,222.75329306899948,i,0.624690702999942,223.42401092599903,223.42401092599903,223.42401092599903,223.42401092599903,223.42401092599903,223.42401092599903,223.693240700999,223.693240700999,225.32662461899963,225.32662461899963,225.3675769729998,225.3675769729998,225.3675769729998,225.3675769729998,225.3675769729998,225.3675769729998,225.3675769729998,225.3675769729998,225.3675769729998,225.3675769729998,225.3675769729998,225.3675769729998,225.3675769729998,225.3675769729998,225.3675769729998,38,42,67,55,67,59,6.0,2.3185130989986646,,,[],[],[],[],[],[],[],0.6,2,,,,,,,,,,,,[],[],[],[],[],[],[],,,,,None,None,230.24300327699893,232.17424995499823,227.87354549099837,227.87354549099837,227.87354549099837,227.87354549099837,227.87354549099837,,,,,,,,,,,,,,,,278,f,21,2023-04-04_16h27.31.907,RL,2022.2.4,59.56483693348153,
0,0.3,0.225,0,11,11,11,,,,,,,,,,None,232.17424995499823,232.17424995499823,232.17424995499823,232.17424995499823,232.17424995499823,232.17424995499823,f,0.3761675030000333,232.59426773299856,232.59426773299856,232.59426773299856,232.59426773299856,232.59426773299856,232.59426773299856,232.86190928900032,232.86190928900032,234.77087758999915,234.77087758999915,234.8075951059982,234.8075951059982,234.8075951059982,234.8075951059982,234.8075951059982,234.8075951059982,234.8075951059982,234.8075951059982,234.8075951059982,234.8075951059982,234.8075951059982,234.8075951059982,234.8075951059982,234.8075951059982,234.8075951059982,41,31,62,49,31,45,5.0,6.379793263000465,,,[],[],[],[],[],[],[],0.6,2,,,,,,,,,,,,[],[],[],[],[],[],[],,,,,None,None,243.74895535099859,245.6317754369993,237.32261951799956,237.32261951799956,237.32261951799956,237.32261951799956,237.32261951799956,,,,,,,,,,,,,,,,278,f,21,2023-04-04_16h27.31.907,RL,2022.2.4,59.56483693348153,
1,-0.3,-0.225,0,12,12,12,,,,,,,,,,None,245.6317754369993,245.6317754369993,245.6317754369993,245.6317754369993,245.6317754369993,245.6317754369993,i,0.38417348899747594,246.06999209199785,246.06999209199785,246.06999209199785,246.06999209199785,246.06999209199785,246.06999209199785,246.33727589800037,246.33727589800037,247.8035981489993,247.8035981489993,247.84433287399952,247.84433287399952,247.84433287399952,247.84433287399952,247.84433287399952,247.84433287399952,247.84433287399952,247.84433287399952,247.84433287399952,247.84433287399952,247.84433287399952,247.84433287399952,247.84433287399952,247.84433287399952,247.84433287399952,34,47,53,57,53,33,6.0,3.1608536029998504,,,[],[],[],[],[],[],[],0.2,3,,,,,,,,,,,,[],[],[],[],[],[],[],,,,,None,None,253.5461320639988,255.55297582899948,250.34236769899871,250.34236769899871,250.34236769899871,250.34236769899871,250.34236769899871,,,,,,,,,,,,,,,,278,f,21,2023-04-04_16h27.31.907,RL,2022.2.4,59.56483693348153,
0,0.3,0.225,0,13,13,13,,,,,,,,,,None,255.55297582899948,255.55297582899948,255.55297582899948,255.55297582899948,255.55297582899948,255.55297582899948,i,0.4722215440015134,256.0743003009993,256.0743003009993,256.0743003009993,256.0743003009993,256.0743003009993,256.0743003009993,256.34165471699816,256.34165471699816,257.91483867200077,257.91483867200077,257.95316746000026,257.95316746000026,257.95316746000026,257.95316746000026,257.95316746000026,257.95316746000026,257.95316746000026,257.95316746000026,257.95316746000026,257.95316746000026,257.95316746000026,257.95316746000026,257.95316746000026,257.95316746000026,257.95316746000026,43,43,53,55,53,42,6.0,1.7320689929983928,,,[],[],[],[],[],[],[],0.2,3,,,,,,,,,,,,[],[],[],[],[],[],[],,,,,None,None,262.24314763000075,263.9042922849985,260.45995411499825,260.45995411499825,260.45995411499825,260.45995411499825,260.45995411499825,,,,,,,,,,,,,,,,278,f,21,2023-04-04_16h27.31.907,RL,2022.2.4,59.56483693348153,
1,-0.3,-0.225,0,14,14,14,,,,,,,,,,None,263.9042922849985,263.9042922849985,263.9042922849985,263.9042922849985,263.9042922849985,263.9042922849985,r,0.371642749003513,264.3254880389977,264.3254880389977,264.3254880389977,264.3254880389977,264.3254880389977,264.3254880389977,264.59822400399935,264.59822400399935,266.31896837399836,266.31896837399836,266.35976914599814,266.35976914599814,266.35976914599814,266.35976914599814,266.35976914599814,266.35976914599814,266.35976914599814,266.35976914599814,266.35976914599814,266.35976914599814,266.35976914599814,266.35976914599814,266.35976914599814,266.35976914599814,266.35976914599814,40,43,60,50,40,47,5.0,2.451938575002714,,,[],[],[],[],[],[],[],0.2,3,,,,,,,,,,,,[],[],[],[],[],[],[],,,,,None,None,271.3616286209981,272.8921839249997,268.8599466550004,268.8599466550004,268.8599466550004,268.8599466550004,268.8599466550004,,,,,,,,,,,,,,,,278,f,21,2023-04-04_16h27.31.907,RL,2022.2.4,59.56483693348153,
0,0.3,0.225,0,15,15,15,,,,,,,,,,None,272.8921839249997,272.8921839249997,272.8921839249997,272.8921839249997,272.8921839249997,272.8921839249997,f,0.29446149299838,273.23025188300016,273.23025188300016,273.23025188300016,273.23025188300016,273.23025188300016,273.23025188300016,273.5059228499995,273.5059228499995,274.6605698409985,274.6605698409985,274.6974183880011,274.6974183880011,274.6974183880011,274.6974183880011,274.6974183880011,274.6974183880011,274.6974183880011,274.6974183880011,274.6974183880011,274.6974183880011,274.6974183880011,274.6974183880011,274.6974183880011,274.6974183880011,274.6974183880011,37,43,49,50,43,49,None,None,,,[],[],[],[],[],[],[],0.2,1,277.2296713549986,277.2296713549986,277.2296713549986,277.2296713549986,277.2296713549986,277.2296713549986,277.2296713549986,277.2296713549986,0.010522089000005508,277.2296713549986,51,[0.01125],[-0.3],[1],[0],[0],[8.229000186998746],['tijiao_random_2'],285.4766584229983,285.4766584229983,285.4766584229983,285.4766584229983,1.8750000000000002,3.0329655509995064,288.5285290360007,290.2350578810001,,,,,,,,,,,,,,,,,,,,,278,f,21,2023-04-04_16h27.31.907,RL,2022.2.4,59.56483693348153,
1,-0.3,-0.225,0,16,16,16,,,,,,,,,,None,290.2350578810001,290.2350578810001,290.2350578810001,290.2350578810001,290.2350578810001,290.2350578810001,r,0.618555742999888,290.89453978500023,290.89453978500023,290.89453978500023,290.89453978500023,290.89453978500023,290.89453978500023,291.1622504549996,291.1622504549996,292.6056126609983,292.6056126609983,292.6438360559987,292.6438360559987,292.6438360559987,292.6438360559987,292.6438360559987,292.6438360559987,292.6438360559987,292.6438360559987,292.6438360559987,292.6438360559987,292.6438360559987,292.6438360559987,292.6438360559987,292.6438360559987,292.6438360559987,33,50,57,46,33,47,None,None,43,43,[-0.01375],[-0.295],[1],[0],[0],[7.022673192001093],['tijiao'],0.6,0,,,,,,,,,,,,[],[],[],[],[],[],[],302.25161662699975,302.25161662699975,302.25161662699975,302.25161662699975,1.9499999999999997,5.429362173999834,307.67945062999934,309.3281356599982,,,,,,295.16458174999934,295.16458174999934,295.16458174999934,295.16458174999934,295.16458174999934,295.16458174999934,295.16458174999934,295.16458174999934,0.008550931001082063,295.16458174999934,,,,,,278,f,21,2023-04-04_16h27.31.907,RL,2022.2.4,59.56483693348153,
0,0.3,0.225,0,17,17,17,,,,,,,,,,None,309.3281356599982,309.3281356599982,309.3281356599982,309.3281356599982,309.3281356599982,309.3281356599982,r,0.8700181839994912,310.2338192399984,310.2338192399984,310.2338192399984,310.2338192399984,310.2338192399984,310.2338192399984,310.5184125529995,310.5184125529995,312.30603210999834,312.30603210999834,312.30603210999834,312.30603210999834,312.30603210999834,312.30603210999834,312.30603210999834,312.30603210999834,312.30603210999834,312.30603210999834,312.30603210999834,312.30603210999834,312.30603210999834,312.30603210999834,312.30603210999834,312.30603210999834,312.30603210999834,46,36,52,49,46,41,None,None,51,51,[-0.03],[-0.29625],[1],[0],[0],[7.104025059998094],['tijiao'],0.6,0,,,,,,,,,,,,[],[],[],[],[],[],[],321.9577603619982,321.9577603619982,321.9577603619982,321.9577603619982,1.9875,7.847519933999138,329.82364655499987,331.45548249999774,,,,,,314.81973764099894,314.81973764099894,314.81973764099894,314.81973764099894,314.81973764099894,314.81973764099894,314.81973764099894,314.81973764099894,0.008575036001275294,314.81973764099894,,,,,,278,f,21,2023-04-04_16h27.31.907,RL,2022.2.4,59.56483693348153,
1,-0.3,-0.225,0,18,18,18,,,,,,,,,,None,331.45548249999774,331.45548249999774,331.45548249999774,331.45548249999774,331.45548249999774,331.45548249999774,f,0.8187261370003398,332.3254518850008,332.3254518850008,332.3254518850008,332.3254518850008,332.3254518850008,332.3254518850008,332.59420062999925,332.59420062999925,334.3855741410007,334.3855741410007,334.4254339350009,334.4254339350009,334.4254339350009,334.4254339350009,334.4254339350009,334.4254339350009,334.4254339350009,334.4254339350009,334.4254339350009,334.4254339350009,334.4254339350009,334.4254339350009,334.4254339350009,334.4254339350009,334.4254339350009,40,30,49,45,30,37,5.0,3.0564641380005924,,,[],[],[],[],[],[],[],-0.2,2,,,,,,,,,,,,[],[],[],[],[],[],[],,,,,None,None,340.0286486010009,341.59360758299954,336.9261682739998,336.9261682739998,336.9261682739998,336.9261682739998,336.9261682739998,,,,,,,,,,,,,,,,278,f,21,2023-04-04_16h27.31.907,RL,2022.2.4,59.56483693348153,
0,0.3,0.225,0,19,19,19,,,,,,,,,,None,341.59360758299954,341.59360758299954,341.59360758299954,341.59360758299954,341.59360758299954,341.59360758299954,j,0.5792904340014502,342.2181602290002,342.2181602290002,342.2181602290002,342.2181602290002,342.2181602290002,342.2181602290002,342.48507262600106,342.48507262600106,343.7704000759986,343.7704000759986,343.8122620089998,343.8122620089998,343.8122620089998,343.8122620089998,343.8122620089998,343.8122620089998,343.8122620089998,343.8122620089998,343.8122620089998,343.8122620089998,343.8122620089998,343.8122620089998,343.8122620089998,343.8122620089998,343.8122620089998,49,29,57,52,52,46,None,None,,,[],[],[],[],[],[],[],-0.2,1,346.34858909800096,346.34858909800096,346.34858909800096,346.34858909800096,346.34858909800096,346.34858909800096,346.34858909800096,346.34858909800096,0.010107540001627058,346.34858909800096,43,[0.11],[-0.305],[1],[0],[0],[6.066607783999643],['tijiao_random_2'],352.4340351770006,352.4340351770006,352.4340351770006,352.4340351770006,1.9125,2.7707155979987874,355.22482699399916,356.7829024720013,,,,,,,,,,,,,,,,,,,,,278,f,21,2023-04-04_16h27.31.907,RL,2022.2.4,59.56483693348153,
1,-0.3,-0.225,0,20,20,20,,,,,,,,,,None,356.7829024720013,356.7829024720013,356.7829024720013,356.7829024720013,356.7829024720013,356.7829024720013,j,1.1179314090004482,357.9548093730009,357.9548093730009,357.9548093730009,357.9548093730009,357.9548093730009,357.9548093730009,358.2246029829985,358.2246029829985,360.1567001779986,360.1567001779986,360.1799355490002,360.1799355490002,360.1799355490002,360.1799355490002,360.1799355490002,360.1799355490002,360.1799355490002,360.1799355490002,360.1799355490002,360.1799355490002,360.1799355490002,360.1799355490002,360.1799355490002,360.1799355490002,360.1799355490002,45,44,50,52,52,49,6.0,2.806967403001181,,,[],[],[],[],[],[],[],-0.2,2,,,,,,,,,,,,[],[],[],[],[],[],[],,,,,None,None,365.53690971000105,367.1556405980009,362.6803899109982,362.6803899109982,362.6803899109982,362.6803899109982,362.6803899109982,,,,,,,,,,,,,,,,278,f,21,2023-04-04_16h27.31.907,RL,2022.2.4,59.56483693348153,
0,0.3,0.225,0,21,21,21,,,,,,,,,,None,367.1556405980009,367.1556405980009,367.1556405980009,367.1556405980009,367.1556405980009,367.1556405980009,f,0.3861463709981763,367.5914593649977,367.5914593649977,367.5914593649977,367.5914593649977,367.5914593649977,367.5914593649977,367.8619988700011,367.8619988700011,369.29987257500034,369.29987257500034,369.3416958730013,369.3416958730013,369.3416958730013,369.3416958730013,369.3416958730013,369.3416958730013,369.3416958730013,369.3416958730013,369.3416958730013,369.3416958730013,369.3416958730013,369.3416958730013,369.3416958730013,369.3416958730013,369.3416958730013,38,44,47,57,44,53,5.0,2.858292513003107,,,[],[],[],[],[],[],[],0.2,3,,,,,,,,,,,,[],[],[],[],[],[],[],,,,,None,None,374.7575492340002,376.41001518899793,371.85109455899874,371.85109455899874,371.85109455899874,371.85109455899874,371.85109455899874,,,,,,,,,,,,,,,,278,f,21,2023-04-04_16h27.31.907,RL,2022.2.4,59.56483693348153,
1,-0.3,-0.225,0,22,22,22,,,,,,,,,,None,376.41001518899793,376.41001518899793,376.41001518899793,376.41001518899793,376.41001518899793,376.41001518899793,i,0.4721089619997656,376.93627885599926,376.93627885599926,376.93627885599926,376.93627885599926,376.93627885599926,376.93627885599926,377.2005352310007,377.2005352310007,378.0883805279991,378.0883805279991,378.1278306530003,378.1278306530003,378.1278306530003,378.1278306530003,378.1278306530003,378.1278306530003,378.1278306530003,378.1278306530003,378.1278306530003,378.1278306530003,378.1278306530003,378.1278306530003,378.1278306530003,378.1278306530003,378.1278306530003,36,51,49,47,49,35,None,None,52,52,[0.0125],[-0.31375],[1],[0],[0],[10.704106424000202],['tijiao'],0.6,0,,,,,,,,,,,,[],[],[],[],[],[],[],391.3792887269992,391.3792887269992,391.3792887269992,391.3792887269992,2.05,2.8364188770028704,394.23591761699936,396.0525927759991,,,,,,380.6455316270003,380.6455316270003,380.6455316270003,380.6455316270003,380.6455316270003,380.6455316270003,380.6455316270003,380.6455316270003,0.009058703999471618,380.6455316270003,,,,,,278,f,21,2023-04-04_16h27.31.907,RL,2022.2.4,59.56483693348153,
0,0.3,0.225,0,23,23,23,,,,,,,,,,None,396.0525927759991,396.0525927759991,396.0525927759991,396.0525927759991,396.0525927759991,396.0525927759991,j,0.42152706300112186,396.5207793310001,396.5207793310001,396.5207793310001,396.5207793310001,396.5207793310001,396.5207793310001,396.7924176989982,396.7924176989982,397.8156840929987,397.8156840929987,397.8533202440012,397.8533202440012,397.8533202440012,397.8533202440012,397.8533202440012,397.8533202440012,397.8533202440012,397.8533202440012,397.8533202440012,397.8533202440012,397.8533202440012,397.8533202440012,397.8533202440012,397.8533202440012,397.8533202440012,33,48,50,56,56,49,6.0,2.723599958997511,,,[],[],[],[],[],[],[],-0.2,3,,,,,,,,,,,,[],[],[],[],[],[],[],,,,,None,None,403.1404876630004,404.773974882999,400.36671546199796,400.36671546199796,400.36671546199796,400.36671546199796,400.36671546199796,,,,,,,,,,,,,,,,278,f,21,2023-04-04_16h27.31.907,RL,2022.2.4,59.56483693348153,
1,-0.3,-0.225,0,24,24,24,,,,,,,,,,None,404.773974882999,404.773974882999,404.773974882999,404.773974882999,404.773974882999,404.773974882999,f,0.3795405840028252,405.20684509299826,405.20684509299826,405.20684509299826,405.20684509299826,405.20684509299826,405.20684509299826,405.472699801001,405.472699801001,407.2177428979994,407.2177428979994,407.2581181960013,407.2581181960013,407.2581181960013,407.2581181960013,407.2581181960013,407.2581181960013,407.2581181960013,407.2581181960013,407.2581181960013,407.2581181960013,407.2581181960013,407.2581181960013,407.2581181960013,407.2581181960013,407.2581181960013,45,52,43,51,52,51,4.0,2.2253636840032414,,,[],[],[],[],[],[],[],-0.6,3,,,,,,,,,,,,[],[],[],[],[],[],[],,,,,None,None,412.04484379399946,414.0440546339996,409.76863500499894,409.76863500499894,409.76863500499894,409.76863500499894,409.76863500499894,,,,,,,,,,,,,,,,278,f,21,2023-04-04_16h27.31.907,RL,2022.2.4,59.56483693348153,
0,0.3,0.225,0,25,25,25,,,,,,,,,,None,414.0440546339996,414.0440546339996,414.0440546339996,414.0440546339996,414.0440546339996,414.0440546339996,None,,,,,,,,,,,,,,,,,,,,,,,,,,,52,48,50,50,0,**,None,None,,,[],[],[],[],[],[],[],-0.6,0,,,,,,,,,,,,[],[],[],[],[],[],[],,,,,None,None,421.61241385299945,423.39889576399946,,,,,,,,,,,,,,,,415.5987204230005,421.61241385299945,,,,278,f,21,2023-04-04_16h27.31.907,RL,2022.2.4,59.56483693348153,
1,-0.3,-0.225,0,26,26,26,,,,,,,,,,None,423.39889576399946,423.39889576399946,423.39889576399946,423.39889576399946,423.39889576399946,423.39889576399946,j,0.5737762509997992,424.0219897220013,424.0219897220013,424.0219897220013,424.0219897220013,424.0219897220013,424.0219897220013,424.3055481279989,424.3055481279989,425.5677796179989,425.5677796179989,425.5677796179989,425.5677796179989,425.5677796179989,425.5677796179989,425.5677796179989,425.5677796179989,425.5677796179989,425.5677796179989,425.5677796179989,425.5677796179989,425.5677796179989,425.5677796179989,425.5677796179989,425.5677796179989,425.5677796179989,54,44,47,50,50,50,None,None,38,38,[-0.09125],[-0.29875],[1],[0],[0],[7.946576211998035],['tijiao'],-0.2,0,,,,,,,,,,,,[],[],[],[],[],[],[],436.05866731399874,436.05866731399874,436.05866731399874,436.05866731399874,2.025,1.6354941870013135,437.7132941070013,439.3708151639985,,,,,,428.08163999300086,428.08163999300086,428.08163999300086,428.08163999300086,428.08163999300086,428.08163999300086,428.08163999300086,428.08163999300086,0.009008876997540938,428.08163999300086,,,,,,278,f,21,2023-04-04_16h27.31.907,RL,2022.2.4,59.56483693348153,
0,0.3,0.225,0,27,27,27,,,,,,,,,,None,439.3708151639985,439.3708151639985,439.3708151639985,439.3708151639985,439.3708151639985,439.3708151639985,f,0.2933541480015265,439.7097843429983,439.7097843429983,439.7097843429983,439.7097843429983,439.7097843429983,439.7097843429983,439.979532041998,439.979532041998,441.9178925899978,441.9178925899978,441.95733731400105,441.95733731400105,441.95733731400105,441.95733731400105,441.95733731400105,441.95733731400105,441.95733731400105,441.95733731400105,441.95733731400105,441.95733731400105,441.95733731400105,441.95733731400105,441.95733731400105,441.95733731400105,441.95733731400105,46,49,38,53,49,67,5.0,2.2075057129986817,,,[],[],[],[],[],[],[],-0.6,2,,,,,,,,,,,,[],[],[],[],[],[],[],,,,,None,None,446.7112387089983,448.4268319549992,444.45394210000086,444.45394210000086,444.45394210000086,444.45394210000086,444.45394210000086,,,,,,,,,,,,,,,,278,f,21,2023-04-04_16h27.31.907,RL,2022.2.4,59.56483693348153,
1,-0.3,-0.225,0,28,28,28,,,,,,,,,,None,448.4268319549992,448.4268319549992,448.4268319549992,448.4268319549992,448.4268319549992,448.4268319549992,r,0.297017020999192,448.7624147300012,448.7624147300012,448.7624147300012,448.7624147300012,448.7624147300012,448.7624147300012,449.03501136499835,449.03501136499835,450.1195131550012,450.1195131550012,450.15973718199893,450.15973718199893,450.15973718199893,450.15973718199893,450.15973718199893,450.15973718199893,450.15973718199893,450.15973718199893,450.15973718199893,450.15973718199893,450.15973718199893,450.15973718199893,450.15973718199893,450.15973718199893,450.15973718199893,42,53,45,51,42,74,5.0,2.3483492779996595,,,[],[],[],[],[],[],[],-0.6,2,,,,,,,,,,,,[],[],[],[],[],[],[],,,,,None,None,455.0525313369981,456.8147071940002,452.6559329570009,452.6559329570009,452.6559329570009,452.6559329570009,452.6559329570009,,,,,,,,,,,,,,,,278,f,21,2023-04-04_16h27.31.907,RL,2022.2.4,59.56483693348153,
0,0.3,0.225,0,29,29,29,,,,,,,,,,None,456.8147071940002,456.8147071940002,456.8147071940002,456.8147071940002,456.8147071940002,456.8147071940002,j,0.3337449339996965,457.1889076910011,457.1889076910011,457.1889076910011,457.1889076910011,457.1889076910011,457.1889076910011,457.4552761880004,457.4552761880004,459.0738591179979,459.0738591179979,459.11459348800054,459.11459348800054,459.11459348800054,459.11459348800054,459.11459348800054,459.11459348800054,459.11459348800054,459.11459348800054,459.11459348800054,459.11459348800054,459.11459348800054,459.11459348800054,459.11459348800054,459.11459348800054,459.11459348800054,45,53,38,47,47,61,5.0,4.493682489999628,,,[],[],[],[],[],[],[],-0.6,2,,,,,,,,,,,,[],[],[],[],[],[],[],,,,,None,None,466.15090730799784,467.784980157001,461.609059309998,461.609059309998,461.609059309998,461.609059309998,461.609059309998,,,,,,,,,,,,,,,,278,f,21,2023-04-04_16h27.31.907,RL,2022.2.4,59.56483693348153,
1,-0.3,-0.225,0,30,30,30,,,,,,,,,,None,467.784980157001,467.784980157001,467.784980157001,467.784980157001,467.784980157001,467.784980157001,f,0.39277276000211714,468.223610033001,468.223610033001,468.223610033001,468.223610033001,468.223610033001,468.223610033001,468.49361089800004,468.49361089800004,469.4539595269998,469.4539595269998,469.4954384909979,469.4954384909979,469.4954384909979,469.4954384909979,469.4954384909979,469.4954384909979,469.4954384909979,469.4954384909979,469.4954384909979,469.4954384909979,469.4954384909979,469.4954384909979,469.4954384909979,469.4954384909979,469.4954384909979,54,46,44,52,46,48,None,None,,,[],[],[],[],[],[],[],-0.6,1,472.0323968779994,472.0323968779994,472.0323968779994,472.0323968779994,472.0323968779994,472.0323968779994,472.0323968779994,472.0323968779994,0.010198435997153865,472.0323968779994,47,[0.00625],[-0.3075],[1],[0],[0],[5.946673983999062],['tijiao_random_2'],477.99285495299773,477.99285495299773,477.99285495299773,477.99285495299773,2.95,2.5272269140004937,480.5408192239993,482.22721207799987,,,,,,,,,,,,,,,,,,,,,278,f,21,2023-04-04_16h27.31.907,RL,2022.2.4,59.56483693348153,
0,0.3,0.225,0,31,31,31,,,,,,,,,,None,482.22721207799987,482.22721207799987,482.22721207799987,482.22721207799987,482.22721207799987,482.22721207799987,j,0.3105660200017155,482.5843160939985,482.5843160939985,482.5843160939985,482.5843160939985,482.5843160939985,482.5843160939985,482.8503479889987,482.8503479889987,484.6781749619986,484.6781749619986,484.71550135899815,484.71550135899815,484.71550135899815,484.71550135899815,484.71550135899815,484.71550135899815,484.71550135899815,484.71550135899815,484.71550135899815,484.71550135899815,484.71550135899815,484.71550135899815,484.71550135899815,484.71550135899815,484.71550135899815,54,45,62,58,58,65,None,None,58,58,[-0.01375],[-0.30875],[1],[0],[0],[7.309670161001122],['tijiao'],0.6,0,,,,,,,,,,,,[],[],[],[],[],[],[],494.5764719159997,494.5764719159997,494.5764719159997,494.5764719159997,1.9999999999999998,6.699275179002143,501.2911769450002,502.98652568200123,,,,,,487.22994907799875,487.22994907799875,487.22994907799875,487.22994907799875,487.22994907799875,487.22994907799875,487.22994907799875,487.22994907799875,0.009176540002954425,487.22994907799875,,,,,,278,f,21,2023-04-04_16h27.31.907,RL,2022.2.4,59.56483693348153,
1,-0.3,-0.225,0,32,32,32,,,,,,,,,,None,502.98652568200123,502.98652568200123,502.98652568200123,502.98652568200123,502.98652568200123,502.98652568200123,j,0.31534512099824497,503.3407543739995,503.3407543739995,503.3407543739995,503.3407543739995,503.3407543739995,503.3407543739995,503.6092696230007,503.6092696230007,504.9980262499994,504.9980262499994,505.0389243509999,505.0389243509999,505.0389243509999,505.0389243509999,505.0389243509999,505.0389243509999,505.0389243509999,505.0389243509999,505.0389243509999,505.0389243509999,505.0389243509999,505.0389243509999,505.0389243509999,505.0389243509999,505.0389243509999,51,47,56,51,51,50,6.0,2.3161281869979575,,,[],[],[],[],[],[],[],-0.2,2,,,,,,,,,,,,[],[],[],[],[],[],[],,,,,None,None,509.9079911529989,511.72267709899825,507.5429403249982,507.5429403249982,507.5429403249982,507.5429403249982,507.5429403249982,,,,,,,,,,,,,,,,278,f,21,2023-04-04_16h27.31.907,RL,2022.2.4,59.56483693348153,
0,0.3,0.225,0,33,33,33,,,,,,,,,,None,511.72267709899825,511.72267709899825,511.72267709899825,511.72267709899825,511.72267709899825,511.72267709899825,f,0.32452589600143256,512.0918799579995,512.0918799579995,512.0918799579995,512.0918799579995,512.0918799579995,512.0918799579995,512.3641076800013,512.3641076800013,513.9481397909985,513.9481397909985,513.987846510001,513.987846510001,513.987846510001,513.987846510001,513.987846510001,513.987846510001,513.987846510001,513.987846510001,513.987846510001,513.987846510001,513.987846510001,513.987846510001,513.987846510001,513.987846510001,513.987846510001,43,54,44,54,54,44,6.0,0.5070334049996745,,,[],[],[],[],[],[],[],-0.6,2,,,,,,,,,,,,[],[],[],[],[],[],[],,,,,None,None,517.0399368199978,518.8278057360003,516.4864918009989,516.4864918009989,516.4864918009989,516.4864918009989,516.4864918009989,,,,,,,,,,,,,,,,278,f,21,2023-04-04_16h27.31.907,RL,2022.2.4,59.56483693348153,
1,-0.3,-0.225,0,34,34,34,,,,,,,,,,None,518.8278057360003,518.8278057360003,518.8278057360003,518.8278057360003,518.8278057360003,518.8278057360003,r,0.32224518099974375,519.2012868860002,519.2012868860002,519.2012868860002,519.2012868860002,519.2012868860002,519.2012868860002,519.4676706120008,519.4676706120008,520.3053214469983,520.3053214469983,520.3450537950011,520.3450537950011,520.3450537950011,520.3450537950011,520.3450537950011,520.3450537950011,520.3450537950011,520.3450537950011,520.3450537950011,520.3450537950011,520.3450537950011,520.3450537950011,520.3450537950011,520.3450537950011,520.3450537950011,54,46,45,54,54,54,6.0,1.453846350999811,,,[],[],[],[],[],[],[],-0.2,3,,,,,,,,,,,,[],[],[],[],[],[],[],,,,,None,None,524.3477983390003,526.014383370999,522.8454546309986,522.8454546309986,522.8454546309986,522.8454546309986,522.8454546309986,,,,,,,,,,,,,,,,278,f,21,2023-04-04_16h27.31.907,RL,2022.2.4,59.56483693348153,
0,0.3,0.225,0,35,35,35,,,,,,,,,,None,526.014383370999,526.014383370999,526.014383370999,526.014383370999,526.014383370999,526.014383370999,i,0.5280904989995179,526.5832177839984,526.5832177839984,526.5832177839984,526.5832177839984,526.5832177839984,526.5832177839984,526.8539531579991,526.8539531579991,527.7735357099991,527.7735357099991,527.813586799999,527.813586799999,527.813586799999,527.813586799999,527.813586799999,527.813586799999,527.813586799999,527.813586799999,527.813586799999,527.813586799999,527.813586799999,527.813586799999,527.813586799999,527.813586799999,527.813586799999,54,48,56,60,56,56,6.0,0.8896314340017852,,,[],[],[],[],[],[],[],-0.6,2,,,,,,,,,,,,[],[],[],[],[],[],[],,,,,None,None,531.2508383109998,533.2494643200007,530.3111223259984,530.3111223259984,530.3111223259984,530.3111223259984,530.3111223259984,,,,,,,,,,,,,,,,278,f,21,2023-04-04_16h27.31.907,RL,2022.2.4,59.56483693348153,
1,-0.3,-0.225,0,36,36,36,,,,,,,,,,None,533.2494643200007,533.2494643200007,533.2494643200007,533.2494643200007,533.2494643200007,533.2494643200007,j,0.6488207029979094,533.9363984909978,533.9363984909978,533.9363984909978,533.9363984909978,533.9363984909978,533.9363984909978,534.206266363999,534.206266363999,536.0596057469993,536.0596057469993,536.1007135529981,536.1007135529981,536.1007135529981,536.1007135529981,536.1007135529981,536.1007135529981,536.1007135529981,536.1007135529981,536.1007135529981,536.1007135529981,536.1007135529981,536.1007135529981,536.1007135529981,536.1007135529981,536.1007135529981,53,55,48,54,54,55,6.0,0.9915366159984842,,,[],[],[],[],[],[],[],-0.6,2,,,,,,,,,,,,[],[],[],[],[],[],[],,,,,None,None,539.6489840260001,541.521199327999,538.6130926279984,538.6130926279984,538.6130926279984,538.6130926279984,538.6130926279984,,,,,,,,,,,,,,,,278,f,21,2023-04-04_16h27.31.907,RL,2022.2.4,59.56483693348153,
0,0.3,0.225,0,37,37,37,,,,,,,,,,None,541.521199327999,541.521199327999,541.521199327999,541.521199327999,541.521199327999,541.521199327999,f,0.4033677480001643,541.9747567049999,541.9747567049999,541.9747567049999,541.9747567049999,541.9747567049999,541.9747567049999,542.2415426849984,542.2415426849984,543.3504587870011,543.3504587870011,543.3903350849978,543.3903350849978,543.3903350849978,543.3903350849978,543.3903350849978,543.3903350849978,543.3903350849978,543.3903350849978,543.3903350849978,543.3903350849978,543.3903350849978,543.3903350849978,543.3903350849978,543.3903350849978,543.3903350849978,56,48,41,54,48,53,None,None,49,49,[-0.00875],[-0.31625],[1],[0],[0],[7.22434728799999],['tijiao'],0.6,0,,,,,,,,,,,,[],[],[],[],[],[],[],553.1634963569995,553.1634963569995,553.1634963569995,553.1634963569995,1.9625,2.1200295710004866,555.3050155870005,556.8288927280009,,,,,,545.9109431939978,545.9109431939978,545.9109431939978,545.9109431939978,545.9109431939978,545.9109431939978,545.9109431939978,545.9109431939978,0.009660476000135532,545.9109431939978,,,,,,278,f,21,2023-04-04_16h27.31.907,RL,2022.2.4,59.56483693348153,
1,-0.3,-0.225,0,38,38,38,,,,,,,,,,None,556.8288927280009,556.8288927280009,556.8288927280009,556.8288927280009,556.8288927280009,556.8288927280009,f,0.39789735800150083,557.2690346359996,557.2690346359996,557.2690346359996,557.2690346359996,557.2690346359996,557.2690346359996,557.5366047839998,557.5366047839998,559.2215220990001,559.2215220990001,559.2580203770012,559.2580203770012,559.2580203770012,559.2580203770012,559.2580203770012,559.2580203770012,559.2580203770012,559.2580203770012,559.2580203770012,559.2580203770012,559.2580203770012,559.2580203770012,559.2580203770012,559.2580203770012,559.2580203770012,60,56,48,56,56,36,None,None,56,56,[0.045],[-0.33125],[1],[0],[0],[6.60830297999928],['tijiao'],-0.2,0,,,,,,,,,,,,[],[],[],[],[],[],[],568.4224330920006,568.4224330920006,568.4224330920006,568.4224330920006,1.9749999999999996,3.802294081000582,572.2428113069982,573.7535853580011,,,,,,561.7843539120004,561.7843539120004,561.7843539120004,561.7843539120004,561.7843539120004,561.7843539120004,561.7843539120004,561.7843539120004,0.009038247000717092,561.7843539120004,,,,,,278,f,21,2023-04-04_16h27.31.907,RL,2022.2.4,59.56483693348153,
0,0.3,0.225,0,39,39,39,,,,,,,,,,None,573.7535853580011,573.7535853580011,573.7535853580011,573.7535853580011,573.7535853580011,573.7535853580011,f,0.5052615290005633,574.3067482519982,574.3067482519982,574.3067482519982,574.3067482519982,574.3067482519982,574.3067482519982,574.576929032999,574.576929032999,575.7942518199998,575.7942518199998,575.8174187000004,575.8174187000004,575.8174187000004,575.8174187000004,575.8174187000004,575.8174187000004,575.8174187000004,575.8174187000004,575.8174187000004,575.8174187000004,575.8174187000004,575.8174187000004,575.8174187000004,575.8174187000004,575.8174187000004,54,56,44,50,56,44,None,None,66,66,[0.02875],[-0.295],[1],[0],[0],[14.034175509998022],['tijiao'],-0.2,0,,,,,,,,,,,,[],[],[],[],[],[],[],592.402222061999,592.402222061999,592.402222061999,592.402222061999,2.975,4.974430890000804,597.3925247010011,598.9982743289984,,,,,,578.3396699330006,578.3396699330006,578.3396699330006,578.3396699330006,578.3396699330006,578.3396699330006,578.3396699330006,578.3396699330006,0.00912741700085462,578.3396699330006,,,,,,278,f,21,2023-04-04_16h27.31.907,RL,2022.2.4,59.56483693348153,
1,-0.3,-0.225,0,40,40,40,,,,,,,,,,None,598.9982743289984,598.9982743289984,598.9982743289984,598.9982743289984,598.9982743289984,598.9982743289984,f,0.3087818479980342,599.3528813550001,599.3528813550001,599.3528813550001,599.3528813550001,599.3528813550001,599.3528813550001,599.6206138480011,599.6206138480011,601.2341134019989,601.2341134019989,601.2772354490007,601.2772354490007,601.2772354490007,601.2772354490007,601.2772354490007,601.2772354490007,601.2772354490007,601.2772354490007,601.2772354490007,601.2772354490007,601.2772354490007,601.2772354490007,601.2772354490007,601.2772354490007,601.2772354490007,54,60,45,48,60,49,None,None,,,[],[],[],[],[],[],[],0.6,1,603.8079575009979,603.8079575009979,603.8079575009979,603.8079575009979,603.8079575009979,603.8079575009979,603.8079575009979,603.8079575009979,0.01009002499995404,603.8079575009979,58,[-0.05],[-0.29125],[1],[0],[0],[7.688899605000188],['tijiao_random_2'],611.5172618649995,611.5172618649995,611.5172618649995,611.5172618649995,2.05,5.213028681999276,616.7471052910005,618.5580015849991,,,,,,,,,,,,,,,,,,,,,278,f,21,2023-04-04_16h27.31.907,RL,2022.2.4,59.56483693348153,
0,0.3,0.225,0,41,41,41,,,,,,,,,,None,618.5580015849991,618.5580015849991,618.5580015849991,618.5580015849991,618.5580015849991,618.5580015849991,i,0.6794264300006034,619.2795259900013,619.2795259900013,619.2795259900013,619.2795259900013,619.2795259900013,619.2795259900013,619.5499182159983,619.5499182159983,621.0094804600012,621.0094804600012,621.0472150050009,621.0472150050009,621.0472150050009,621.0472150050009,621.0472150050009,621.0472150050009,621.0472150050009,621.0472150050009,621.0472150050009,621.0472150050009,621.0472150050009,621.0472150050009,621.0472150050009,621.0472150050009,621.0472150050009,53,55,45,49,45,59,5.0,6.24526145100026,,,[],[],[],[],[],[],[],-0.2,2,,,,,,,,,,,,[],[],[],[],[],[],[],,,,,None,None,629.8435961899995,631.7812425029988,623.5540101689985,623.5540101689985,623.5540101689985,623.5540101689985,623.5540101689985,,,,,,,,,,,,,,,,278,f,21,2023-04-04_16h27.31.907,RL,2022.2.4,59.56483693348153,
1,-0.3,-0.225,0,42,42,42,,,,,,,,,,None,631.7812425029988,631.7812425029988,631.7812425029988,631.7812425029988,631.7812425029988,631.7812425029988,f,0.32630320799944457,632.1552096179985,632.1552096179985,632.1552096179985,632.1552096179985,632.1552096179985,632.1552096179985,632.4381563349998,632.4381563349998,633.2760782639998,633.2760782639998,633.3002347590009,633.3002347590009,633.3002347590009,633.3002347590009,633.3002347590009,633.3002347590009,633.3002347590009,633.3002347590009,633.3002347590009,633.3002347590009,633.3002347590009,633.3002347590009,633.3002347590009,633.3002347590009,633.3002347590009,66,58,42,50,58,50,None,None,66,66,[0.02625],[-0.305],[1],[0],[0],[7.169326671999443],['tijiao'],-0.6,0,,,,,,,,,,,,[],[],[],[],[],[],[],643.0285129980002,643.0285129980002,643.0285129980002,643.0285129980002,1.9999999999999998,2.0364216170019063,645.0848145909986,646.8368215849987,,,,,,635.8271608869982,635.8271608869982,635.8271608869982,635.8271608869982,635.8271608869982,635.8271608869982,635.8271608869982,635.8271608869982,0.008665828998346115,635.8271608869982,,,,,,278,f,21,2023-04-04_16h27.31.907,RL,2022.2.4,59.56483693348153,
0,0.3,0.225,0,43,43,43,,,,,,,,,,None,646.8368215849987,646.8368215849987,646.8368215849987,646.8368215849987,646.8368215849987,646.8368215849987,f,0.2974214630012284,647.1750274330007,647.1750274330007,647.1750274330007,647.1750274330007,647.1750274330007,647.1750274330007,647.4446600629999,647.4446600629999,648.6941102119999,648.6941102119999,648.7349897929998,648.7349897929998,648.7349897929998,648.7349897929998,648.7349897929998,648.7349897929998,648.7349897929998,648.7349897929998,648.7349897929998,648.7349897929998,648.7349897929998,648.7349897929998,648.7349897929998,648.7349897929998,648.7349897929998,52,58,40,50,58,51,6.0,4.314657950002584,,,[],[],[],[],[],[],[],0.2,3,,,,,,,,,,,,[],[],[],[],[],[],[],,,,,None,None,655.6065771829999,657.5440636380008,651.244740140999,651.244740140999,651.244740140999,651.244740140999,651.244740140999,,,,,,,,,,,,,,,,278,f,21,2023-04-04_16h27.31.907,RL,2022.2.4,59.56483693348153,
1,-0.3,-0.225,0,44,44,44,,,,,,,,,,None,657.5440636380008,657.5440636380008,657.5440636380008,657.5440636380008,657.5440636380008,657.5440636380008,j,0.3753748160015675,657.969929242001,657.969929242001,657.969929242001,657.969929242001,657.969929242001,657.969929242001,658.2337047319998,658.2337047319998,659.20557758,659.20557758,659.2621539290012,659.2621539290012,659.2621539290012,659.2621539290012,659.2621539290012,659.2621539290012,659.2621539290012,659.2621539290012,659.2621539290012,659.2621539290012,659.2621539290012,659.2621539290012,659.2621539290012,659.2621539290012,659.2621539290012,54,60,42,49,49,51,5.0,3.8431568999985757,,,[],[],[],[],[],[],[],-0.2,3,,,,,,,,,,,,[],[],[],[],[],[],[],,,,,None,None,665.6652589679979,667.4316272449978,661.7726030900012,661.7726030900012,661.7726030900012,661.7726030900012,661.7726030900012,,,,,,,,,,,,,,,,278,f,21,2023-04-04_16h27.31.907,RL,2022.2.4,59.56483693348153,
0,0.3,0.225,0,45,45,45,,,,,,,,,,None,667.4316272449978,667.4316272449978,667.4316272449978,667.4316272449978,667.4316272449978,667.4316272449978,f,0.379095682001207,667.8556799229991,667.8556799229991,667.8556799229991,667.8556799229991,667.8556799229991,667.8556799229991,668.1375379509991,668.1375379509991,669.2892163899996,669.2892163899996,669.3150625960006,669.3150625960006,669.3150625960006,669.3150625960006,669.3150625960006,669.3150625960006,669.3150625960006,669.3150625960006,669.3150625960006,669.3150625960006,669.3150625960006,669.3150625960006,669.3150625960006,669.3150625960006,669.3150625960006,59,61,34,46,61,42,6.0,2.5947768770020048,,,[],[],[],[],[],[],[],-0.6,2,,,,,,,,,,,,[],[],[],[],[],[],[],,,,,None,None,674.4657477330002,676.0189953139998,671.823333848999,671.823333848999,671.823333848999,671.823333848999,671.823333848999,,,,,,,,,,,,,,,,278,f,21,2023-04-04_16h27.31.907,RL,2022.2.4,59.56483693348153,
1,-0.3,-0.225,0,46,46,46,,,,,,,,,,None,676.0189953139998,676.0189953139998,676.0189953139998,676.0189953139998,676.0189953139998,676.0189953139998,f,0.420094892000634,676.5035139489992,676.5035139489992,676.5035139489992,676.5035139489992,676.5035139489992,676.5035139489992,676.7642195589979,676.7642195589979,677.9875967709995,677.9875967709995,678.0312644340011,678.0312644340011,678.0312644340011,678.0312644340011,678.0312644340011,678.0312644340011,678.0312644340011,678.0312644340011,678.0312644340011,678.0312644340011,678.0312644340011,678.0312644340011,678.0312644340011,678.0312644340011,678.0312644340011,53,69,40,37,69,42,None,None,,,[],[],[],[],[],[],[],-0.2,1,680.5598620230012,680.5598620230012,680.5598620230012,680.5598620230012,680.5598620230012,680.5598620230012,680.5598620230012,680.5598620230012,0.010487993000424467,680.5598620230012,69,[0.05],[-0.30125],[1],[0],[0],[7.61169134499869],['tijiao_random_2'],688.1875182980002,688.1875182980002,688.1875182980002,688.1875182980002,3.0500000000000003,3.725697534999199,691.9317675460006,693.508047547999,,,,,,,,,,,,,,,,,,,,,278,f,21,2023-04-04_16h27.31.907,RL,2022.2.4,59.56483693348153,
0,0.3,0.225,0,47,47,47,,,,,,,,,,None,693.508047547999,693.508047547999,693.508047547999,693.508047547999,693.508047547999,693.508047547999,f,0.3084107300019241,693.8651612030008,693.8651612030008,693.8651612030008,693.8651612030008,693.8651612030008,693.8651612030008,694.1345162770012,694.1345162770012,695.3216405319981,695.3216405319981,695.3449121609992,695.3449121609992,695.3449121609992,695.3449121609992,695.3449121609992,695.3449121609992,695.3449121609992,695.3449121609992,695.3449121609992,695.3449121609992,695.3449121609992,695.3449121609992,695.3449121609992,695.3449121609992,695.3449121609992,53,66,35,55,66,44,None,None,,,[],[],[],[],[],[],[],-0.6,1,697.882965888999,697.882965888999,697.882965888999,697.882965888999,697.882965888999,697.882965888999,697.882965888999,697.882965888999,0.01078292699821759,697.882965888999,48,[-0.08],[-0.30875],[1],[0],[0],[5.724230922998686],['tijiao_random_2'],703.6267117749994,703.6267117749994,703.6267117749994,703.6267117749994,2.0375,3.7197720580006717,707.3663224119991,708.9993220010001,,,,,,,,,,,,,,,,,,,,,278,f,21,2023-04-04_16h27.31.907,RL,2022.2.4,59.56483693348153,
1,-0.3,-0.225,0,48,48,48,,,,,,,,,,None,708.9993220010001,708.9993220010001,708.9993220010001,708.9993220010001,708.9993220010001,708.9993220010001,f,0.3520405010021932,709.3882160020003,709.3882160020003,709.3882160020003,709.3882160020003,709.3882160020003,709.3882160020003,709.6568937039992,709.6568937039992,710.4906113180004,710.4906113180004,710.5305419260003,710.5305419260003,710.5305419260003,710.5305419260003,710.5305419260003,710.5305419260003,710.5305419260003,710.5305419260003,710.5305419260003,710.5305419260003,710.5305419260003,710.5305419260003,710.5305419260003,710.5305419260003,710.5305419260003,53,64,37,44,64,41,None,None,68,68,[0.0],[-0.315],[1],[0],[0],[9.33088704599868],['tijiao'],-0.2,0,,,,,,,,,,,,[],[],[],[],[],[],[],722.4055045759997,722.4055045759997,722.4055045759997,722.4055045759997,3.0250000000000004,1.7520799640005862,724.1781502570011,725.959373362999,,,,,,713.0457817489987,713.0457817489987,713.0457817489987,713.0457817489987,713.0457817489987,713.0457817489987,713.0457817489987,713.0457817489987,0.00859197199679329,713.0457817489987,,,,,,278,f,21,2023-04-04_16h27.31.907,RL,2022.2.4,59.56483693348153,
0,0.3,0.225,0,49,49,49,,,,,,,,,,None,725.959373362999,725.959373362999,725.959373362999,725.959373362999,725.959373362999,725.959373362999,f,0.38685639799950877,726.3859205459994,726.3859205459994,726.3859205459994,726.3859205459994,726.3859205459994,726.3859205459994,726.6652718969999,726.6652718969999,728.6358709929991,728.6358709929991,728.6600738089983,728.6600738089983,728.6600738089983,728.6600738089983,728.6600738089983,728.6600738089983,728.6600738089983,728.6600738089983,728.6600738089983,728.6600738089983,728.6600738089983,728.6600738089983,728.6600738089983,728.6600738089983,728.6600738089983,49,54,35,43,54,37,6.0,2.196411541000998,,,[],[],[],[],[],[],[],-0.6,3,,,,,,,,,,,,[],[],[],[],[],[],[],,,,,None,None,733.4134449880003,734.9782405789992,731.1675044129988,731.1675044129988,731.1675044129988,731.1675044129988,731.1675044129988,,,,,,,,,,,,,,,,278,f,21,2023-04-04_16h27.31.907,RL,2022.2.4,59.56483693348153,
1,-0.3,-0.225,0,50,50,50,,,,,,,,,,None,734.9782405789992,734.9782405789992,734.9782405789992,734.9782405789992,734.9782405789992,734.9782405789992,f,0.8787231189999147,735.8969176610008,735.8969176610008,735.8969176610008,735.8969176610008,735.8969176610008,735.8969176610008,736.1694796839984,736.1694796839984,737.4731528720004,737.4731528720004,737.5132478490013,737.5132478490013,737.5132478490013,737.5132478490013,737.5132478490013,737.5132478490013,737.5132478490013,737.5132478490013,737.5132478490013,737.5132478490013,737.5132478490013,737.5132478490013,737.5132478490013,737.5132478490013,737.5132478490013,52,57,36,44,57,54,6.0,2.293414241001301,,,[],[],[],[],[],[],[],-0.2,2,,,,,,,,,,,,[],[],[],[],[],[],[],,,,,None,None,742.3483381080005,743.8819687020004,740.0096761109999,740.0096761109999,740.0096761109999,740.0096761109999,740.0096761109999,,,,,,,,,,,,,,,,278,f,21,2023-04-04_16h27.31.907,RL,2022.2.4,59.56483693348153,
0,0.3,0.225,0,51,51,51,,,,,,,,,,None,743.8819687020004,743.8819687020004,743.8819687020004,743.8819687020004,743.8819687020004,743.8819687020004,f,0.6075882280019869,744.5400825270008,744.5400825270008,744.5400825270008,744.5400825270008,744.5400825270008,744.5400825270008,744.8072701439996,744.8072701439996,745.7718619160005,745.7718619160005,745.7958249189978,745.7958249189978,745.7958249189978,745.7958249189978,745.7958249189978,745.7958249189978,745.7958249189978,745.7958249189978,745.7958249189978,745.7958249189978,745.7958249189978,745.7958249189978,745.7958249189978,745.7958249189978,745.7958249189978,57,55,32,47,55,36,None,None,,,[],[],[],[],[],[],[],0.6,1,748.3210920169986,748.3210920169986,748.3210920169986,748.3210920169986,748.3210920169986,748.3210920169986,748.3210920169986,748.3210920169986,0.010025415002019145,748.3210920169986,38,[0.06375],[-0.28375],[1],[0],[0],[4.6438138259982225],['tijiao_random_2'],752.980700985001,752.980700985001,752.980700985001,752.980700985001,2.025,2.0192308240002603,755.0186466730011,756.5409846229995,,,,,,,,,,,,,,,,,,,,,278,f,21,2023-04-04_16h27.31.907,RL,2022.2.4,59.56483693348153,
1,-0.3,-0.225,0,52,52,52,,,,,,,,,,None,756.5409846229995,756.5409846229995,756.5409846229995,756.5409846229995,756.5409846229995,756.5409846229995,f,0.31660676899991813,756.9112599420005,756.9112599420005,756.9112599420005,756.9112599420005,756.9112599420005,756.9112599420005,757.1799685529986,757.1799685529986,758.9335778809982,758.9335778809982,758.9746866979985,758.9746866979985,758.9746866979985,758.9746866979985,758.9746866979985,758.9746866979985,758.9746866979985,758.9746866979985,758.9746866979985,758.9746866979985,758.9746866979985,758.9746866979985,758.9746866979985,758.9746866979985,758.9746866979985,48,62,35,55,62,47,None,None,68,68,[-0.02875],[-0.295],[1],[0],[0],[5.939660426000046],['tijiao'],0.2,0,,,,,,,,,,,,[],[],[],[],[],[],[],767.4682670949987,767.4682670949987,767.4682670949987,767.4682670949987,2.9375,1.330834856002184,768.8148064189991,770.346063858,,,,,,761.4963631770006,761.4963631770006,761.4963631770006,761.4963631770006,761.4963631770006,761.4963631770006,761.4963631770006,761.4963631770006,0.008928217997890897,761.4963631770006,,,,,,278,f,21,2023-04-04_16h27.31.907,RL,2022.2.4,59.56483693348153,
0,0.3,0.225,0,53,53,53,,,,,,,,,,None,770.346063858,770.346063858,770.346063858,770.346063858,770.346063858,770.346063858,f,0.36707572500017704,770.7685089529987,770.7685089529987,770.7685089529987,770.7685089529987,770.7685089529987,770.7685089529987,771.0364934270001,771.0364934270001,772.8830256939982,772.8830256939982,772.925582025,772.925582025,772.925582025,772.925582025,772.925582025,772.925582025,772.925582025,772.925582025,772.925582025,772.925582025,772.925582025,772.925582025,772.925582025,772.925582025,772.925582025,47,61,38,43,61,43,None,None,68,68,[-0.04125],[-0.31125],[1],[0],[0],[6.083847555997636],['tijiao'],0.2,0,,,,,,,,,,,,[],[],[],[],[],[],[],781.5598624070008,781.5598624070008,781.5598624070008,781.5598624070008,4.0125,1.745453360999818,783.3235864769995,785.1687755559979,,,,,,775.4439098319999,775.4439098319999,775.4439098319999,775.4439098319999,775.4439098319999,775.4439098319999,775.4439098319999,775.4439098319999,0.009163186001387658,775.4439098319999,,,,,,278,f,21,2023-04-04_16h27.31.907,RL,2022.2.4,59.56483693348153,
1,-0.3,-0.225,0,54,54,54,,,,,,,,,,None,785.1687755559979,785.1687755559979,785.1687755559979,785.1687755559979,785.1687755559979,785.1687755559979,f,0.2708535000019765,785.4910531700007,785.4910531700007,785.4910531700007,785.4910531700007,785.4910531700007,785.4910531700007,785.7599938079984,785.7599938079984,786.7951841670001,786.7951841670001,786.836665199,786.836665199,786.836665199,786.836665199,786.836665199,786.836665199,786.836665199,786.836665199,786.836665199,786.836665199,786.836665199,786.836665199,786.836665199,786.836665199,786.836665199,44,48,26,43,48,44,5.0,2.178106070998183,,,[],[],[],[],[],[],[],0.6,3,,,,,,,,,,,,[],[],[],[],[],[],[],,,,,None,None,791.5600279729988,793.3235041570006,789.3369358729979,789.3369358729979,789.3369358729979,789.3369358729979,789.3369358729979,,,,,,,,,,,,,,,,278,f,21,2023-04-04_16h27.31.907,RL,2022.2.4,59.56483693348153,
0,0.3,0.225,0,55,55,55,,,,,,,,,,None,793.3235041570006,793.3235041570006,793.3235041570006,793.3235041570006,793.3235041570006,793.3235041570006,f,0.36697778800225933,793.7441458709982,793.7441458709982,793.7441458709982,793.7441458709982,793.7441458709982,793.7441458709982,794.0169895590006,794.0169895590006,794.9544557679983,794.9544557679983,794.9746843409994,794.9746843409994,794.9746843409994,794.9746843409994,794.9746843409994,794.9746843409994,794.9746843409994,794.9746843409994,794.9746843409994,794.9746843409994,794.9746843409994,794.9746843409994,794.9746843409994,794.9746843409994,794.9746843409994,47,52,37,40,52,33,None,None,68,68,[-0.00375],[-0.3325],[1],[0],[0],[5.60062246200323],['tijiao'],0.2,0,,,,,,,,,,,,[],[],[],[],[],[],[],803.1390609449991,803.1390609449991,803.1390609449991,803.1390609449991,3.0124999999999997,1.8551894320007705,805.0108617599981,806.679108878001,,,,,,797.5052237290001,797.5052237290001,797.5052237290001,797.5052237290001,797.5052237290001,797.5052237290001,797.5052237290001,797.5052237290001,0.00851759800207219,797.5052237290001,,,,,,278,f,21,2023-04-04_16h27.31.907,RL,2022.2.4,59.56483693348153,
1,-0.3,-0.225,0,56,56,56,,,,,,,,,,None,806.679108878001,806.679108878001,806.679108878001,806.679108878001,806.679108878001,806.679108878001,f,0.3296430180016614,807.0598060459997,807.0598060459997,807.0598060459997,807.0598060459997,807.0598060459997,807.0598060459997,807.3371277059996,807.3371277059996,808.7655006249988,808.7655006249988,808.787436478,808.787436478,808.787436478,808.787436478,808.787436478,808.787436478,808.787436478,808.787436478,808.787436478,808.787436478,808.787436478,808.787436478,808.787436478,808.787436478,808.787436478,46,53,42,51,53,61,None,None,,,[],[],[],[],[],[],[],0.2,1,811.3256880949994,811.3256880949994,811.3256880949994,811.3256880949994,811.3256880949994,811.3256880949994,811.3256880949994,811.3256880949994,0.009835662000114098,811.3256880949994,48,[-0.0025],[-0.34625],[1],[0],[0],[6.43660381600057],['tijiao_random_2'],817.7773962259998,817.7773962259998,817.7773962259998,817.7773962259998,1.9625,2.5096838460012805,820.3085700789998,822.1207948449992,,,,,,,,,,,,,,,,,,,,,278,f,21,2023-04-04_16h27.31.907,RL,2022.2.4,59.56483693348153,
0,0.3,0.225,0,57,57,57,,,,,,,,,,None,822.1207948449992,822.1207948449992,822.1207948449992,822.1207948449992,822.1207948449992,822.1207948449992,i,0.34317054799976177,822.505594121998,822.505594121998,822.505594121998,822.505594121998,822.505594121998,822.505594121998,822.7799971089989,822.7799971089989,823.7613235130011,823.7613235130011,823.7836756629986,823.7836756629986,823.7836756629986,823.7836756629986,823.7836756629986,823.7836756629986,823.7836756629986,823.7836756629986,823.7836756629986,823.7836756629986,823.7836756629986,823.7836756629986,823.7836756629986,823.7836756629986,823.7836756629986,45,55,33,37,33,28,None,None,38,38,[-0.0525],[-0.345],[1],[0],[0],[8.51886056299918],['tijiao'],0.6,0,,,,,,,,,,,,[],[],[],[],[],[],[],834.8540319460008,834.8540319460008,834.8540319460008,834.8540319460008,2.025,2.0951522959985596,836.9670484320013,838.8291146789998,,,,,,826.3027631820005,826.3027631820005,826.3027631820005,826.3027631820005,826.3027631820005,826.3027631820005,826.3027631820005,826.3027631820005,0.008960201001173118,826.3027631820005,,,,,,278,f,21,2023-04-04_16h27.31.907,RL,2022.2.4,59.56483693348153,
1,-0.3,-0.225,0,58,58,58,,,,,,,,,,None,838.8291146789998,838.8291146789998,838.8291146789998,838.8291146789998,838.8291146789998,838.8291146789998,f,0.3108823879992997,839.1889576770009,839.1889576770009,839.1889576770009,839.1889576770009,839.1889576770009,839.1889576770009,839.4533198889985,839.4533198889985,840.6846082800002,840.6846082800002,840.7256203979996,840.7256203979996,840.7256203979996,840.7256203979996,840.7256203979996,840.7256203979996,840.7256203979996,840.7256203979996,840.7256203979996,840.7256203979996,840.7256203979996,840.7256203979996,840.7256203979996,840.7256203979996,840.7256203979996,48,62,30,40,62,55,None,None,68,68,[-0.00875],[-0.34125],[1],[0],[0],[4.704875915002049],['tijiao'],0.2,0,,,,,,,,,,,,[],[],[],[],[],[],[],847.9843522109986,847.9843522109986,847.9843522109986,847.9843522109986,2.8874999999999997,0.9814565039996523,848.9850474640007,850.7343996809977,,,,,,843.2467146550007,843.2467146550007,843.2467146550007,843.2467146550007,843.2467146550007,843.2467146550007,843.2467146550007,843.2467146550007,0.008957399000792066,843.2467146550007,,,,,,278,f,21,2023-04-04_16h27.31.907,RL,2022.2.4,59.56483693348153,
0,0.3,0.225,0,59,59,59,,,,,,,,,,None,850.7343996809977,850.7343996809977,850.7343996809977,850.7343996809977,850.7343996809977,850.7343996809977,f,0.35240313000031165,851.1245659209999,851.1245659209999,851.1245659209999,851.1245659209999,851.1245659209999,851.1245659209999,851.3930976279989,851.3930976279989,853.0355741710009,853.0355741710009,853.0551138049996,853.0551138049996,853.0551138049996,853.0551138049996,853.0551138049996,853.0551138049996,853.0551138049996,853.0551138049996,853.0551138049996,853.0551138049996,853.0551138049996,853.0551138049996,853.0551138049996,853.0551138049996,853.0551138049996,54,54,43,35,54,49,5.0,2.361461281998345,,,[],[],[],[],[],[],[],0.6,3,,,,,,,,,,,,[],[],[],[],[],[],[],,,,,None,None,857.975165019001,859.9707366069997,855.5690059400004,855.5690059400004,855.5690059400004,855.5690059400004,855.5690059400004,,,,,,,,,,,,,,,,278,f,21,2023-04-04_16h27.31.907,RL,2022.2.4,59.56483693348153,
1,-0.3,-0.225,0,60,60,60,,,,,,,,,,None,859.9707366069997,859.9707366069997,859.9707366069997,859.9707366069997,859.9707366069997,859.9707366069997,f,0.356827796997095,860.3766427500013,860.3766427500013,860.3766427500013,860.3766427500013,860.3766427500013,860.3766427500013,860.6453177809999,860.6453177809999,862.0675363349983,862.0675363349983,862.1036797960005,862.1036797960005,862.1036797960005,862.1036797960005,862.1036797960005,862.1036797960005,862.1036797960005,862.1036797960005,862.1036797960005,862.1036797960005,862.1036797960005,862.1036797960005,862.1036797960005,862.1036797960005,862.1036797960005,47,61,40,41,61,61,6.0,1.6114687789995514,,,[],[],[],[],[],[],[],-0.2,3,,,,,,,,,,,,[],[],[],[],[],[],[],,,,,None,None,866.2666937799986,868.0096944569996,864.6109573739996,864.6109573739996,864.6109573739996,864.6109573739996,864.6109573739996,,,,,,,,,,,,,,,,278,f,21,2023-04-04_16h27.31.907,RL,2022.2.4,59.56483693348153,
0,0.3,0.225,0,61,61,61,,,,,,,,,,None,868.0096944569996,868.0096944569996,868.0096944569996,868.0096944569996,868.0096944569996,868.0096944569996,f,0.5733060929997009,868.628635746998,868.628635746998,868.628635746998,868.628635746998,868.628635746998,868.628635746998,868.8992958009985,868.8992958009985,870.05479337,870.05479337,870.078437764998,870.078437764998,870.078437764998,870.078437764998,870.078437764998,870.078437764998,870.078437764998,870.078437764998,870.078437764998,870.078437764998,870.078437764998,870.078437764998,870.078437764998,870.078437764998,870.078437764998,44,53,42,44,53,61,5.0,3.264590541999496,,,[],[],[],[],[],[],[],0.2,2,,,,,,,,,,,,[],[],[],[],[],[],[],,,,,None,None,875.8884407459991,877.6635766399995,872.5788036640006,872.5788036640006,872.5788036640006,872.5788036640006,872.5788036640006,,,,,,,,,,,,,,,,278,f,21,2023-04-04_16h27.31.907,RL,2022.2.4,59.56483693348153,
1,-0.3,-0.225,0,62,62,62,,,,,,,,,,None,877.6635766399995,877.6635766399995,877.6635766399995,877.6635766399995,877.6635766399995,877.6635766399995,f,0.3749958210028126,878.085397603998,878.085397603998,878.085397603998,878.085397603998,878.085397603998,878.085397603998,878.3541967759993,878.3541967759993,879.8558540820013,879.8558540820013,879.8939918489996,879.8939918489996,879.8939918489996,879.8939918489996,879.8939918489996,879.8939918489996,879.8939918489996,879.8939918489996,879.8939918489996,879.8939918489996,879.8939918489996,879.8939918489996,879.8939918489996,879.8939918489996,879.8939918489996,44,58,46,44,58,52,6.0,1.8211964420006552,,,[],[],[],[],[],[],[],-0.6,3,,,,,,,,,,,,[],[],[],[],[],[],[],,,,,None,None,884.2721468460004,886.0338754590011,882.4065738879981,882.4065738879981,882.4065738879981,882.4065738879981,882.4065738879981,,,,,,,,,,,,,,,,278,f,21,2023-04-04_16h27.31.907,RL,2022.2.4,59.56483693348153,
0,0.3,0.225,0,63,63,63,,,,,,,,,,None,886.0338754590011,886.0338754590011,886.0338754590011,886.0338754590011,886.0338754590011,886.0338754590011,f,0.31134208499861415,886.389156923,886.389156923,886.389156923,886.389156923,886.389156923,886.389156923,886.6580676619997,886.6580676619997,888.6469234840006,888.6469234840006,888.6866585079988,888.6866585079988,888.6866585079988,888.6866585079988,888.6866585079988,888.6866585079988,888.6866585079988,888.6866585079988,888.6866585079988,888.6866585079988,888.6866585079988,888.6866585079988,888.6866585079988,888.6866585079988,888.6866585079988,44,52,40,47,52,42,6.0,1.1739575879983022,,,[],[],[],[],[],[],[],-0.2,3,,,,,,,,,,,,[],[],[],[],[],[],[],,,,,None,None,892.4055562709982,894.3054770400013,891.1888009530012,891.1888009530012,891.1888009530012,891.1888009530012,891.1888009530012,,,,,,,,,,,,,,,,278,f,21,2023-04-04_16h27.31.907,RL,2022.2.4,59.56483693348153,
1,-0.3,-0.225,0,64,64,64,,,,,,,,,,None,894.3054770400013,894.3054770400013,894.3054770400013,894.3054770400013,894.3054770400013,894.3054770400013,f,0.3428104830018128,894.6911847640004,894.6911847640004,894.6911847640004,894.6911847640004,894.6911847640004,894.6911847640004,894.9618947189992,894.9618947189992,896.8342504539978,896.8342504539978,896.8754016839994,896.8754016839994,896.8754016839994,896.8754016839994,896.8754016839994,896.8754016839994,896.8754016839994,896.8754016839994,896.8754016839994,896.8754016839994,896.8754016839994,896.8754016839994,896.8754016839994,896.8754016839994,896.8754016839994,45,51,32,54,51,54,6.0,0.7380060850009613,,,[],[],[],[],[],[],[],0.2,3,,,,,,,,,,,,[],[],[],[],[],[],[],,,,,None,None,900.161272131998,902.1096459219989,899.3797091119995,899.3797091119995,899.3797091119995,899.3797091119995,899.3797091119995,,,,,,,,,,,,,,,,278,f,21,2023-04-04_16h27.31.907,RL,2022.2.4,59.56483693348153,
0,0.3,0.225,0,65,65,65,,,,,,,,,,None,902.1096459219989,902.1096459219989,902.1096459219989,902.1096459219989,902.1096459219989,902.1096459219989,j,0.38891473100011353,902.5491378789993,902.5491378789993,902.5491378789993,902.5491378789993,902.5491378789993,902.5491378789993,902.8142012200005,902.8142012200005,904.0356347939996,904.0356347939996,904.0752496249988,904.0752496249988,904.0752496249988,904.0752496249988,904.0752496249988,904.0752496249988,904.0752496249988,904.0752496249988,904.0752496249988,904.0752496249988,904.0752496249988,904.0752496249988,904.0752496249988,904.0752496249988,904.0752496249988,52,60,43,44,44,50,None,None,,,[],[],[],[],[],[],[],-0.6,1,906.6144072339994,906.6144072339994,906.6144072339994,906.6144072339994,906.6144072339994,906.6144072339994,906.6144072339994,906.6144072339994,0.009825515000557061,906.6144072339994,48,[0.125],[-0.2925],[1],[0],[0],[4.378950173999328],['tijiao_random_2'],911.0138441159979,911.0138441159979,911.0138441159979,911.0138441159979,1.9625,1.4663433999994595,912.5003544829997,914.2319490349983,,,,,,,,,,,,,,,,,,,,,278,f,21,2023-04-04_16h27.31.907,RL,2022.2.4,59.56483693348153,
1,-0.3,-0.225,0,66,66,66,,,,,,,,,,None,914.2319490349983,914.2319490349983,914.2319490349983,914.2319490349983,914.2319490349983,914.2319490349983,f,0.8001918039990414,915.0865022520011,915.0865022520011,915.0865022520011,915.0865022520011,915.0865022520011,915.0865022520011,915.3569131840013,915.3569131840013,917.2112577480002,917.2112577480002,917.25133327,917.25133327,917.25133327,917.25133327,917.25133327,917.25133327,917.25133327,917.25133327,917.25133327,917.25133327,917.25133327,917.25133327,917.25133327,917.25133327,917.25133327,40,53,43,52,53,46,None,None,68,68,"[0.03375, 0.0175]","[-0.3725, -0.2975]","[1, 1]","[0, 0]","[0, 0]","[5.4155264729997725, 6.266387718998885]",['tijiao'],-0.2,0,,,,,,,,,,,,[],[],[],[],[],[],[],926.0762626120013,926.0762626120013,926.0762626120013,926.0762626120013,2.5,1.7695695130023523,927.863898435,929.7392438339994,,,,,,919.7790200589989,919.7790200589989,919.7790200589989,919.7790200589989,919.7790200589989,919.7790200589989,919.7790200589989,919.7790200589989,0.008684361997438828,919.7790200589989,,,,,,278,f,21,2023-04-04_16h27.31.907,RL,2022.2.4,59.56483693348153,
0,0.3,0.225,0,67,67,67,,,,,,,,,,None,929.7392438339994,929.7392438339994,929.7392438339994,929.7392438339994,929.7392438339994,929.7392438339994,f,0.4660626380027679,930.2620479039979,930.2620479039979,930.2620479039979,930.2620479039979,930.2620479039979,930.2620479039979,930.5286515929984,930.5286515929984,931.8466039669984,931.8466039669984,931.8840477589983,931.8840477589983,931.8840477589983,931.8840477589983,931.8840477589983,931.8840477589983,931.8840477589983,931.8840477589983,931.8840477589983,931.8840477589983,931.8840477589983,931.8840477589983,931.8840477589983,931.8840477589983,931.8840477589983,45,58,46,48,58,59,None,None,68,68,"[-0.01375, -0.02875]","[-0.355, -0.3125]","[1, 1]","[0, 0]","[0, 0]","[4.756879261003633, 5.6159632290000445]",['tijiao'],0.2,0,,,,,,,,,,,,[],[],[],[],[],[],[],940.0645826559994,940.0645826559994,940.0645826559994,940.0645826559994,2.0375,1.6584747829983826,941.738584671999,943.5613240620005,,,,,,934.4172378129988,934.4172378129988,934.4172378129988,934.4172378129988,934.4172378129988,934.4172378129988,934.4172378129988,934.4172378129988,0.009039060998475179,934.4172378129988,,,,,,278,f,21,2023-04-04_16h27.31.907,RL,2022.2.4,59.56483693348153,
1,-0.3,-0.225,0,68,68,68,,,,,,,,,,None,943.5613240620005,943.5613240620005,943.5613240620005,943.5613240620005,943.5613240620005,943.5613240620005,f,0.690328214001056,944.3053016119993,944.3053016119993,944.3053016119993,944.3053016119993,944.3053016119993,944.3053016119993,944.5703186600003,944.5703186600003,946.4806266080013,946.4806266080013,946.520043864999,946.520043864999,946.520043864999,946.520043864999,946.520043864999,946.520043864999,946.520043864999,946.520043864999,946.520043864999,946.520043864999,946.520043864999,946.520043864999,946.520043864999,946.520043864999,946.520043864999,55,56,48,47,56,51,None,None,68,68,[-0.135],[-0.26125],[1],[0],[0],[4.7046044140006416],['tijiao'],0.6,0,,,,,,,,,,,,[],[],[],[],[],[],[],953.7730002489989,953.7730002489989,953.7730002489989,953.7730002489989,2.375,1.2735330520008574,955.0623123699988,956.6341606759997,,,,,,949.035818725999,949.035818725999,949.035818725999,949.035818725999,949.035818725999,949.035818725999,949.035818725999,949.035818725999,0.00909467100063921,949.035818725999,,,,,,278,f,21,2023-04-04_16h27.31.907,RL,2022.2.4,59.56483693348153,
0,0.3,0.225,0,69,69,69,,,,,,,,,,None,956.6341606759997,956.6341606759997,956.6341606759997,956.6341606759997,956.6341606759997,956.6341606759997,f,0.4551822609973897,957.1407845379981,957.1407845379981,957.1407845379981,957.1407845379981,957.1407845379981,957.1407845379981,957.4095620939988,957.4095620939988,958.9294170239991,958.9294170239991,958.9526753669998,958.9526753669998,958.9526753669998,958.9526753669998,958.9526753669998,958.9526753669998,958.9526753669998,958.9526753669998,958.9526753669998,958.9526753669998,958.9526753669998,958.9526753669998,958.9526753669998,958.9526753669998,958.9526753669998,46,57,41,49,57,61,6.0,2.098566614000447,,,[],[],[],[],[],[],[],0.6,2,,,,,,,,,,,,[],[],[],[],[],[],[],,,,,None,None,963.5910080430003,965.2723081629993,961.4491530480009,961.4491530480009,961.4491530480009,961.4491530480009,961.4491530480009,,,,,,,,,,,,,,,,278,f,21,2023-04-04_16h27.31.907,RL,2022.2.4,59.56483693348153,
1,-0.3,-0.225,0,70,70,70,,,,,,,,,,None,965.2723081629993,965.2723081629993,965.2723081629993,965.2723081629993,965.2723081629993,965.2723081629993,f,0.312938799001131,965.6241870810009,965.6241870810009,965.6241870810009,965.6241870810009,965.6241870810009,965.6241870810009,965.8957257740003,965.8957257740003,967.631082721,967.631082721,967.6686500110009,967.6686500110009,967.6686500110009,967.6686500110009,967.6686500110009,967.6686500110009,967.6686500110009,967.6686500110009,967.6686500110009,967.6686500110009,967.6686500110009,967.6686500110009,967.6686500110009,967.6686500110009,967.6686500110009,44,67,35,49,67,50,6.0,1.0428384160004498,,,[],[],[],[],[],[],[],0.2,2,,,,,,,,,,,,[],[],[],[],[],[],[],,,,,None,None,971.2604492540013,972.9597258149988,970.1667459540004,970.1667459540004,970.1667459540004,970.1667459540004,970.1667459540004,,,,,,,,,,,,,,,,278,f,21,2023-04-04_16h27.31.907,RL,2022.2.4,59.56483693348153,
0,0.3,0.225,0,71,71,71,,,,,,,,,,None,972.9597258149988,972.9597258149988,972.9597258149988,972.9597258149988,972.9597258149988,972.9597258149988,f,0.33419968300222536,973.3338495999997,973.3338495999997,973.3338495999997,973.3338495999997,973.3338495999997,973.3338495999997,973.6009350130007,973.6009350130007,975.0627851579993,975.0627851579993,975.0849986360008,975.0849986360008,975.0849986360008,975.0849986360008,975.0849986360008,975.0849986360008,975.0849986360008,975.0849986360008,975.0849986360008,975.0849986360008,975.0849986360008,975.0849986360008,975.0849986360008,975.0849986360008,975.0849986360008,45,64,41,42,64,43,6.0,0.8896812649982166,,,[],[],[],[],[],[],[],-0.6,3,,,,,,,,,,,,[],[],[],[],[],[],[],,,,,None,None,978.5317993030003,980.1802079839981,977.598755922998,977.598755922998,977.598755922998,977.598755922998,977.598755922998,,,,,,,,,,,,,,,,278,f,21,2023-04-04_16h27.31.907,RL,2022.2.4,59.56483693348153,
1,-0.3,-0.225,0,72,72,72,,,,,,,,,,None,980.1802079839981,980.1802079839981,980.1802079839981,980.1802079839981,980.1802079839981,980.1802079839981,f,0.3243161610007519,980.5560060259995,980.5560060259995,980.5560060259995,980.5560060259995,980.5560060259995,980.5560060259995,980.836017493999,980.836017493999,982.3880048169995,982.3880048169995,982.4099585879994,982.4099585879994,982.4099585879994,982.4099585879994,982.4099585879994,982.4099585879994,982.4099585879994,982.4099585879994,982.4099585879994,982.4099585879994,982.4099585879994,982.4099585879994,982.4099585879994,982.4099585879994,982.4099585879994,36,69,41,44,69,46,6.0,0.9097787300015625,,,[],[],[],[],[],[],[],0.2,2,,,,,,,,,,,,[],[],[],[],[],[],[],,,,,None,None,985.8705043560003,987.5327676050001,984.9166211099982,984.9166211099982,984.9166211099982,984.9166211099982,984.9166211099982,,,,,,,,,,,,,,,,278,f,21,2023-04-04_16h27.31.907,RL,2022.2.4,59.56483693348153,
0,0.3,0.225,0,73,73,73,,,,,,,,,,None,987.5327676050001,987.5327676050001,987.5327676050001,987.5327676050001,987.5327676050001,987.5327676050001,f,0.313518118000502,987.8912266369989,987.8912266369989,987.8912266369989,987.8912266369989,987.8912266369989,987.8912266369989,988.1579160129986,988.1579160129986,989.0591161730008,989.0591161730008,989.0995695450001,989.0995695450001,989.0995695450001,989.0995695450001,989.0995695450001,989.0995695450001,989.0995695450001,989.0995695450001,989.0995695450001,989.0995695450001,989.0995695450001,989.0995695450001,989.0995695450001,989.0995695450001,989.0995695450001,31,66,39,38,66,56,6.0,1.0783272839980782,,,[],[],[],[],[],[],[],0.6,3,,,,,,,,,,,,[],[],[],[],[],[],[],,,,,None,None,992.7175853939989,994.670088805,991.5976850080006,991.5976850080006,991.5976850080006,991.5976850080006,991.5976850080006,,,,,,,,,,,,,,,,278,f,21,2023-04-04_16h27.31.907,RL,2022.2.4,59.56483693348153,
1,-0.3,-0.225,0,74,74,74,,,,,,,,,,None,994.670088805,994.670088805,994.670088805,994.670088805,994.670088805,994.670088805,f,0.3737790179984586,995.095407629,995.095407629,995.095407629,995.095407629,995.095407629,995.095407629,995.3595553080013,995.3595553080013,996.8309245540004,996.8309245540004,996.870786659998,996.870786659998,996.870786659998,996.870786659998,996.870786659998,996.870786659998,996.870786659998,996.870786659998,996.870786659998,996.870786659998,996.870786659998,996.870786659998,996.870786659998,996.870786659998,996.870786659998,33,77,51,35,77,51,6.0,0.7489961399987806,,,[],[],[],[],[],[],[],-0.6,3,,,,,,,,,,,,[],[],[],[],[],[],[],,,,,None,None,1000.1763863150009,1001.937194711998,999.3812462409987,999.3812462409987,999.3812462409987,999.3812462409987,999.3812462409987,,,,,,,,,,,,,,,,278,f,21,2023-04-04_16h27.31.907,RL,2022.2.4,59.56483693348153,
0,0.3,0.225,0,75,75,75,,,,,,,,,,q,1070.1600347870008,1070.1600347870008,1070.1600347870008,1070.1600347870008,1070.1600347870008,1070.1600347870008,f,0.7826737249997677,1070.9945807879994,1070.9945807879994,1070.9945807879994,1070.9945807879994,1070.9945807879994,1070.9945807879994,1071.2626937179994,1071.2626937179994,1072.7574841159985,1072.7574841159985,1072.7991115699988,1072.7991115699988,1072.7991115699988,1072.7991115699988,1072.7991115699988,1072.7991115699988,1072.7991115699988,1072.7991115699988,1072.7991115699988,1072.7991115699988,1072.7991115699988,1072.7991115699988,1072.7991115699988,1072.7991115699988,1072.7991115699988,43,66,41,41,66,48,None,None,68,68,[0.07125],[-0.315],[1],[0],[0],[4.4403081519994885],['tijiao'],-0.6,0,,,,,,,,,,,,[],[],[],[],[],[],[],1079.7956069309985,1079.7956069309985,1079.7956069309985,1079.7956069309985,3.2249999999999996,1.0794392099996912,1080.891870129999,1082.462157940001,,,,,,1075.3200807249996,1075.3200807249996,1075.3200807249996,1075.3200807249996,1075.3200807249996,1075.3200807249996,1075.3200807249996,1075.3200807249996,0.009362953998788726,1075.3200807249996,,,1001.937194711998,1001.937194711998,68.18472170599853,278,f,21,2023-04-04_16h27.31.907,RL,2022.2.4,59.56483693348153,
1,-0.3,-0.225,0,76,76,76,,,,,,,,,,None,1082.462157940001,1082.462157940001,1082.462157940001,1082.462157940001,1082.462157940001,1082.462157940001,f,0.40763907300060964,1082.916349176001,1082.916349176001,1082.916349176001,1082.916349176001,1082.916349176001,1082.916349176001,1083.1872703339977,1083.1872703339977,1084.5861302919984,1084.5861302919984,1084.612370969,1084.612370969,1084.612370969,1084.612370969,1084.612370969,1084.612370969,1084.612370969,1084.612370969,1084.612370969,1084.612370969,1084.612370969,1084.612370969,1084.612370969,1084.612370969,1084.612370969,39,70,43,33,70,32,None,None,,,[],[],[],[],[],[],[],-0.6,1,1087.1375168449995,1087.1375168449995,1087.1375168449995,1087.1375168449995,1087.1375168449995,1087.1375168449995,1087.1375168449995,1087.1375168449995,0.01004842899783398,1087.1375168449995,48,[-0.0375],[-0.34],[1],[0],[0],[4.008007445998373],['tijiao_random_2'],1091.1658241929981,1091.1658241929981,1091.1658241929981,1091.1658241929981,1.9125,1.9170209449985123,1093.1013679099997,1094.667422472001,,,,,,,,,,,,,,,,,,,,,278,f,21,2023-04-04_16h27.31.907,RL,2022.2.4,59.56483693348153,
0,0.3,0.225,0,77,77,77,,,,,,,,,,None,1094.667422472001,1094.667422472001,1094.667422472001,1094.667422472001,1094.667422472001,1094.667422472001,f,0.4160305109980982,1095.124949604,1095.124949604,1095.124949604,1095.124949604,1095.124949604,1095.124949604,1095.3913788909995,1095.3913788909995,1096.909782177001,1096.909782177001,1096.9465650759994,1096.9465650759994,1096.9465650759994,1096.9465650759994,1096.9465650759994,1096.9465650759994,1096.9465650759994,1096.9465650759994,1096.9465650759994,1096.9465650759994,1096.9465650759994,1096.9465650759994,1096.9465650759994,1096.9465650759994,1096.9465650759994,40,71,49,40,71,52,None,None,,,[],[],[],[],[],[],[],0.6,1,1099.4788404379979,1099.4788404379979,1099.4788404379979,1099.4788404379979,1099.4788404379979,1099.4788404379979,1099.4788404379979,1099.4788404379979,0.01012165000065579,1099.4788404379979,38,[0.0925],[-0.27375],[1],[0],[0],[4.760029566998128],['tijiao_random_2'],1104.2568726040008,1104.2568726040008,1104.2568726040008,1104.2568726040008,1.9875,2.0834154510012013,1106.360249551999,1107.9720770249987,,,,,,,,,,,,,,,,,,,,,278,f,21,2023-04-04_16h27.31.907,RL,2022.2.4,59.56483693348153,
1,-0.3,-0.225,0,78,78,78,,,,,,,,,,None,1107.9720770249987,1107.9720770249987,1107.9720770249987,1107.9720770249987,1107.9720770249987,1107.9720770249987,f,0.36510086999987834,1108.376659464,1108.376659464,1108.376659464,1108.376659464,1108.376659464,1108.376659464,1108.6479873219978,1108.6479873219978,1110.0847710919988,1110.0847710919988,1110.108187490001,1110.108187490001,1110.108187490001,1110.108187490001,1110.108187490001,1110.108187490001,1110.108187490001,1110.108187490001,1110.108187490001,1110.108187490001,1110.108187490001,1110.108187490001,1110.108187490001,1110.108187490001,1110.108187490001,44,73,51,36,73,52,None,None,,,[],[],[],[],[],[],[],-0.6,1,1112.634638599,1112.634638599,1112.634638599,1112.634638599,1112.634638599,1112.634638599,1112.634638599,1112.634638599,0.009856221000518417,1112.634638599,48,[0.0575],[-0.315],[1],[0],[0],[5.01078372199845],['tijiao_random_2'],1117.6625297559985,1117.6625297559985,1117.6625297559985,1117.6625297559985,3.625,4.293366179001168,1121.9739245899982,1123.7129557939988,,,,,,,,,,,,,,,,,,,,,278,f,21,2023-04-04_16h27.31.907,RL,2022.2.4,59.56483693348153,
0,0.3,0.225,0,79,79,79,,,,,,,,,,None,1123.7129557939988,1123.7129557939988,1123.7129557939988,1123.7129557939988,1123.7129557939988,1123.7129557939988,f,0.2786916279983416,1124.0341561319983,1124.0341561319983,1124.0341561319983,1124.0341561319983,1124.0341561319983,1124.0341561319983,1124.304351873001,1124.304351873001,1125.5589521580005,1125.5589521580005,1125.599366352999,1125.599366352999,1125.599366352999,1125.599366352999,1125.599366352999,1125.599366352999,1125.599366352999,1125.599366352999,1125.599366352999,1125.599366352999,1125.599366352999,1125.599366352999,1125.599366352999,1125.599366352999,1125.599366352999,31,70,46,33,70,60,None,None,,,[],[],[],[],[],[],[],-0.6,1,1128.1296254090012,1128.1296254090012,1128.1296254090012,1128.1296254090012,1128.1296254090012,1128.1296254090012,1128.1296254090012,1128.1296254090012,0.009961399999156129,1128.1296254090012,48,"[-0.06625, -0.00875]","[-0.22375, -0.325]","[1, 1]","[0, 0]","[0, 0]","[2.948535652998544, 4.037849737000215]",['tijiao_random_2'],1132.181867029998,1132.181867029998,1132.181867029998,1132.181867029998,2.675,1.569393988000229,1133.7731662939987,1135.3028056660005,,,,,,,,,,,,,,,,,,,,,278,f,21,2023-04-04_16h27.31.907,RL,2022.2.4,59.56483693348153,
1,-0.3,-0.225,0,80,80,80,,,,,,,,,,None,1135.3028056660005,1135.3028056660005,1135.3028056660005,1135.3028056660005,1135.3028056660005,1135.3028056660005,f,0.26901199799976894,1135.6237153190013,1135.6237153190013,1135.6237153190013,1135.6237153190013,1135.6237153190013,1135.6237153190013,1135.893836911,1135.893836911,1137.4461715830003,1137.4461715830003,1137.4868727270004,1137.4868727270004,1137.4868727270004,1137.4868727270004,1137.4868727270004,1137.4868727270004,1137.4868727270004,1137.4868727270004,1137.4868727270004,1137.4868727270004,1137.4868727270004,1137.4868727270004,1137.4868727270004,1137.4868727270004,1137.4868727270004,28,67,49,37,67,38,None,None,,,[],[],[],[],[],[],[],0.2,1,1140.0090011339998,1140.0090011339998,1140.0090011339998,1140.0090011339998,1140.0090011339998,1140.0090011339998,1140.0090011339998,1140.0090011339998,0.009814228000323055,1140.0090011339998,48,[-0.03375],[-0.29375],[1],[0],[0],[4.287359502999607],['tijiao_random_2'],1144.314649486998,1144.314649486998,1144.314649486998,1144.314649486998,3.95,2.4028468650030845,1146.7355226799991,1148.709792638001,,,,,,,,,,,,,,,,,,,,,278,f,21,2023-04-04_16h27.31.907,RL,2022.2.4,59.56483693348153,
0,0.3,0.225,0,81,81,81,,,,,,,,,,None,1148.709792638001,1148.709792638001,1148.709792638001,1148.709792638001,1148.709792638001,1148.709792638001,f,0.3006426489992009,1149.0477537750012,1149.0477537750012,1149.0477537750012,1149.0477537750012,1149.0477537750012,1149.0477537750012,1149.3164036790004,1149.3164036790004,1150.618227422001,1150.618227422001,1150.6583629019988,1150.6583629019988,1150.6583629019988,1150.6583629019988,1150.6583629019988,1150.6583629019988,1150.6583629019988,1150.6583629019988,1150.6583629019988,1150.6583629019988,1150.6583629019988,1150.6583629019988,1150.6583629019988,1150.6583629019988,1150.6583629019988,39,72,51,32,72,41,None,None,,,[],[],[],[],[],[],[],0.6,1,1153.1868398219995,1153.1868398219995,1153.1868398219995,1153.1868398219995,1153.1868398219995,1153.1868398219995,1153.1868398219995,1153.1868398219995,0.009835093002038775,1153.1868398219995,48,"[0.03, 0.0, 0.0025, 0.02625]","[-0.40875, -0.2825, -0.2825, -0.34875]","[1, 1, 1, 1]","[0, 0, 0, 0]","[0, 0, 0, 0]","[4.385654260000592, 6.454573576000257, 6.946196531000169, 8.618356547001895]",['tijiao_random_2'],1161.8221938630013,1161.8221938630013,1161.8221938630013,1161.8221938630013,2.6999999999999997,1.6264280420000432,1163.4672218640007,1165.4326992300012,,,,,,,,,,,,,,,,,,,,,278,f,21,2023-04-04_16h27.31.907,RL,2022.2.4,59.56483693348153,
1,-0.3,-0.225,0,82,82,82,,,,,,,,,,None,1165.4326992300012,1165.4326992300012,1165.4326992300012,1165.4326992300012,1165.4326992300012,1165.4326992300012,f,0.28840826600207947,1165.7724428149995,1165.7724428149995,1165.7724428149995,1165.7724428149995,1165.7724428149995,1165.7724428149995,1166.0399367110003,1166.0399367110003,1167.42702336,1167.42702336,1167.466398509001,1167.466398509001,1167.466398509001,1167.466398509001,1167.466398509001,1167.466398509001,1167.466398509001,1167.466398509001,1167.466398509001,1167.466398509001,1167.466398509001,1167.466398509001,1167.466398509001,1167.466398509001,1167.466398509001,39,67,52,32,67,44,6.0,2.572945265997987,,,[],[],[],[],[],[],[],-0.2,2,,,,,,,,,,,,[],[],[],[],[],[],[],,,,,None,None,1172.5932949169983,1174.2211528279986,1169.976575124998,1169.976575124998,1169.976575124998,1169.976575124998,1169.976575124998,,,,,,,,,,,,,,,,278,f,21,2023-04-04_16h27.31.907,RL,2022.2.4,59.56483693348153,
0,0.3,0.225,0,83,83,83,,,,,,,,,,None,1174.2211528279986,1174.2211528279986,1174.2211528279986,1174.2211528279986,1174.2211528279986,1174.2211528279986,f,0.31983418199888547,1174.592578658001,1174.592578658001,1174.592578658001,1174.592578658001,1174.592578658001,1174.592578658001,1174.8610568779986,1174.8610568779986,1175.908786,1175.908786,1175.950305137998,1175.950305137998,1175.950305137998,1175.950305137998,1175.950305137998,1175.950305137998,1175.950305137998,1175.950305137998,1175.950305137998,1175.950305137998,1175.950305137998,1175.950305137998,1175.950305137998,1175.950305137998,1175.950305137998,34,66,51,40,66,44,None,None,66,66,[0.06],[-0.27875],[1],[0],[0],[5.049666889997752],['tijiao'],0.6,0,,,,,,,,,,,,[],[],[],[],[],[],[],1183.5615779809996,1183.5615779809996,1183.5615779809996,1183.5615779809996,3.9749999999999996,2.6806989340002474,1186.2562051979985,1188.2121073339986,,,,,,1178.4797483830007,1178.4797483830007,1178.4797483830007,1178.4797483830007,1178.4797483830007,1178.4797483830007,1178.4797483830007,1178.4797483830007,0.010761785000795498,1178.4797483830007,,,,,,278,f,21,2023-04-04_16h27.31.907,RL,2022.2.4,59.56483693348153,
1,-0.3,-0.225,0,84,84,84,,,,,,,,,,None,1188.2121073339986,1188.2121073339986,1188.2121073339986,1188.2121073339986,1188.2121073339986,1188.2121073339986,f,0.294053271998564,1188.5493084900008,1188.5493084900008,1188.5493084900008,1188.5493084900008,1188.5493084900008,1188.5493084900008,1188.8184436989977,1188.8184436989977,1190.4044072340002,1190.4044072340002,1190.4441261569991,1190.4441261569991,1190.4441261569991,1190.4441261569991,1190.4441261569991,1190.4441261569991,1190.4441261569991,1190.4441261569991,1190.4441261569991,1190.4441261569991,1190.4441261569991,1190.4441261569991,1190.4441261569991,1190.4441261569991,1190.4441261569991,31,66,48,36,66,46,7.0,2.3576525099997525,,,[],[],[],[],[],[],[],-0.6,3,,,,,,,,,,,,[],[],[],[],[],[],[],,,,,None,None,1195.3490492849996,1196.9981433819994,1192.9513999109986,1192.9513999109986,1192.9513999109986,1192.9513999109986,1192.9513999109986,,,,,,,,,,,,,,,,278,f,21,2023-04-04_16h27.31.907,RL,2022.2.4,59.56483693348153,
0,0.3,0.225,0,85,85,85,,,,,,,,,,None,1196.9981433819994,1196.9981433819994,1196.9981433819994,1196.9981433819994,1196.9981433819994,1196.9981433819994,f,0.7255087970006571,1197.7766502970007,1197.7766502970007,1197.7766502970007,1197.7766502970007,1197.7766502970007,1197.7766502970007,1198.0416313349997,1198.0416313349997,1199.8611943159995,1199.8611943159995,1199.901592580998,1199.901592580998,1199.901592580998,1199.901592580998,1199.901592580998,1199.901592580998,1199.901592580998,1199.901592580998,1199.901592580998,1199.901592580998,1199.901592580998,1199.901592580998,1199.901592580998,1199.901592580998,1199.901592580998,30,60,47,46,60,53,None,None,,,[],[],[],[],[],[],[],-0.2,1,1202.4305327379989,1202.4305327379989,1202.4305327379989,1202.4305327379989,1202.4305327379989,1202.4305327379989,1202.4305327379989,1202.4305327379989,0.010236452999379253,1202.4305327379989,68,[0.0025],[-0.3225],[1],[0],[0],[3.632156802999816],['tijiao_random_2'],1206.080055735998,1206.080055735998,1206.080055735998,1206.080055735998,5.125,4.46302344400101,1210.5606026130008,1212.5221576959993,,,,,,,,,,,,,,,,,,,,,278,f,21,2023-04-04_16h27.31.907,RL,2022.2.4,59.56483693348153,
1,-0.3,-0.225,0,86,86,86,,,,,,,,,,None,1212.5221576959993,1212.5221576959993,1212.5221576959993,1212.5221576959993,1212.5221576959993,1212.5221576959993,f,0.2631298929991317,1212.826475384998,1212.826475384998,1212.826475384998,1212.826475384998,1212.826475384998,1212.826475384998,1213.0945613539989,1213.0945613539989,1214.8529804579994,1214.8529804579994,1214.8920294669988,1214.8920294669988,1214.8920294669988,1214.8920294669988,1214.8920294669988,1214.8920294669988,1214.8920294669988,1214.8920294669988,1214.8920294669988,1214.8920294669988,1214.8920294669988,1214.8920294669988,1214.8920294669988,1214.8920294669988,1214.8920294669988,29,67,43,51,67,38,None,None,70,70,[0.075],[-0.32375],[1],[0],[0],[4.482174111002678],['tijiao'],0.6,0,,,,,,,,,,,,[],[],[],[],[],[],[],1221.9304213610012,1221.9304213610012,1221.9304213610012,1221.9304213610012,4.9625,1.7660450789990136,1223.7127156200004,1225.6956957830007,,,,,,1217.415829775,1217.415829775,1217.415829775,1217.415829775,1217.415829775,1217.415829775,1217.415829775,1217.415829775,0.009181679000903387,1217.415829775,,,,,,278,f,21,2023-04-04_16h27.31.907,RL,2022.2.4,59.56483693348153,
0,0.3,0.225,0,87,87,87,,,,,,,,,,None,1225.6956957830007,1225.6956957830007,1225.6956957830007,1225.6956957830007,1225.6956957830007,1225.6956957830007,f,0.2707166599975608,1226.0168040019998,1226.0168040019998,1226.0168040019998,1226.0168040019998,1226.0168040019998,1226.0168040019998,1226.2866953740013,1226.2866953740013,1227.3745770189998,1227.3745770189998,1227.414746508999,1227.414746508999,1227.414746508999,1227.414746508999,1227.414746508999,1227.414746508999,1227.414746508999,1227.414746508999,1227.414746508999,1227.414746508999,1227.414746508999,1227.414746508999,1227.414746508999,1227.414746508999,1227.414746508999,30,58,45,45,58,41,6.0,1.8049181540009158,,,[],[],[],[],[],[],[],-0.2,3,,,,,,,,,,,,[],[],[],[],[],[],[],,,,,None,None,1231.7713663299983,1233.6669335779989,1229.921396359001,1229.921396359001,1229.921396359001,1229.921396359001,1229.921396359001,,,,,,,,,,,,,,,,278,f,21,2023-04-04_16h27.31.907,RL,2022.2.4,59.56483693348153,
1,-0.3,-0.225,0,88,88,88,,,,,,,,,,None,1233.6669335779989,1233.6669335779989,1233.6669335779989,1233.6669335779989,1233.6669335779989,1233.6669335779989,f,0.34254671699818573,1234.059799153998,1234.059799153998,1234.059799153998,1234.059799153998,1234.059799153998,1234.059799153998,1234.3257329609987,1234.3257329609987,1236.0630101690003,1236.0630101690003,1236.1035971290003,1236.1035971290003,1236.1035971290003,1236.1035971290003,1236.1035971290003,1236.1035971290003,1236.1035971290003,1236.1035971290003,1236.1035971290003,1236.1035971290003,1236.1035971290003,1236.1035971290003,1236.1035971290003,1236.1035971290003,1236.1035971290003,28,70,45,39,70,40,6.0,1.46834207700158,,,[],[],[],[],[],[],[],0.6,2,,,,,,,,,,,,[],[],[],[],[],[],[],,,,,None,None,1240.1136338949982,1241.735263724,1238.600348955999,1238.600348955999,1238.600348955999,1238.600348955999,1238.600348955999,,,,,,,,,,,,,,,,278,f,21,2023-04-04_16h27.31.907,RL,2022.2.4,59.56483693348153,
0,0.3,0.225,0,89,89,89,,,,,,,,,,None,1241.735263724,1241.735263724,1241.735263724,1241.735263724,1241.735263724,1241.735263724,f,0.3786251710007491,1242.1575729649994,1242.1575729649994,1242.1575729649994,1242.1575729649994,1242.1575729649994,1242.1575729649994,1242.429826847998,1242.429826847998,1244.2283208070003,1244.2283208070003,1244.2666992640006,1244.2666992640006,1244.2666992640006,1244.2666992640006,1244.2666992640006,1244.2666992640006,1244.2666992640006,1244.2666992640006,1244.2666992640006,1244.2666992640006,1244.2666992640006,1244.2666992640006,1244.2666992640006,1244.2666992640006,1244.2666992640006,27,73,44,47,73,48,7.0,1.366532678999647,,,[],[],[],[],[],[],[],-0.6,2,,,,,,,,,,,,[],[],[],[],[],[],[],,,,,None,None,1248.188516844999,1249.7885714629992,1246.7778623820013,1246.7778623820013,1246.7778623820013,1246.7778623820013,1246.7778623820013,,,,,,,,,,,,,,,,278,f,21,2023-04-04_16h27.31.907,RL,2022.2.4,59.56483693348153,
1,-0.3,-0.225,0,90,90,90,,,,,,,,,,None,1249.7885714629992,1249.7885714629992,1249.7885714629992,1249.7885714629992,1249.7885714629992,1249.7885714629992,f,0.3195177640009206,1250.1605117779982,1250.1605117779982,1250.1605117779982,1250.1605117779982,1250.1605117779982,1250.1605117779982,1250.439793925998,1250.439793925998,1251.7423800869983,1251.7423800869983,1251.7816333839983,1251.7816333839983,1251.7816333839983,1251.7816333839983,1251.7816333839983,1251.7816333839983,1251.7816333839983,1251.7816333839983,1251.7816333839983,1251.7816333839983,1251.7816333839983,1251.7816333839983,1251.7816333839983,1251.7816333839983,1251.7816333839983,29,84,36,44,84,50,7.0,1.0500776459994086,,,[],[],[],[],[],[],[],0.2,2,,,,,,,,,,,,[],[],[],[],[],[],[],,,,,None,None,1255.3813815699978,1257.377815631,1254.2869338700002,1254.2869338700002,1254.2869338700002,1254.2869338700002,1254.2869338700002,,,,,,,,,,,,,,,,278,f,21,2023-04-04_16h27.31.907,RL,2022.2.4,59.56483693348153,
0,0.3,0.225,0,91,91,91,,,,,,,,,,None,1257.377815631,1257.377815631,1257.377815631,1257.377815631,1257.377815631,1257.377815631,f,0.34019609599999967,1257.7661020609994,1257.7661020609994,1257.7661020609994,1257.7661020609994,1257.7661020609994,1257.7661020609994,1258.0430824869982,1258.0430824869982,1259.0967575649993,1259.0967575649993,1259.1398434699986,1259.1398434699986,1259.1398434699986,1259.1398434699986,1259.1398434699986,1259.1398434699986,1259.1398434699986,1259.1398434699986,1259.1398434699986,1259.1398434699986,1259.1398434699986,1259.1398434699986,1259.1398434699986,1259.1398434699986,1259.1398434699986,29,83,35,36,83,54,7.0,0.6156889140002022,,,[],[],[],[],[],[],[],0.6,2,,,,,,,,,,,,[],[],[],[],[],[],[],,,,,None,None,1262.2990801289998,1263.947885810001,1261.6392177609996,1261.6392177609996,1261.6392177609996,1261.6392177609996,1261.6392177609996,,,,,,,,,,,,,,,,278,f,21,2023-04-04_16h27.31.907,RL,2022.2.4,59.56483693348153,
1,-0.3,-0.225,0,92,92,92,,,,,,,,,,None,1263.947885810001,1263.947885810001,1263.947885810001,1263.947885810001,1263.947885810001,1263.947885810001,f,0.3357026890007546,1264.322007196999,1264.322007196999,1264.322007196999,1264.322007196999,1264.322007196999,1264.322007196999,1264.5871252709985,1264.5871252709985,1265.5816343449987,1265.5816343449987,1265.6224766999985,1265.6224766999985,1265.6224766999985,1265.6224766999985,1265.6224766999985,1265.6224766999985,1265.6224766999985,1265.6224766999985,1265.6224766999985,1265.6224766999985,1265.6224766999985,1265.6224766999985,1265.6224766999985,1265.6224766999985,1265.6224766999985,29,84,38,33,84,49,None,None,84,84,[-0.035],[-0.3325],[1],[0],[0],[4.024235196000518],['tijiao'],0.6,0,,,,,,,,,,,,[],[],[],[],[],[],[],1272.209516089999,1272.209516089999,1272.209516089999,1272.209516089999,5.9,2.4272007330000633,1274.654663063,1276.3038234829983,,,,,,1268.1518378639994,1268.1518378639994,1268.1518378639994,1268.1518378639994,1268.1518378639994,1268.1518378639994,1268.1518378639994,1268.1518378639994,0.011164945997734321,1268.1518378639994,,,,,,278,f,21,2023-04-04_16h27.31.907,RL,2022.2.4,59.56483693348153,
0,0.3,0.225,0,93,93,93,,,,,,,,,,None,1276.3038234829983,1276.3038234829983,1276.3038234829983,1276.3038234829983,1276.3038234829983,1276.3038234829983,f,0.31160743800137425,1276.6597769149994,1276.6597769149994,1276.6597769149994,1276.6597769149994,1276.6597769149994,1276.6597769149994,1276.927909856,1276.927909856,1278.0229080909994,1278.0229080909994,1278.0655517329978,1278.0655517329978,1278.0655517329978,1278.0655517329978,1278.0655517329978,1278.0655517329978,1278.0655517329978,1278.0655517329978,1278.0655517329978,1278.0655517329978,1278.0655517329978,1278.0655517329978,1278.0655517329978,1278.0655517329978,1278.0655517329978,32,76,38,35,76,34,7.0,2.219780144998367,,,[],[],[],[],[],[],[],-0.6,3,,,,,,,,,,,,[],[],[],[],[],[],[],,,,,None,None,1282.827478512001,1284.823599457999,1280.5650767410007,1280.5650767410007,1280.5650767410007,1280.5650767410007,1280.5650767410007,,,,,,,,,,,,,,,,278,f,21,2023-04-04_16h27.31.907,RL,2022.2.4,59.56483693348153,
