bandit0,black_x_pos_random,black_y_pos_random,trials.thisRepN,trials.thisTrialN,trials.thisN,trials.thisIndex,instru_img1.started,instru_resp.started,instru_resp.keys,instru_resp.rt,instru_img2.started,instru_resp2.started,instru_resp2.keys,instru_resp2.rt,fixbefore_2.started,rest_response.keys,red.started,green.started,yellow.started,blue.started,choose_bandit.started,Fixation.started,choose_bandit.keys,choose_bandit.rt,black.started,red_2.started,green_2.started,yellow_2.started,blue_2.started,fixation_2.started,docs.started,wait_playerB.started,docs.stopped,wait_playerB.stopped,black.stopped,red_2.stopped,green_2.stopped,yellow_2.stopped,blue_2.stopped,fixation_2.stopped,black_com.started,reward_sub.started,palyerb.started,reward__sub.started,compare.started,red_compare.started,green_com.started,yellow_com.started,blue_com.started,image_3.started,slider.started,text.started,image_4.started,image_5.started,rewardyellow,rewardred,rewardblue,rewardgreen,subchoose,playerb,slider.response,slider.rt,expectself.text,value_expect_self,tijiao_click.x,tijiao_click.y,tijiao_click.leftButton,tijiao_click.midButton,tijiao_click.rightButton,tijiao_click.time,tijiao_click.clicked_name,random_whicharm,whether_ask,expect_random_3.text,tijiao_random.x,tijiao_random.y,tijiao_random.leftButton,tijiao_random.midButton,tijiao_random.rightButton,tijiao_random.time,tijiao_random.clicked_name,slider_2.response,slider_2.rt,intertrialfix.started,intertrialfix.stopped,bigx.started,bigx.stopped,jiantou_random.started,expect_red.started,expect_green.started,expect_yellow.started,expect_blue.started,expect_random_2.started,expect_random_3.started,tijiao_random_2.started,tijiao_random.started,check_2.started,slider_2.started,image_7.started,confi.started,notconfi.started,expectself.started,expect_self_black.started,expect_self.started,expect_self_red.started,expect_self_green.started,expect_self_yellow.started,expect_self_blue.started,tijiao.started,tijiao_click.started,check.started,rest_image.started,rest_response.started,rest_response.rt,participant,Gender,Age,date,expName,psychopyVersion,frameRate,
,,,,,,,52.924081300152466,52.924081300152466,space,8.170412600040436,,,,,,,,,,,,,,,,,,,,,,,,,,,,,,,,,,,,,,,,,,,,,,,,,,,,,,,,,,,,,,,,,,,,,,,,,,,,,,,,,,,,,,,,,,,,,,,,,,,,,,,,,279,m,23,2023-04-04_17h36.54.912,RL,2022.2.4,60.160978782174794,
,,,,,,,,,,,61.12140960013494,61.12140960013494,s,62.462699400028214,,,,,,,,,,,,,,,,,,,,,,,,,,,,,,,,,,,,,,,,,,,,,,,,,,,,,,,,,,,,,,,,,,,,,,,,,,,,,,,,,,,,,,,,,,,,,,,,,,,,,279,m,23,2023-04-04_17h36.54.912,RL,2022.2.4,60.160978782174794,
1,-0.3,-0.225,0,0,0,0,,,,,,,,,123.60995930014178,None,124.64138040016405,124.64138040016405,124.64138040016405,124.64138040016405,124.64138040016405,124.64138040016405,r,0.7006928999908268,125.39669069997035,125.39669069997035,125.39669069997035,125.39669069997035,125.39669069997035,125.39669069997035,125.67076840018854,125.67076840018854,126.66830290015787,126.66830290015787,126.70559140015393,126.70559140015393,126.70559140015393,126.70559140015393,126.70559140015393,126.70559140015393,126.70559140015393,126.70559140015393,126.70559140015393,126.70559140015393,126.70559140015393,126.70559140015393,126.70559140015393,126.70559140015393,126.70559140015393,129.2109833001159,129.2109833001159,129.2109833001159,129.2109833001159,129.2109833001159,45,74,55,40,45,33,6.0,2.3090747999958694,,,[],[],[],[],[],[],[],0.2,2,,[],[],[],[],[],[],[],None,None,131.7083954999689,133.4330220001284,,,,,,,,,,,,,,,,,,,,,,,,,,,,,,279,m,23,2023-04-04_17h36.54.912,RL,2022.2.4,60.160978782174794,
0,0.3,0.225,0,1,1,1,,,,,,,,,,None,133.4330220001284,133.4330220001284,133.4330220001284,133.4330220001284,133.4330220001284,133.4330220001284,f,1.0951567001175135,134.55397040001117,134.55397040001117,134.55397040001117,134.55397040001117,134.55397040001117,134.55397040001117,134.84585280017927,134.84585280017927,136.49134599999525,136.49134599999525,136.5105848000385,136.5105848000385,136.5105848000385,136.5105848000385,136.5105848000385,136.5105848000385,136.5105848000385,136.5105848000385,136.5105848000385,136.5105848000385,136.5105848000385,136.5105848000385,136.5105848000385,136.5105848000385,136.5105848000385,139.01705360016786,139.01705360016786,139.01705360016786,139.01705360016786,139.01705360016786,50,82,52,42,82,41,7.0,1.4950252999551594,,,[],[],[],[],[],[],[],-0.6,3,,[],[],[],[],[],[],[],None,None,140.53760979999788,142.0924780999776,,,,,,,,,,,,,,,,,,,,,,,,,,,,,,279,m,23,2023-04-04_17h36.54.912,RL,2022.2.4,60.160978782174794,
1,-0.3,-0.225,0,2,2,2,,,,,,,,,,None,142.0924780999776,142.0924780999776,142.0924780999776,142.0924780999776,142.0924780999776,142.0924780999776,i,1.0334865001495928,143.1617009001784,143.1617009001784,143.1617009001784,143.1617009001784,143.1617009001784,143.1617009001784,143.4559739001561,143.4559739001561,144.2697629001923,144.2697629001923,144.28645030013286,144.28645030013286,144.28645030013286,144.28645030013286,144.28645030013286,144.28645030013286,144.28645030013286,144.28645030013286,144.28645030013286,144.28645030013286,144.28645030013286,144.28645030013286,144.28645030013286,144.28645030013286,144.28645030013286,146.79560970002785,146.79560970002785,146.79560970002785,146.79560970002785,146.79560970002785,51,75,48,47,48,34,7.0,2.14316810015589,,,[],[],[],[],[],[],[],-0.2,3,,[],[],[],[],[],[],[],None,None,148.96539660007693,150.96830130019225,,,,,,,,,,,,,,,,,,,,,,,,,,,,,,279,m,23,2023-04-04_17h36.54.912,RL,2022.2.4,60.160978782174794,
0,0.3,0.225,0,3,3,3,,,,,,,,,,None,150.96830130019225,150.96830130019225,150.96830130019225,150.96830130019225,150.96830130019225,150.96830130019225,None,,,,,,,,,,,,,,,,,,,,,,,,,,,,,,,,45,78,50,45,0,**,None,None,,,[],[],[],[],[],[],[],-0.6,2,,[],[],[],[],[],[],[],None,None,158.53051499999128,160.3760295000393,152.52453160006553,158.53051499999128,,,,,,,,,,,,,,,,,,,,,,,,,,,,279,m,23,2023-04-04_17h36.54.912,RL,2022.2.4,60.160978782174794,
1,-0.3,-0.225,0,4,4,4,,,,,,,,,,None,160.3760295000393,160.3760295000393,160.3760295000393,160.3760295000393,160.3760295000393,160.3760295000393,r,0.8316634998191148,161.24063240014948,161.24063240014948,161.24063240014948,161.24063240014948,161.24063240014948,161.24063240014948,161.53946370002814,161.53946370002814,163.41752140014432,163.41752140014432,163.41752140014432,163.41752140014432,163.41752140014432,163.41752140014432,163.41752140014432,163.41752140014432,163.41752140014432,163.41752140014432,163.41752140014432,163.41752140014432,163.41752140014432,163.41752140014432,163.41752140014432,163.41752140014432,163.41752140014432,,,,,,56,71,56,40,56,80,None,None,,,[],[],[],[],[],[],[],0.2,1,80,[-0.003703703703703704],[-0.29907407407407405],[1],[0],[0],[5.180840699933469],['tijiao_random_2'],4.925925925925926,3.8812990998849273,175.0348823000677,176.71446850011125,,,165.94249390019104,165.94249390019104,165.94249390019104,165.94249390019104,165.94249390019104,165.94249390019104,165.94249390019104,165.94249390019104,0.007223699940368533,165.94249390019104,171.14180230000056,171.14180230000056,171.14180230000056,171.14180230000056,,,,,,,,,,,,,,279,m,23,2023-04-04_17h36.54.912,RL,2022.2.4,60.160978782174794,
0,0.3,0.225,0,5,5,5,,,,,,,,,,None,176.71446850011125,176.71446850011125,176.71446850011125,176.71446850011125,176.71446850011125,176.71446850011125,r,0.7327282000333071,177.4799683999736,177.4799683999736,177.4799683999736,177.4799683999736,177.4799683999736,177.4799683999736,177.7784387001302,177.7784387001302,179.35765919997357,179.35765919997357,179.35765919997357,179.35765919997357,179.35765919997357,179.35765919997357,179.35765919997357,179.35765919997357,179.35765919997357,179.35765919997357,179.35765919997357,179.35765919997357,179.35765919997357,179.35765919997357,179.35765919997357,179.35765919997357,179.35765919997357,,,,,,51,74,65,48,51,43,None,None,50,50,[-0.03333333333333333],[-0.28425925925925927],[1],[0],[0],[5.640569299925119],['tijiao'],-0.2,0,,[],[],[],[],[],[],[],6.972222222222222,2.710971200140193,190.26002480019815,191.83981620008126,,,,,,,,,,,,,187.5303440000862,187.5303440000862,187.5303440000862,187.5303440000862,181.87253150017932,181.87253150017932,181.87253150017932,181.87253150017932,181.87253150017932,181.87253150017932,181.87253150017932,181.87253150017932,0.007254899945110083,181.87253150017932,,,,279,m,23,2023-04-04_17h36.54.912,RL,2022.2.4,60.160978782174794,
1,-0.3,-0.225,0,6,6,6,,,,,,,,,,None,191.83981620008126,191.83981620008126,191.83981620008126,191.83981620008126,191.83981620008126,191.83981620008126,f,0.8127733999863267,192.67348880018108,192.67348880018108,192.67348880018108,192.67348880018108,192.67348880018108,192.67348880018108,192.97069370001554,192.97069370001554,194.28370130015537,194.28370130015537,194.28370130015537,194.28370130015537,194.28370130015537,194.28370130015537,194.28370130015537,194.28370130015537,194.28370130015537,194.28370130015537,194.28370130015537,194.28370130015537,194.28370130015537,194.28370130015537,194.28370130015537,194.28370130015537,194.28370130015537,196.79251409997232,196.79251409997232,196.79251409997232,196.79251409997232,196.79251409997232,48,82,49,43,82,34,6.0,1.9773794999346137,,,[],[],[],[],[],[],[],-0.2,2,,[],[],[],[],[],[],[],None,None,198.7975155999884,200.74922090000473,,,,,,,,,,,,,,,,,,,,,,,,,,,,,,279,m,23,2023-04-04_17h36.54.912,RL,2022.2.4,60.160978782174794,
0,0.3,0.225,0,7,7,7,,,,,,,,,,None,200.74922090000473,200.74922090000473,200.74922090000473,200.74922090000473,200.74922090000473,200.74922090000473,i,0.4960517999716103,201.26607970008627,201.26607970008627,201.26607970008627,201.26607970008627,201.26607970008627,201.26607970008627,201.56363440002315,201.56363440002315,202.76034560007975,202.76034560007975,202.76034560007975,202.76034560007975,202.76034560007975,202.76034560007975,202.76034560007975,202.76034560007975,202.76034560007975,202.76034560007975,202.76034560007975,202.76034560007975,202.76034560007975,202.76034560007975,202.76034560007975,202.76034560007975,202.76034560007975,,,,,,51,76,55,47,55,71,None,None,80,80,[0.019444444444444445],[-0.30462962962962964],[1],[0],[0],[6.888471600133926],['tijiao'],-0.2,0,,[],[],[],[],[],[],[],8.064814814814815,2.9915899999905378,215.1920435000211,216.8050979000982,,,,,,,,,,,,,212.18132480001077,212.18132480001077,212.18132480001077,212.18132480001077,205.2705318001099,205.2705318001099,205.2705318001099,205.2705318001099,205.2705318001099,205.2705318001099,205.2705318001099,205.2705318001099,0.005765100009739399,205.2705318001099,,,,279,m,23,2023-04-04_17h36.54.912,RL,2022.2.4,60.160978782174794,
1,-0.3,-0.225,0,8,8,8,,,,,,,,,,None,216.8050979000982,216.8050979000982,216.8050979000982,216.8050979000982,216.8050979000982,216.8050979000982,j,0.5978884999640286,217.4220771000255,217.4220771000255,217.4220771000255,217.4220771000255,217.4220771000255,217.4220771000255,217.71985520003363,217.71985520003363,218.78571570012718,218.78571570012718,218.78571570012718,218.78571570012718,218.78571570012718,218.78571570012718,218.78571570012718,218.78571570012718,218.78571570012718,218.78571570012718,218.78571570012718,218.78571570012718,218.78571570012718,218.78571570012718,218.78571570012718,218.78571570012718,218.78571570012718,,,,,,61,86,43,42,42,69,None,None,50,50,[0.018518518518518517],[-0.29074074074074074],[1],[0],[0],[5.475334299961105],['tijiao'],0.2,0,,[],[],[],[],[],[],[],7.037037037037037,2.343264700146392,229.15385460015386,231.14964290009812,,,,,,,,,,,,,226.79163100011647,226.79163100011647,226.79163100011647,226.79163100011647,221.2944716999773,221.2944716999773,221.2944716999773,221.2944716999773,221.2944716999773,221.2944716999773,221.2944716999773,221.2944716999773,0.006531999912112951,221.2944716999773,,,,279,m,23,2023-04-04_17h36.54.912,RL,2022.2.4,60.160978782174794,
0,0.3,0.225,0,9,9,9,,,,,,,,,,None,231.14964290009812,231.14964290009812,231.14964290009812,231.14964290009812,231.14964290009812,231.14964290009812,r,1.298658800078556,232.48092450015247,232.48092450015247,232.48092450015247,232.48092450015247,232.48092450015247,232.48092450015247,232.77871690015309,232.77871690015309,234.24127520015463,234.24127520015463,234.2576498000417,234.2576498000417,234.2576498000417,234.2576498000417,234.2576498000417,234.2576498000417,234.2576498000417,234.2576498000417,234.2576498000417,234.2576498000417,234.2576498000417,234.2576498000417,234.2576498000417,234.2576498000417,234.2576498000417,,,,,,42,78,54,51,42,70,None,None,,,[],[],[],[],[],[],[],-0.6,1,50,[0.006481481481481481],[-0.29074074074074074],[1],[0],[0],[6.097029000055045],['tijiao_random_2'],10.00925925925926,2.137567500118166,245.04379590018652,246.839910000097,,,236.77763790008612,236.77763790008612,236.77763790008612,236.77763790008612,236.77763790008612,236.77763790008612,236.77763790008612,236.77763790008612,0.006797099951654673,236.77763790008612,242.88819060008973,242.88819060008973,242.88819060008973,242.88819060008973,,,,,,,,,,,,,,279,m,23,2023-04-04_17h36.54.912,RL,2022.2.4,60.160978782174794,
1,-0.3,-0.225,0,10,10,10,,,,,,,,,,None,246.839910000097,246.839910000097,246.839910000097,246.839910000097,246.839910000097,246.839910000097,None,,,,,,,,,,,,,,,,,,,,,,,,,,,,,,,,51,71,43,42,0,**,None,None,,,[],[],[],[],[],[],[],0.2,3,,[],[],[],[],[],[],[],None,None,254.3856342001818,255.93203350016847,248.3765498001594,254.3856342001818,,,,,,,,,,,,,,,,,,,,,,,,,,,,279,m,23,2023-04-04_17h36.54.912,RL,2022.2.4,60.160978782174794,
0,0.3,0.225,0,11,11,11,,,,,,,,,,None,255.93203350016847,255.93203350016847,255.93203350016847,255.93203350016847,255.93203350016847,255.93203350016847,j,0.9228158998303115,256.8800727999769,256.8800727999769,256.8800727999769,256.8800727999769,256.8800727999769,256.8800727999769,257.1786956000142,257.1786956000142,258.09284720011055,258.09284720011055,258.09284720011055,258.09284720011055,258.09284720011055,258.09284720011055,258.09284720011055,258.09284720011055,258.09284720011055,258.09284720011055,258.09284720011055,258.09284720011055,258.09284720011055,258.09284720011055,258.09284720011055,258.09284720011055,258.09284720011055,,,,,,57,70,47,50,50,40,None,None,,,[],[],[],[],[],[],[],0.2,1,60,[-0.004629629629629629],[-0.287962962962963],[1],[0],[0],[5.880568199791014],['tijiao_random_2'],7.055555555555555,3.251386399846524,269.7764748001937,271.50602830015123,,,260.61381650017574,260.61381650017574,260.61381650017574,260.61381650017574,260.61381650017574,260.61381650017574,260.61381650017574,260.61381650017574,0.007117500063031912,260.61381650017574,266.5067732001189,266.5067732001189,266.5067732001189,266.5067732001189,,,,,,,,,,,,,,279,m,23,2023-04-04_17h36.54.912,RL,2022.2.4,60.160978782174794,
1,-0.3,-0.225,0,12,12,12,,,,,,,,,,None,271.50602830015123,271.50602830015123,271.50602830015123,271.50602830015123,271.50602830015123,271.50602830015123,r,0.9092809001449496,272.43989420006983,272.43989420006983,272.43989420006983,272.43989420006983,272.43989420006983,272.43989420006983,272.73602940002456,272.73602940002456,273.76655549998395,273.76655549998395,273.76655549998395,273.76655549998395,273.76655549998395,273.76655549998395,273.76655549998395,273.76655549998395,273.76655549998395,273.76655549998395,273.76655549998395,273.76655549998395,273.76655549998395,273.76655549998395,273.76655549998395,273.76655549998395,273.76655549998395,276.27592599997297,276.27592599997297,276.27592599997297,276.27592599997297,276.27592599997297,56,81,49,43,56,23,6.0,3.0907069998793304,,,[],[],[],[],[],[],[],0.2,3,,[],[],[],[],[],[],[],None,None,279.3931621001102,281.1632344999816,,,,,,,,,,,,,,,,,,,,,,,,,,,,,,279,m,23,2023-04-04_17h36.54.912,RL,2022.2.4,60.160978782174794,
0,0.3,0.225,0,13,13,13,,,,,,,,,,None,281.1632344999816,281.1632344999816,281.1632344999816,281.1632344999816,281.1632344999816,281.1632344999816,f,1.1530135001521558,282.343488200102,282.343488200102,282.343488200102,282.343488200102,282.343488200102,282.343488200102,282.64233430009335,282.64233430009335,283.5730306999758,283.5730306999758,283.5730306999758,283.5730306999758,283.5730306999758,283.5730306999758,283.5730306999758,283.5730306999758,283.5730306999758,283.5730306999758,283.5730306999758,283.5730306999758,283.5730306999758,283.5730306999758,283.5730306999758,283.5730306999758,283.5730306999758,286.08228830015287,286.08228830015287,286.08228830015287,286.08228830015287,286.08228830015287,64,66,42,44,66,72,5.0,3.0074259999673814,,,[],[],[],[],[],[],[],-0.2,2,,[],[],[],[],[],[],[],None,None,289.1156786000356,290.65391490003094,,,,,,,,,,,,,,,,,,,,,,,,,,,,,,279,m,23,2023-04-04_17h36.54.912,RL,2022.2.4,60.160978782174794,
1,-0.3,-0.225,0,14,14,14,,,,,,,,,,None,290.65391490003094,290.65391490003094,290.65391490003094,290.65391490003094,290.65391490003094,290.65391490003094,j,0.8090947999153286,291.48685450013727,291.48685450013727,291.48685450013727,291.48685450013727,291.48685450013727,291.48685450013727,291.7844044000376,291.7844044000376,292.59844189998694,292.59844189998694,292.59844189998694,292.59844189998694,292.59844189998694,292.59844189998694,292.59844189998694,292.59844189998694,292.59844189998694,292.59844189998694,292.59844189998694,292.59844189998694,292.59844189998694,292.59844189998694,292.59844189998694,292.59844189998694,292.59844189998694,,,,,,63,68,46,45,45,31,None,None,,,[],[],[],[],[],[],[],0.6,1,45,[0.06296296296296296],[-0.29074074074074074],[1],[0],[0],[3.937702199909836],['tijiao_random_2'],7.916666666666666,3.815970900002867,302.9026178000495,304.78209260012954,,,295.1176838001702,295.1176838001702,295.1176838001702,295.1176838001702,295.1176838001702,295.1176838001702,295.1176838001702,295.1176838001702,0.0062074000015854836,295.1176838001702,299.06783220008947,299.06783220008947,299.06783220008947,299.06783220008947,,,,,,,,,,,,,,279,m,23,2023-04-04_17h36.54.912,RL,2022.2.4,60.160978782174794,
0,0.3,0.225,0,15,15,15,,,,,,,,,,None,304.78209260012954,304.78209260012954,304.78209260012954,304.78209260012954,304.78209260012954,304.78209260012954,i,0.7466537000145763,305.5502814000938,305.5502814000938,305.5502814000938,305.5502814000938,305.5502814000938,305.5502814000938,305.8459221001249,305.8459221001249,306.8263738001697,306.8263738001697,306.8263738001697,306.8263738001697,306.8263738001697,306.8263738001697,306.8263738001697,306.8263738001697,306.8263738001697,306.8263738001697,306.8263738001697,306.8263738001697,306.8263738001697,306.8263738001697,306.8263738001697,306.8263738001697,306.8263738001697,309.3353810000699,309.3353810000699,309.3353810000699,309.3353810000699,309.3353810000699,63,70,42,48,42,66,6.0,2.176584400003776,,,[],[],[],[],[],[],[],-0.6,2,,[],[],[],[],[],[],[],None,None,311.54041270003654,313.2253366999794,,,,,,,,,,,,,,,,,,,,,,,,,,,,,,279,m,23,2023-04-04_17h36.54.912,RL,2022.2.4,60.160978782174794,
1,-0.3,-0.225,0,16,16,16,,,,,,,,,,None,313.2253366999794,313.2253366999794,313.2253366999794,313.2253366999794,313.2253366999794,313.2253366999794,j,0.9462270999792963,314.1914413999766,314.1914413999766,314.1914413999766,314.1914413999766,314.1914413999766,314.1914413999766,314.4891001000069,314.4891001000069,316.15106060006656,316.15106060006656,316.15106060006656,316.15106060006656,316.15106060006656,316.15106060006656,316.15106060006656,316.15106060006656,316.15106060006656,316.15106060006656,316.15106060006656,316.15106060006656,316.15106060006656,316.15106060006656,316.15106060006656,316.15106060006656,316.15106060006656,318.66009950009175,318.66009950009175,318.66009950009175,318.66009950009175,318.66009950009175,61,73,42,41,41,60,5.0,2.2769985999912024,,,[],[],[],[],[],[],[],0.6,3,,[],[],[],[],[],[],[],None,None,320.96250040014274,322.9490320000332,,,,,,,,,,,,,,,,,,,,,,,,,,,,,,279,m,23,2023-04-04_17h36.54.912,RL,2022.2.4,60.160978782174794,
0,0.3,0.225,0,17,17,17,,,,,,,,,,None,322.9490320000332,322.9490320000332,322.9490320000332,322.9490320000332,322.9490320000332,322.9490320000332,r,0.5387546001002192,323.5158470000606,323.5158470000606,323.5158470000606,323.5158470000606,323.5158470000606,323.5158470000606,323.8132837000303,323.8132837000303,325.5583747001365,325.5583747001365,325.57544740010053,325.57544740010053,325.57544740010053,325.57544740010053,325.57544740010053,325.57544740010053,325.57544740010053,325.57544740010053,325.57544740010053,325.57544740010053,325.57544740010053,325.57544740010053,325.57544740010053,325.57544740010053,325.57544740010053,,,,,,62,71,50,33,62,59,None,None,60,60,[-0.008333333333333333],[-0.2916666666666667],[1],[0],[0],[6.754553900100291],['tijiao'],0.2,0,,[],[],[],[],[],[],[],8.037037037037038,3.2734177000820637,338.15644549997523,339.8529433000367,,,,,,,,,,,,,334.864436800126,334.864436800126,334.864436800126,334.864436800126,328.0874008999672,328.0874008999672,328.0874008999672,328.0874008999672,328.0874008999672,328.0874008999672,328.0874008999672,328.0874008999672,0.007583899889141321,328.0874008999672,,,,279,m,23,2023-04-04_17h36.54.912,RL,2022.2.4,60.160978782174794,
1,-0.3,-0.225,0,18,18,18,,,,,,,,,,None,339.8529433000367,339.8529433000367,339.8529433000367,339.8529433000367,339.8529433000367,339.8529433000367,f,0.6789570001419634,340.55174460005946,340.55174460005946,340.55174460005946,340.55174460005946,340.55174460005946,340.55174460005946,340.85018180008046,340.85018180008046,342.79501750017516,342.79501750017516,342.79501750017516,342.79501750017516,342.79501750017516,342.79501750017516,342.79501750017516,342.79501750017516,342.79501750017516,342.79501750017516,342.79501750017516,342.79501750017516,342.79501750017516,342.79501750017516,342.79501750017516,342.79501750017516,342.79501750017516,,,,,,62,65,56,35,65,59,None,None,,,[],[],[],[],[],[],[],-0.6,1,60,[0.016666666666666666],[-0.29907407407407405],[1],[0],[0],[4.202492399839684],['tijiao_random_2'],6.981481481481481,2.290241700131446,351.8357468000613,353.49899160000496,,,345.31438630004413,345.31438630004413,345.31438630004413,345.31438630004413,345.31438630004413,345.31438630004413,345.31438630004413,345.31438630004413,0.006646899972110987,345.31438630004413,349.5276542000938,349.5276542000938,349.5276542000938,349.5276542000938,,,,,,,,,,,,,,279,m,23,2023-04-04_17h36.54.912,RL,2022.2.4,60.160978782174794,
0,0.3,0.225,0,19,19,19,,,,,,,,,,None,353.49899160000496,353.49899160000496,353.49899160000496,353.49899160000496,353.49899160000496,353.49899160000496,f,0.7694600000977516,354.2980957000982,354.2980957000982,354.2980957000982,354.2980957000982,354.2980957000982,354.2980957000982,354.5963128001895,354.5963128001895,356.27463180013,356.27463180013,356.27463180013,356.27463180013,356.27463180013,356.27463180013,356.27463180013,356.27463180013,356.27463180013,356.27463180013,356.27463180013,356.27463180013,356.27463180013,356.27463180013,356.27463180013,356.27463180013,356.27463180013,358.7840635001194,358.7840635001194,358.7840635001194,358.7840635001194,358.7840635001194,65,66,44,38,66,46,6.0,2.592422400135547,,,[],[],[],[],[],[],[],-0.2,2,,[],[],[],[],[],[],[],None,None,361.4033421999775,362.98946189996786,,,,,,,,,,,,,,,,,,,,,,,,,,,,,,279,m,23,2023-04-04_17h36.54.912,RL,2022.2.4,60.160978782174794,
1,-0.3,-0.225,0,20,20,20,,,,,,,,,,None,362.98946189996786,362.98946189996786,362.98946189996786,362.98946189996786,362.98946189996786,362.98946189996786,f,0.5904811001382768,363.6051052999683,363.6051052999683,363.6051052999683,363.6051052999683,363.6051052999683,363.6051052999683,363.90412840014324,363.90412840014324,365.08421950018965,365.08421950018965,365.08421950018965,365.08421950018965,365.08421950018965,365.08421950018965,365.08421950018965,365.08421950018965,365.08421950018965,365.08421950018965,365.08421950018965,365.08421950018965,365.08421950018965,365.08421950018965,365.08421950018965,365.08421950018965,365.08421950018965,,,,,,61,62,53,36,62,55,None,None,65,65,[0.05],[-0.2953703703703704],[1],[0],[0],[5.060130199883133],['tijiao'],0.2,0,,[],[],[],[],[],[],[],9.074074074074073,1.9616786998230964,374.6569829999935,376.4197811000049,,,,,,,,,,,,,372.67609630012885,372.67609630012885,372.67609630012885,372.67609630012885,367.5951221000869,367.5951221000869,367.5951221000869,367.5951221000869,367.5951221000869,367.5951221000869,367.5951221000869,367.5951221000869,0.006597799947485328,367.5951221000869,,,,279,m,23,2023-04-04_17h36.54.912,RL,2022.2.4,60.160978782174794,
0,0.3,0.225,0,21,21,21,,,,,,,,,,None,376.4197811000049,376.4197811000049,376.4197811000049,376.4197811000049,376.4197811000049,376.4197811000049,f,0.5879870001226664,377.03641080018133,377.03641080018133,377.03641080018133,377.03641080018133,377.03641080018133,377.03641080018133,377.334339100169,377.334339100169,378.21499320003204,378.21499320003204,378.21499320003204,378.21499320003204,378.21499320003204,378.21499320003204,378.21499320003204,378.21499320003204,378.21499320003204,378.21499320003204,378.21499320003204,378.21499320003204,378.21499320003204,378.21499320003204,378.21499320003204,378.21499320003204,378.21499320003204,,,,,,56,65,44,36,65,44,None,None,,,[],[],[],[],[],[],[],-0.6,1,50,[-0.022222222222222223],[-0.26944444444444443],[1],[0],[0],[4.799971399828792],['tijiao_random_2'],8.027777777777777,2.0698251998983324,387.6381408001762,389.30132990004495,,,380.7351355999708,380.7351355999708,380.7351355999708,380.7351355999708,380.7351355999708,380.7351355999708,380.7351355999708,380.7351355999708,0.006527999881654978,380.7351355999708,385.5502609000541,385.5502609000541,385.5502609000541,385.5502609000541,,,,,,,,,,,,,,279,m,23,2023-04-04_17h36.54.912,RL,2022.2.4,60.160978782174794,
1,-0.3,-0.225,0,22,22,22,,,,,,,,,,None,389.30132990004495,389.30132990004495,389.30132990004495,389.30132990004495,389.30132990004495,389.30132990004495,r,0.4646426998078823,389.78596050012857,389.78596050012857,389.78596050012857,389.78596050012857,389.78596050012857,389.78596050012857,390.0827201001812,390.0827201001812,391.84451860003173,391.84451860003173,391.84451860003173,391.84451860003173,391.84451860003173,391.84451860003173,391.84451860003173,391.84451860003173,391.84451860003173,391.84451860003173,391.84451860003173,391.84451860003173,391.84451860003173,391.84451860003173,391.84451860003173,391.84451860003173,391.84451860003173,394.3536776001565,394.3536776001565,394.3536776001565,394.3536776001565,394.3536776001565,56,61,49,37,56,48,6.0,2.193344600033015,,,[],[],[],[],[],[],[],-0.6,3,,[],[],[],[],[],[],[],None,None,396.57310380018316,398.37648660014383,,,,,,,,,,,,,,,,,,,,,,,,,,,,,,279,m,23,2023-04-04_17h36.54.912,RL,2022.2.4,60.160978782174794,
0,0.3,0.225,0,23,23,23,,,,,,,,,,None,398.37648660014383,398.37648660014383,398.37648660014383,398.37648660014383,398.37648660014383,398.37648660014383,f,0.8763591998722404,399.2754427001346,399.2754427001346,399.2754427001346,399.2754427001346,399.2754427001346,399.2754427001346,399.5736015001312,399.5736015001312,401.18579929997213,401.18579929997213,401.18579929997213,401.18579929997213,401.18579929997213,401.18579929997213,401.18579929997213,401.18579929997213,401.18579929997213,401.18579929997213,401.18579929997213,401.18579929997213,401.18579929997213,401.18579929997213,401.18579929997213,401.18579929997213,401.18579929997213,403.6949482001364,403.6949482001364,403.6949482001364,403.6949482001364,403.6949482001364,70,63,47,37,63,48,6.0,2.1933015999384224,,,[],[],[],[],[],[],[],-0.6,2,,[],[],[],[],[],[],[],None,None,405.91663180012256,407.50151289999485,,,,,,,,,,,,,,,,,,,,,,,,,,,,,,279,m,23,2023-04-04_17h36.54.912,RL,2022.2.4,60.160978782174794,
1,-0.3,-0.225,0,24,24,24,,,,,,,,,,None,407.50151289999485,407.50151289999485,407.50151289999485,407.50151289999485,407.50151289999485,407.50151289999485,j,0.7884772000834346,408.31862110015936,408.31862110015936,408.31862110015936,408.31862110015936,408.31862110015936,408.31862110015936,408.6156068001874,408.6156068001874,409.5794834999833,409.5794834999833,409.5794834999833,409.5794834999833,409.5794834999833,409.5794834999833,409.5794834999833,409.5794834999833,409.5794834999833,409.5794834999833,409.5794834999833,409.5794834999833,409.5794834999833,409.5794834999833,409.5794834999833,409.5794834999833,409.5794834999833,,,,,,65,61,45,34,34,35,None,None,,,[],[],[],[],[],[],[],0.2,1,60,[0.019444444444444445],[-0.2851851851851852],[1],[0],[0],[6.331688799895346],['tijiao_random_2'],1.0185185185185182,3.0682812000159174,421.5291422000155,423.52462190017104,,,412.0981376999989,412.0981376999989,412.0981376999989,412.0981376999989,412.0981376999989,412.0981376999989,412.0981376999989,412.0981376999989,0.00672070006839931,412.0981376999989,418.4419838001486,418.4419838001486,418.4419838001486,418.4419838001486,,,,,,,,,,,,,,279,m,23,2023-04-04_17h36.54.912,RL,2022.2.4,60.160978782174794,
0,0.3,0.225,0,25,25,25,,,,,,,,,,None,423.52462190017104,423.52462190017104,423.52462190017104,423.52462190017104,423.52462190017104,423.52462190017104,i,0.4864266999065876,424.04345870018005,424.04345870018005,424.04345870018005,424.04345870018005,424.04345870018005,424.04345870018005,424.3389926000964,424.3389926000964,425.6024168001022,425.6024168001022,425.6192061000038,425.6192061000038,425.6192061000038,425.6192061000038,425.6192061000038,425.6192061000038,425.6192061000038,425.6192061000038,425.6192061000038,425.6192061000038,425.6192061000038,425.6192061000038,425.6192061000038,425.6192061000038,425.6192061000038,,,,,,71,64,47,26,47,39,None,None,,,[],[],[],[],[],[],[],-0.2,1,65,[-0.03518518518518519],[-0.2916666666666667],[1],[0],[0],[4.303077099844813],['tijiao_random_2'],9.11111111111111,3.052301899995655,435.524010800058,437.3200840000063,,,428.1382642001845,428.1382642001845,428.1382642001845,428.1382642001845,428.1382642001845,428.1382642001845,428.1382642001845,428.1382642001845,0.006779399933293462,428.1382642001845,432.4531252000015,432.4531252000015,432.4531252000015,432.4531252000015,,,,,,,,,,,,,,279,m,23,2023-04-04_17h36.54.912,RL,2022.2.4,60.160978782174794,
1,-0.3,-0.225,0,26,26,26,,,,,,,,,,None,437.3200840000063,437.3200840000063,437.3200840000063,437.3200840000063,437.3200840000063,437.3200840000063,i,0.7128385999239981,438.05361080006696,438.05361080006696,438.05361080006696,438.05361080006696,438.05361080006696,438.05361080006696,438.35111360019073,438.35111360019073,440.0460854000412,440.0460854000412,440.0460854000412,440.0460854000412,440.0460854000412,440.0460854000412,440.0460854000412,440.0460854000412,440.0460854000412,440.0460854000412,440.0460854000412,440.0460854000412,440.0460854000412,440.0460854000412,440.0460854000412,440.0460854000412,440.0460854000412,442.55522139999084,442.55522139999084,442.55522139999084,442.55522139999084,442.55522139999084,64,66,37,26,37,66,3.0,1.877815700136125,,,[],[],[],[],[],[],[],-0.2,2,,[],[],[],[],[],[],[],None,None,444.4594100001268,446.0132400000002,,,,,,,,,,,,,,,,,,,,,,,,,,,,,,279,m,23,2023-04-04_17h36.54.912,RL,2022.2.4,60.160978782174794,
0,0.3,0.225,0,27,27,27,,,,,,,,,,None,446.0132400000002,446.0132400000002,446.0132400000002,446.0132400000002,446.0132400000002,446.0132400000002,j,1.12664380017668,447.1623417001683,447.1623417001683,447.1623417001683,447.1623417001683,447.1623417001683,447.1623417001683,447.4595707000699,447.4595707000699,449.05470159999095,449.05470159999095,449.071671300102,449.071671300102,449.071671300102,449.071671300102,449.071671300102,449.071671300102,449.071671300102,449.071671300102,449.071671300102,449.071671300102,449.071671300102,449.071671300102,449.071671300102,449.071671300102,449.071671300102,,,,,,72,71,45,32,32,39,None,None,,,[],[],[],[],[],[],[],0.6,1,30,[0.006481481481481481],[-0.2814814814814815],[1],[0],[0],[6.180566000053659],['tijiao_random_2'],7.972222222222221,2.7840193000156432,460.58904210012406,462.53460250003263,,,451.59159470000304,451.59159470000304,451.59159470000304,451.59159470000304,451.59159470000304,451.59159470000304,451.59159470000304,451.59159470000304,0.005804599961265922,451.59159470000304,457.7870474001393,457.7870474001393,457.7870474001393,457.7870474001393,,,,,,,,,,,,,,279,m,23,2023-04-04_17h36.54.912,RL,2022.2.4,60.160978782174794,
1,-0.3,-0.225,0,28,28,28,,,,,,,,,,None,462.53460250003263,462.53460250003263,462.53460250003263,462.53460250003263,462.53460250003263,462.53460250003263,None,,,,,,,,,,,,,,,,,,,,,,,,,,,,,,,,69,79,55,23,0,**,None,None,,,[],[],[],[],[],[],[],0.6,0,,[],[],[],[],[],[],[],None,None,470.07996240002103,471.82572049996816,464.0685141000431,470.07996240002103,,,,,,,,,,,,,,,,,,,,,,,,,,,,279,m,23,2023-04-04_17h36.54.912,RL,2022.2.4,60.160978782174794,
0,0.3,0.225,0,29,29,29,,,,,,,,,,None,471.82572049996816,471.82572049996816,471.82572049996816,471.82572049996816,471.82572049996816,471.82572049996816,r,0.6163041000254452,472.4757036000956,472.4757036000956,472.4757036000956,472.4757036000956,472.4757036000956,472.4757036000956,472.77351580001414,472.77351580001414,474.1532587001566,474.1532587001566,474.1700042001903,474.1700042001903,474.1700042001903,474.1700042001903,474.1700042001903,474.1700042001903,474.1700042001903,474.1700042001903,474.1700042001903,474.1700042001903,474.1700042001903,474.1700042001903,474.1700042001903,474.1700042001903,474.1700042001903,,,,,,63,80,54,25,63,65,None,None,,,[],[],[],[],[],[],[],0.6,1,30,[0.024074074074074074],[-0.2898148148148148],[1],[0],[0],[4.867003499995917],['tijiao_random_2'],8.018518518518519,1.8374151999596506,483.42666110000573,484.9402656001039,,,476.69001960009336,476.69001960009336,476.69001960009336,476.69001960009336,476.69001960009336,476.69001960009336,476.69001960009336,476.69001960009336,0.007311100140213966,476.69001960009336,481.57154450006783,481.57154450006783,481.57154450006783,481.57154450006783,,,,,,,,,,,,,,279,m,23,2023-04-04_17h36.54.912,RL,2022.2.4,60.160978782174794,
1,-0.3,-0.225,0,30,30,30,,,,,,,,,,None,484.9402656001039,484.9402656001039,484.9402656001039,484.9402656001039,484.9402656001039,484.9402656001039,f,1.164797900011763,486.13760510017164,486.13760510017164,486.13760510017164,486.13760510017164,486.13760510017164,486.13760510017164,486.43645080015995,486.43645080015995,487.9990338999778,487.9990338999778,487.9990338999778,487.9990338999778,487.9990338999778,487.9990338999778,487.9990338999778,487.9990338999778,487.9990338999778,487.9990338999778,487.9990338999778,487.9990338999778,487.9990338999778,487.9990338999778,487.9990338999778,487.9990338999778,487.9990338999778,490.5075567001477,490.5075567001477,490.5075567001477,490.5075567001477,490.5075567001477,55,80,54,29,80,48,7.0,2.076854099985212,,,[],[],[],[],[],[],[],-0.6,3,,[],[],[],[],[],[],[],None,None,492.6133415000513,494.39784980006516,,,,,,,,,,,,,,,,,,,,,,,,,,,,,,279,m,23,2023-04-04_17h36.54.912,RL,2022.2.4,60.160978782174794,
0,0.3,0.225,0,31,31,31,,,,,,,,,,None,494.39784980006516,494.39784980006516,494.39784980006516,494.39784980006516,494.39784980006516,494.39784980006516,f,1.1042341000866145,495.52958400011994,495.52958400011994,495.52958400011994,495.52958400011994,495.52958400011994,495.52958400011994,495.827575000003,495.827575000003,497.62245690007694,497.62245690007694,497.62245690007694,497.62245690007694,497.62245690007694,497.62245690007694,497.62245690007694,497.62245690007694,497.62245690007694,497.62245690007694,497.62245690007694,497.62245690007694,497.62245690007694,497.62245690007694,497.62245690007694,497.62245690007694,497.62245690007694,,,,,,60,81,52,34,81,70,None,None,,,[],[],[],[],[],[],[],-0.2,1,80,[0.03981481481481482],[-0.2953703703703704],[1],[0],[0],[4.104290300048888],['tijiao_random_2'],9.944444444444443,2.003814200172201,506.28095440007746,508.2766087001655,,,500.14078400004655,500.14078400004655,500.14078400004655,500.14078400004655,500.14078400004655,500.14078400004655,500.14078400004655,500.14078400004655,0.006353000178933144,500.14078400004655,504.2587615000084,504.2587615000084,504.2587615000084,504.2587615000084,,,,,,,,,,,,,,279,m,23,2023-04-04_17h36.54.912,RL,2022.2.4,60.160978782174794,
1,-0.3,-0.225,0,32,32,32,,,,,,,,,,None,508.2766087001655,508.2766087001655,508.2766087001655,508.2766087001655,508.2766087001655,508.2766087001655,j,0.8033574000000954,509.10838300012983,509.10838300012983,509.10838300012983,509.10838300012983,509.10838300012983,509.10838300012983,509.4071810001042,509.4071810001042,510.28823320008814,510.28823320008814,510.28823320008814,510.28823320008814,510.28823320008814,510.28823320008814,510.28823320008814,510.28823320008814,510.28823320008814,510.28823320008814,510.28823320008814,510.28823320008814,510.28823320008814,510.28823320008814,510.28823320008814,510.28823320008814,510.28823320008814,512.7971799001098,512.7971799001098,512.7971799001098,512.7971799001098,512.7971799001098,62,74,46,19,19,64,1.0,2.109566899947822,,,[],[],[],[],[],[],[],-0.6,3,,[],[],[],[],[],[],[],None,None,514.9354719000403,516.5376025000587,,,,,,,,,,,,,,,,,,,,,,,,,,,,,,279,m,23,2023-04-04_17h36.54.912,RL,2022.2.4,60.160978782174794,
0,0.3,0.225,0,33,33,33,,,,,,,,,,None,516.5376025000587,516.5376025000587,516.5376025000587,516.5376025000587,516.5376025000587,516.5376025000587,i,0.5994743001647294,517.1695448001847,517.1695448001847,517.1695448001847,517.1695448001847,517.1695448001847,517.1695448001847,517.4681888001505,517.4681888001505,518.8146741001401,518.8146741001401,518.8146741001401,518.8146741001401,518.8146741001401,518.8146741001401,518.8146741001401,518.8146741001401,518.8146741001401,518.8146741001401,518.8146741001401,518.8146741001401,518.8146741001401,518.8146741001401,518.8146741001401,518.8146741001401,518.8146741001401,,,,,,63,79,57,29,57,40,None,None,40,40,[0.012962962962962963],[-0.2814814814814815],[1],[0],[0],[6.670754799852148],['tijiao'],0.6,0,,[],[],[],[],[],[],[],5.0092592592592595,3.0908979999367148,531.1298345001414,532.9259405001067,,,,,,,,,,,,,528.0199752000626,528.0199752000626,528.0199752000626,528.0199752000626,521.3265647999942,521.3265647999942,521.3265647999942,521.3265647999942,521.3265647999942,521.3265647999942,521.3265647999942,521.3265647999942,0.007413400104269385,521.3265647999942,,,,279,m,23,2023-04-04_17h36.54.912,RL,2022.2.4,60.160978782174794,
1,-0.3,-0.225,0,34,34,34,,,,,,,,,,None,532.9259405001067,532.9259405001067,532.9259405001067,532.9259405001067,532.9259405001067,532.9259405001067,r,0.44154060003347695,533.3945349999703,533.3945349999703,533.3945349999703,533.3945349999703,533.3945349999703,533.3945349999703,533.6905382000841,533.6905382000841,534.7214820000809,534.7214820000809,534.7214820000809,534.7214820000809,534.7214820000809,534.7214820000809,534.7214820000809,534.7214820000809,534.7214820000809,534.7214820000809,534.7214820000809,534.7214820000809,534.7214820000809,534.7214820000809,534.7214820000809,534.7214820000809,534.7214820000809,537.2300283000804,537.2300283000804,537.2300283000804,537.2300283000804,537.2300283000804,60,66,58,23,60,63,5.0,1.7949302999768406,,,[],[],[],[],[],[],[],-0.6,2,,[],[],[],[],[],[],[],None,None,539.0526078999974,540.6549476000946,,,,,,,,,,,,,,,,,,,,,,,,,,,,,,279,m,23,2023-04-04_17h36.54.912,RL,2022.2.4,60.160978782174794,
0,0.3,0.225,0,35,35,35,,,,,,,,,,None,540.6549476000946,540.6549476000946,540.6549476000946,540.6549476000946,540.6549476000946,540.6549476000946,f,0.7704158001579344,541.4549287001137,541.4549287001137,541.4549287001137,541.4549287001137,541.4549287001137,541.4549287001137,541.7519602000248,541.7519602000248,542.8992471001111,542.8992471001111,542.8992471001111,542.8992471001111,542.8992471001111,542.8992471001111,542.8992471001111,542.8992471001111,542.8992471001111,542.8992471001111,542.8992471001111,542.8992471001111,542.8992471001111,542.8992471001111,542.8992471001111,542.8992471001111,542.8992471001111,,,,,,61,66,60,24,66,59,None,None,60,60,[0.041666666666666664],[-0.29074074074074074],[1],[0],[0],[4.777108100010082],['tijiao'],-0.6,0,,[],[],[],[],[],[],[],7.944444444444445,1.8288153000175953,552.0561553000007,553.8351922000293,,,,,,,,,,,,,550.2082936000079,550.2082936000079,550.2082936000079,550.2082936000079,545.4101291999687,545.4101291999687,545.4101291999687,545.4101291999687,545.4101291999687,545.4101291999687,545.4101291999687,545.4101291999687,0.006643200060352683,545.4101291999687,,,,279,m,23,2023-04-04_17h36.54.912,RL,2022.2.4,60.160978782174794,
1,-0.3,-0.225,0,36,36,36,,,,,,,,,,None,553.8351922000293,553.8351922000293,553.8351922000293,553.8351922000293,553.8351922000293,553.8351922000293,f,0.9376870000269264,554.8018029001541,554.8018029001541,554.8018029001541,554.8018029001541,554.8018029001541,554.8018029001541,555.099160999991,555.099160999991,556.2958388000261,556.2958388000261,556.2958388000261,556.2958388000261,556.2958388000261,556.2958388000261,556.2958388000261,556.2958388000261,556.2958388000261,556.2958388000261,556.2958388000261,556.2958388000261,556.2958388000261,556.2958388000261,556.2958388000261,556.2958388000261,556.2958388000261,,,,,,60,79,49,17,79,73,None,None,80,80,[0.04351851851851852],[-0.29074074074074074],[1],[0],[0],[6.9376626999583095],['tijiao'],0.2,0,,[],[],[],[],[],[],[],9.981481481481481,1.2617894001305103,567.0485563999973,568.645046700025,,,,,,,,,,,,,565.7683476000093,565.7683476000093,565.7683476000093,565.7683476000093,558.8067570000421,558.8067570000421,558.8067570000421,558.8067570000421,558.8067570000421,558.8067570000421,558.8067570000421,558.8067570000421,0.006841100053861737,558.8067570000421,,,,279,m,23,2023-04-04_17h36.54.912,RL,2022.2.4,60.160978782174794,
0,0.3,0.225,0,37,37,37,,,,,,,,,,None,568.645046700025,568.645046700025,568.645046700025,568.645046700025,568.645046700025,568.645046700025,f,0.7959672999568284,569.461654300103,569.461654300103,569.461654300103,569.461654300103,569.461654300103,569.461654300103,569.7590233001392,569.7590233001392,570.7892412000801,570.7892412000801,570.7892412000801,570.7892412000801,570.7892412000801,570.7892412000801,570.7892412000801,570.7892412000801,570.7892412000801,570.7892412000801,570.7892412000801,570.7892412000801,570.7892412000801,570.7892412000801,570.7892412000801,570.7892412000801,570.7892412000801,,,,,,61,80,51,17,80,67,None,None,,,[],[],[],[],[],[],[],0.6,1,30,[-0.008333333333333333],[-0.28425925925925927],[1],[0],[0],[5.599050200078636],['tijiao_random_2'],7.972222222222221,3.6662701999302953,582.6061904001981,584.6017179000191,,,573.3084452999756,573.3084452999756,573.3084452999756,573.3084452999756,573.3084452999756,573.3084452999756,573.3084452999756,573.3084452999756,0.0072685000486671925,573.3084452999756,578.9210141000804,578.9210141000804,578.9210141000804,578.9210141000804,,,,,,,,,,,,,,279,m,23,2023-04-04_17h36.54.912,RL,2022.2.4,60.160978782174794,
1,-0.3,-0.225,0,38,38,38,,,,,,,,,,None,584.6017179000191,584.6017179000191,584.6017179000191,584.6017179000191,584.6017179000191,584.6017179000191,r,0.6959104998968542,585.3183214000892,585.3183214000892,585.3183214000892,585.3183214000892,585.3183214000892,585.3183214000892,585.6156888001133,585.6156888001133,587.0784308000002,587.0784308000002,587.0784308000002,587.0784308000002,587.0784308000002,587.0784308000002,587.0784308000002,587.0784308000002,587.0784308000002,587.0784308000002,587.0784308000002,587.0784308000002,587.0784308000002,587.0784308000002,587.0784308000002,587.0784308000002,587.0784308000002,,,,,,61,76,44,24,61,75,None,None,,,[],[],[],[],[],[],[],-0.2,1,70,[0.03148148148148148],[-0.2777777777777778],[1],[0],[0],[4.150636000093073],['tijiao_random_2'],8.962962962962962,2.5531959999352694,596.335274200188,597.9981227000244,,,589.5995426001027,589.5995426001027,589.5995426001027,589.5995426001027,589.5995426001027,589.5995426001027,589.5995426001027,589.5995426001027,0.006625100038945675,589.5995426001027,593.7638233001344,593.7638233001344,593.7638233001344,593.7638233001344,,,,,,,,,,,,,,279,m,23,2023-04-04_17h36.54.912,RL,2022.2.4,60.160978782174794,
0,0.3,0.225,0,39,39,39,,,,,,,,,,None,597.9981227000244,597.9981227000244,597.9981227000244,597.9981227000244,597.9981227000244,597.9981227000244,f,0.852593099931255,598.880569800036,598.880569800036,598.880569800036,598.880569800036,598.880569800036,598.880569800036,599.1789155001752,599.1789155001752,600.0264153999742,600.0264153999742,600.0264153999742,600.0264153999742,600.0264153999742,600.0264153999742,600.0264153999742,600.0264153999742,600.0264153999742,600.0264153999742,600.0264153999742,600.0264153999742,600.0264153999742,600.0264153999742,600.0264153999742,600.0264153999742,600.0264153999742,,,,,,47,74,50,9,74,49,None,None,70,70,[-0.02962962962962963],[-0.29814814814814816],[1],[0],[0],[5.839644400170073],['tijiao'],0.6,0,,[],[],[],[],[],[],[],7.944444444444445,2.078704599989578,610.4969558999874,612.226177399978,,,,,,,,,,,,,608.399213799974,608.399213799974,608.399213799974,608.399213799974,602.5385483000427,602.5385483000427,602.5385483000427,602.5385483000427,602.5385483000427,602.5385483000427,602.5385483000427,602.5385483000427,0.00743019999936223,602.5385483000427,,,,279,m,23,2023-04-04_17h36.54.912,RL,2022.2.4,60.160978782174794,
1,-0.3,-0.225,0,40,40,40,,,,,,,,,,None,612.226177399978,612.226177399978,612.226177399978,612.226177399978,612.226177399978,612.226177399978,r,0.8165686998981982,613.0770831000991,613.0770831000991,613.0770831000991,613.0770831000991,613.0770831000991,613.0770831000991,613.3733373000287,613.3733373000287,615.1518926001154,615.1518926001154,615.1518926001154,615.1518926001154,615.1518926001154,615.1518926001154,615.1518926001154,615.1518926001154,615.1518926001154,615.1518926001154,615.1518926001154,615.1518926001154,615.1518926001154,615.1518926001154,615.1518926001154,615.1518926001154,615.1518926001154,,,,,,52,73,49,19,52,53,None,None,,,[],[],[],[],[],[],[],0.2,1,40,[0.046296296296296294],[-0.26944444444444443],[1],[0],[0],[3.6708261999301612],['tijiao_random_2'],5.907407407407407,4.248029900016263,625.6220556001645,627.5677852001972,,,617.6716223000549,617.6716223000549,617.6716223000549,617.6716223000549,617.6716223000549,617.6716223000549,617.6716223000549,617.6716223000549,0.00672339997254312,617.6716223000549,621.3559886000585,621.3559886000585,621.3559886000585,621.3559886000585,,,,,,,,,,,,,,279,m,23,2023-04-04_17h36.54.912,RL,2022.2.4,60.160978782174794,
0,0.3,0.225,0,41,41,41,,,,,,,,,,None,627.5677852001972,627.5677852001972,627.5677852001972,627.5677852001972,627.5677852001972,627.5677852001972,i,0.4969520000740886,628.0849331000354,628.0849331000354,628.0849331000354,628.0849331000354,628.0849331000354,628.0849331000354,628.3821302000433,628.3821302000433,629.6123721001204,629.6123721001204,629.6123721001204,629.6123721001204,629.6123721001204,629.6123721001204,629.6123721001204,629.6123721001204,629.6123721001204,629.6123721001204,629.6123721001204,629.6123721001204,629.6123721001204,629.6123721001204,629.6123721001204,629.6123721001204,629.6123721001204,632.1215331000276,632.1215331000276,632.1215331000276,632.1215331000276,632.1215331000276,54,75,45,16,45,88,4.0,2.841033900156617,,,[],[],[],[],[],[],[],-0.2,3,,[],[],[],[],[],[],[],None,None,634.988275000127,636.7592996000312,,,,,,,,,,,,,,,,,,,,,,,,,,,,,,279,m,23,2023-04-04_17h36.54.912,RL,2022.2.4,60.160978782174794,
1,-0.3,-0.225,0,42,42,42,,,,,,,,,,None,636.7592996000312,636.7592996000312,636.7592996000312,636.7592996000312,636.7592996000312,636.7592996000312,f,0.637837499845773,637.4256504999939,637.4256504999939,637.4256504999939,637.4256504999939,637.4256504999939,637.4256504999939,637.7237840001471,637.7237840001471,639.2030784001108,639.2030784001108,639.2030784001108,639.2030784001108,639.2030784001108,639.2030784001108,639.2030784001108,639.2030784001108,639.2030784001108,639.2030784001108,639.2030784001108,639.2030784001108,639.2030784001108,639.2030784001108,639.2030784001108,639.2030784001108,639.2030784001108,,,,,,55,62,48,13,62,78,None,None,70,70,[-0.000925925925925926],[-0.2759259259259259],[1],[0],[0],[4.941528300056234],['tijiao'],-0.2,0,,[],[],[],[],[],[],[],7.962962962962963,1.8614668000955135,648.5594946001656,650.2886316999793,,,,,,,,,,,,,646.6792357000522,646.6792357000522,646.6792357000522,646.6792357000522,641.714682900114,641.714682900114,641.714682900114,641.714682900114,641.714682900114,641.714682900114,641.714682900114,641.714682900114,0.007713699946179986,641.714682900114,,,,279,m,23,2023-04-04_17h36.54.912,RL,2022.2.4,60.160978782174794,
0,0.3,0.225,0,43,43,43,,,,,,,,,,None,650.2886316999793,650.2886316999793,650.2886316999793,650.2886316999793,650.2886316999793,650.2886316999793,f,0.6469630999490619,650.9566405001096,650.9566405001096,650.9566405001096,650.9566405001096,650.9566405001096,650.9566405001096,651.253397700144,651.253397700144,652.3332758001052,652.3332758001052,652.3500751999673,652.3500751999673,652.3500751999673,652.3500751999673,652.3500751999673,652.3500751999673,652.3500751999673,652.3500751999673,652.3500751999673,652.3500751999673,652.3500751999673,652.3500751999673,652.3500751999673,652.3500751999673,652.3500751999673,654.8593482000288,654.8593482000288,654.8593482000288,654.8593482000288,654.8593482000288,49,64,49,20,64,88,3.0,2.0106398998759687,,,[],[],[],[],[],[],[],-0.2,3,,[],[],[],[],[],[],[],None,None,656.8964508001227,658.7157179000787,,,,,,,,,,,,,,,,,,,,,,,,,,,,,,279,m,23,2023-04-04_17h36.54.912,RL,2022.2.4,60.160978782174794,
1,-0.3,-0.225,0,44,44,44,,,,,,,,,,None,658.7157179000787,658.7157179000787,658.7157179000787,658.7157179000787,658.7157179000787,658.7157179000787,r,0.49263400002382696,659.233115500072,659.233115500072,659.233115500072,659.233115500072,659.233115500072,659.233115500072,659.5306969000958,659.5306969000958,661.3423602001276,661.3423602001276,661.3423602001276,661.3423602001276,661.3423602001276,661.3423602001276,661.3423602001276,661.3423602001276,661.3423602001276,661.3423602001276,661.3423602001276,661.3423602001276,661.3423602001276,661.3423602001276,661.3423602001276,661.3423602001276,661.3423602001276,663.8512662001885,663.8512662001885,663.8512662001885,663.8512662001885,663.8512662001885,46,66,43,13,46,88,2.0,1.66051089996472,,,[],[],[],[],[],[],[],-0.2,2,,[],[],[],[],[],[],[],None,None,665.5382474001963,667.1930208001286,,,,,,,,,,,,,,,,,,,,,,,,,,,,,,279,m,23,2023-04-04_17h36.54.912,RL,2022.2.4,60.160978782174794,
0,0.3,0.225,0,45,45,45,,,,,,,,,,None,667.1930208001286,667.1930208001286,667.1930208001286,667.1930208001286,667.1930208001286,667.1930208001286,f,0.8075633998960257,668.0253040001262,668.0253040001262,668.0253040001262,668.0253040001262,668.0253040001262,668.0253040001262,668.3235822001006,668.3235822001006,670.284769800026,670.284769800026,670.284769800026,670.284769800026,670.284769800026,670.284769800026,670.284769800026,670.284769800026,670.284769800026,670.284769800026,670.284769800026,670.284769800026,670.284769800026,670.284769800026,670.284769800026,670.284769800026,670.284769800026,,,,,,43,60,46,14,60,83,None,None,60,60,[0.037037037037037035],[-0.28703703703703703],[1],[0],[0],[4.36083500017412],['tijiao'],0.2,0,,[],[],[],[],[],[],[],6.018518518518519,2.8938972000032663,680.0901840999722,681.8031236000825,,,,,,,,,,,,,677.1772641001735,677.1772641001735,677.1772641001735,677.1772641001735,672.7955283001065,672.7955283001065,672.7955283001065,672.7955283001065,672.7955283001065,672.7955283001065,672.7955283001065,672.7955283001065,0.007030499866232276,672.7955283001065,,,,279,m,23,2023-04-04_17h36.54.912,RL,2022.2.4,60.160978782174794,
1,-0.3,-0.225,0,46,46,46,,,,,,,,,,None,681.8031236000825,681.8031236000825,681.8031236000825,681.8031236000825,681.8031236000825,681.8031236000825,i,0.8552043000236154,682.6845495000016,682.6845495000016,682.6845495000016,682.6845495000016,682.6845495000016,682.6845495000016,682.9834967001807,682.9834967001807,684.9614852999803,684.9614852999803,684.9614852999803,684.9614852999803,684.9614852999803,684.9614852999803,684.9614852999803,684.9614852999803,684.9614852999803,684.9614852999803,684.9614852999803,684.9614852999803,684.9614852999803,684.9614852999803,684.9614852999803,684.9614852999803,684.9614852999803,687.4707590001635,687.4707590001635,687.4707590001635,687.4707590001635,687.4707590001635,49,68,49,12,49,32,4.0,2.6920445000287145,,,[],[],[],[],[],[],[],0.2,3,,[],[],[],[],[],[],[],None,None,690.1890428001061,691.9920349000022,,,,,,,,,,,,,,,,,,,,,,,,,,,,,,279,m,23,2023-04-04_17h36.54.912,RL,2022.2.4,60.160978782174794,
0,0.3,0.225,0,47,47,47,,,,,,,,,,None,691.9920349000022,691.9920349000022,691.9920349000022,691.9920349000022,691.9920349000022,691.9920349000022,j,0.8320710000116378,692.8579921000637,692.8579921000637,692.8579921000637,692.8579921000637,692.8579921000637,692.8579921000637,693.1558370001148,693.1558370001148,694.4355153001379,694.4355153001379,694.4355153001379,694.4355153001379,694.4355153001379,694.4355153001379,694.4355153001379,694.4355153001379,694.4355153001379,694.4355153001379,694.4355153001379,694.4355153001379,694.4355153001379,694.4355153001379,694.4355153001379,694.4355153001379,694.4355153001379,,,,,,48,72,44,7,7,79,None,None,,,[],[],[],[],[],[],[],0.6,1,10,[0.03518518518518519],[-0.2916666666666667],[1],[0],[0],[4.719149600015953],['tijiao_random_2'],1.0462962962962965,2.2526197000406682,703.9582919001114,705.9707766000647,,,696.9542805000674,696.9542805000674,696.9542805000674,696.9542805000674,696.9542805000674,696.9542805000674,696.9542805000674,696.9542805000674,0.006698899902403355,696.9542805000674,701.6881331000477,701.6881331000477,701.6881331000477,701.6881331000477,,,,,,,,,,,,,,279,m,23,2023-04-04_17h36.54.912,RL,2022.2.4,60.160978782174794,
1,-0.3,-0.225,0,48,48,48,,,,,,,,,,None,705.9707766000647,705.9707766000647,705.9707766000647,705.9707766000647,705.9707766000647,705.9707766000647,j,0.6287769000045955,706.6204298001248,706.6204298001248,706.6204298001248,706.6204298001248,706.6204298001248,706.6204298001248,706.9181341000367,706.9181341000367,708.2811086999718,708.2811086999718,708.2811086999718,708.2811086999718,708.2811086999718,708.2811086999718,708.2811086999718,708.2811086999718,708.2811086999718,708.2811086999718,708.2811086999718,708.2811086999718,708.2811086999718,708.2811086999718,708.2811086999718,708.2811086999718,708.2811086999718,,,,,,59,77,41,10,10,44,None,None,,,[],[],[],[],[],[],[],0.6,1,15,[0.004629629629629629],[-0.3],[1],[0],[0],[4.800181900151074],['tijiao_random_2'],3.0,2.736048499820754,718.3688014000654,719.8821763000451,,,710.8012659000233,710.8012659000233,710.8012659000233,710.8012659000233,710.8012659000233,710.8012659000233,710.8012659000233,710.8012659000233,0.006972100120037794,710.8012659000233,715.6142322001979,715.6142322001979,715.6142322001979,715.6142322001979,,,,,,,,,,,,,,279,m,23,2023-04-04_17h36.54.912,RL,2022.2.4,60.160978782174794,
0,0.3,0.225,0,49,49,49,,,,,,,,,,None,719.8821763000451,719.8821763000451,719.8821763000451,719.8821763000451,719.8821763000451,719.8821763000451,j,0.8053010001312941,720.7156378000509,720.7156378000509,720.7156378000509,720.7156378000509,720.7156378000509,720.7156378000509,721.0128916001413,721.0128916001413,722.1266402001493,722.1266402001493,722.1266402001493,722.1266402001493,722.1266402001493,722.1266402001493,722.1266402001493,722.1266402001493,722.1266402001493,722.1266402001493,722.1266402001493,722.1266402001493,722.1266402001493,722.1266402001493,722.1266402001493,722.1266402001493,722.1266402001493,,,,,,62,69,48,9,9,82,None,None,,,[],[],[],[],[],[],[],-0.6,1,40,[-0.019444444444444445],[-0.3055555555555556],[1],[0],[0],[3.622757700039074],['tijiao_random_2'],6.953703703703703,5.113904899917543,733.4111758000217,735.1239438001066,,,724.6438442000654,724.6438442000654,724.6438442000654,724.6438442000654,724.6438442000654,724.6438442000654,724.6438442000654,724.6438442000654,0.006181600037962198,724.6438442000654,728.2788853000384,728.2788853000384,728.2788853000384,728.2788853000384,,,,,,,,,,,,,,279,m,23,2023-04-04_17h36.54.912,RL,2022.2.4,60.160978782174794,
1,-0.3,-0.225,0,50,50,50,,,,,,,,,,None,735.1239438001066,735.1239438001066,735.1239438001066,735.1239438001066,735.1239438001066,735.1239438001066,r,0.6697026998735964,735.8247303001117,735.8247303001117,735.8247303001117,735.8247303001117,735.8247303001117,735.8247303001117,736.1213956000283,736.1213956000283,738.0163279999979,738.0163279999979,738.0163279999979,738.0163279999979,738.0163279999979,738.0163279999979,738.0163279999979,738.0163279999979,738.0163279999979,738.0163279999979,738.0163279999979,738.0163279999979,738.0163279999979,738.0163279999979,738.0163279999979,738.0163279999979,738.0163279999979,740.5253676001448,740.5253676001448,740.5253676001448,740.5253676001448,740.5253676001448,56,62,41,9,56,82,6.0,1.7110060001723468,,,[],[],[],[],[],[],[],-0.2,2,,[],[],[],[],[],[],[],None,None,742.2647009000648,744.166162900161,,,,,,,,,,,,,,,,,,,,,,,,,,,,,,279,m,23,2023-04-04_17h36.54.912,RL,2022.2.4,60.160978782174794,
0,0.3,0.225,0,51,51,51,,,,,,,,,,None,744.166162900161,744.166162900161,744.166162900161,744.166162900161,744.166162900161,744.166162900161,f,0.9743704998400062,745.1649452000856,745.1649452000856,745.1649452000856,745.1649452000856,745.1649452000856,745.1649452000856,745.4631561001297,745.4631561001297,746.4600963999983,746.4600963999983,746.4600963999983,746.4600963999983,746.4600963999983,746.4600963999983,746.4600963999983,746.4600963999983,746.4600963999983,746.4600963999983,746.4600963999983,746.4600963999983,746.4600963999983,746.4600963999983,746.4600963999983,746.4600963999983,746.4600963999983,748.9694691000041,748.9694691000041,748.9694691000041,748.9694691000041,748.9694691000041,71,59,42,12,59,56,5.0,2.176533400081098,,,[],[],[],[],[],[],[],0.2,2,,[],[],[],[],[],[],[],None,None,751.1713248000015,753.0419332000893,,,,,,,,,,,,,,,,,,,,,,,,,,,,,,279,m,23,2023-04-04_17h36.54.912,RL,2022.2.4,60.160978782174794,
1,-0.3,-0.225,0,52,52,52,,,,,,,,,,None,753.0419332000893,753.0419332000893,753.0419332000893,753.0419332000893,753.0419332000893,753.0419332000893,f,0.7309341998770833,753.7905223001726,753.7905223001726,753.7905223001726,753.7905223001726,753.7905223001726,753.7905223001726,754.0896477000788,754.0896477000788,755.8179341000505,755.8179341000505,755.8179341000505,755.8179341000505,755.8179341000505,755.8179341000505,755.8179341000505,755.8179341000505,755.8179341000505,755.8179341000505,755.8179341000505,755.8179341000505,755.8179341000505,755.8179341000505,755.8179341000505,755.8179341000505,755.8179341000505,,,,,,67,64,31,15,64,89,None,None,,,[],[],[],[],[],[],[],-0.2,1,70,[-0.010185185185185186],[-0.2564814814814815],[1],[0],[0],[3.903281400213018],['tijiao_random_2'],8.064814814814815,3.733855800004676,766.0058546999935,767.7519201000687,,,758.3374742001761,758.3374742001761,758.3374742001761,758.3374742001761,758.3374742001761,758.3374742001761,758.3374742001761,758.3374742001761,0.00665390002541244,758.3374742001761,762.2530737000052,762.2530737000052,762.2530737000052,762.2530737000052,,,,,,,,,,,,,,279,m,23,2023-04-04_17h36.54.912,RL,2022.2.4,60.160978782174794,
0,0.3,0.225,0,53,53,53,,,,,,,,,,None,767.7519201000687,767.7519201000687,767.7519201000687,767.7519201000687,767.7519201000687,767.7519201000687,f,0.5981163999531418,768.3684785000514,768.3684785000514,768.3684785000514,768.3684785000514,768.3684785000514,768.3684785000514,768.6663164000493,768.6663164000493,769.5804743000772,769.5804743000772,769.5804743000772,769.5804743000772,769.5804743000772,769.5804743000772,769.5804743000772,769.5804743000772,769.5804743000772,769.5804743000772,769.5804743000772,769.5804743000772,769.5804743000772,769.5804743000772,769.5804743000772,769.5804743000772,769.5804743000772,,,,,,66,63,30,9,63,77,None,None,65,65,[0.018518518518518517],[-0.28703703703703703],[1],[0],[0],[3.6960994999390095],['tijiao'],-0.6,0,,[],[],[],[],[],[],[],9.99074074074074,2.5283039999194443,778.3553014001809,779.9685442000628,,,,,,,,,,,,,775.8085322000552,775.8085322000552,775.8085322000552,775.8085322000552,772.0917870001867,772.0917870001867,772.0917870001867,772.0917870001867,772.0917870001867,772.0917870001867,772.0917870001867,772.0917870001867,0.007026100065559149,772.0917870001867,,,,279,m,23,2023-04-04_17h36.54.912,RL,2022.2.4,60.160978782174794,
1,-0.3,-0.225,0,54,54,54,,,,,,,,,,None,779.9685442000628,779.9685442000628,779.9685442000628,779.9685442000628,779.9685442000628,779.9685442000628,f,0.5567067000083625,780.5514758001082,780.5514758001082,780.5514758001082,780.5514758001082,780.5514758001082,780.5514758001082,780.8493668001611,780.8493668001611,782.0296080000699,782.0296080000699,782.0296080000699,782.0296080000699,782.0296080000699,782.0296080000699,782.0296080000699,782.0296080000699,782.0296080000699,782.0296080000699,782.0296080000699,782.0296080000699,782.0296080000699,782.0296080000699,782.0296080000699,782.0296080000699,782.0296080000699,,,,,,51,70,37,14,70,50,None,None,70,70,[0.030555555555555555],[-0.2796296296296296],[1],[0],[0],[4.227754399878904],['tijiao'],0.2,0,,[],[],[],[],[],[],[],9.99074074074074,2.860909500159323,791.6688512000255,793.5480556001421,,,,,,,,,,,,,788.7895824001171,788.7895824001171,788.7895824001171,788.7895824001171,784.5419048999902,784.5419048999902,784.5419048999902,784.5419048999902,784.5419048999902,784.5419048999902,784.5419048999902,784.5419048999902,0.007487499853596091,784.5419048999902,,,,279,m,23,2023-04-04_17h36.54.912,RL,2022.2.4,60.160978782174794,
0,0.3,0.225,0,55,55,55,,,,,,,,,,None,793.5480556001421,793.5480556001421,793.5480556001421,793.5480556001421,793.5480556001421,793.5480556001421,f,0.4640291000250727,794.031210300047,794.031210300047,794.031210300047,794.031210300047,794.031210300047,794.031210300047,794.3296390001196,794.3296390001196,795.4929937000852,795.4929937000852,795.4929937000852,795.4929937000852,795.4929937000852,795.4929937000852,795.4929937000852,795.4929937000852,795.4929937000852,795.4929937000852,795.4929937000852,795.4929937000852,795.4929937000852,795.4929937000852,795.4929937000852,795.4929937000852,795.4929937000852,798.002396899974,798.002396899974,798.002396899974,798.002396899974,798.002396899974,53,61,35,5,61,89,4.0,2.791739100124687,,,[],[],[],[],[],[],[],0.2,2,,[],[],[],[],[],[],[],None,None,800.8210450999904,802.7895729001611,,,,,,,,,,,,,,,,,,,,,,,,,,,,,,279,m,23,2023-04-04_17h36.54.912,RL,2022.2.4,60.160978782174794,
1,-0.3,-0.225,0,56,56,56,,,,,,,,,,None,802.7895729001611,802.7895729001611,802.7895729001611,802.7895729001611,802.7895729001611,802.7895729001611,r,0.7948889001272619,803.6050627001096,803.6050627001096,803.6050627001096,803.6050627001096,803.6050627001096,803.6050627001096,803.9035524001811,803.9035524001811,805.3328544001561,805.3328544001561,805.3328544001561,805.3328544001561,805.3328544001561,805.3328544001561,805.3328544001561,805.3328544001561,805.3328544001561,805.3328544001561,805.3328544001561,805.3328544001561,805.3328544001561,805.3328544001561,805.3328544001561,805.3328544001561,805.3328544001561,,,,,,41,73,22,13,41,92,None,None,,,[],[],[],[],[],[],[],0.6,1,15,[0.009259259259259259],[-0.31296296296296294],[1],[0],[0],[4.053877199999988],['tijiao_random_2'],6.9907407407407405,2.6199558000080287,814.5563457000535,816.4356160000898,,,807.8513682000339,807.8513682000339,807.8513682000339,807.8513682000339,807.8513682000339,807.8513682000339,807.8513682000339,807.8513682000339,0.006323200184851885,807.8513682000339,811.9176678999793,811.9176678999793,811.9176678999793,811.9176678999793,,,,,,,,,,,,,,279,m,23,2023-04-04_17h36.54.912,RL,2022.2.4,60.160978782174794,
0,0.3,0.225,0,57,57,57,,,,,,,,,,None,816.4356160000898,816.4356160000898,816.4356160000898,816.4356160000898,816.4356160000898,816.4356160000898,i,0.5717120999470353,817.0350970001891,817.0350970001891,817.0350970001891,817.0350970001891,817.0350970001891,817.0350970001891,817.3335641000886,817.3335641000886,818.9289353000931,818.9289353000931,818.9289353000931,818.9289353000931,818.9289353000931,818.9289353000931,818.9289353000931,818.9289353000931,818.9289353000931,818.9289353000931,818.9289353000931,818.9289353000931,818.9289353000931,818.9289353000931,818.9289353000931,818.9289353000931,818.9289353000931,821.4378455001861,821.4378455001861,821.4378455001861,821.4378455001861,821.4378455001861,43,65,28,4,28,50,2.0,2.0768050998449326,,,[],[],[],[],[],[],[],0.6,3,,[],[],[],[],[],[],[],None,None,823.5423236000352,825.5108527999837,,,,,,,,,,,,,,,,,,,,,,,,,,,,,,279,m,23,2023-04-04_17h36.54.912,RL,2022.2.4,60.160978782174794,
1,-0.3,-0.225,0,58,58,58,,,,,,,,,,None,825.5108527999837,825.5108527999837,825.5108527999837,825.5108527999837,825.5108527999837,825.5108527999837,f,0.7584060998633504,826.292804799974,826.292804799974,826.292804799974,826.292804799974,826.292804799974,826.292804799974,826.5916520999745,826.5916520999745,828.6025537000969,828.6025537000969,828.6025537000969,828.6025537000969,828.6025537000969,828.6025537000969,828.6025537000969,828.6025537000969,828.6025537000969,828.6025537000969,828.6025537000969,828.6025537000969,828.6025537000969,828.6025537000969,828.6025537000969,828.6025537000969,828.6025537000969,831.1116041000932,831.1116041000932,831.1116041000932,831.1116041000932,831.1116041000932,51,66,22,11,66,82,4.0,3.0745395000558347,,,[],[],[],[],[],[],[],-0.2,3,,[],[],[],[],[],[],[],None,None,834.2114492000546,836.1650823999662,,,,,,,,,,,,,,,,,,,,,,,,,,,,,,279,m,23,2023-04-04_17h36.54.912,RL,2022.2.4,60.160978782174794,
0,0.3,0.225,0,59,59,59,,,,,,,,,,None,836.1650823999662,836.1650823999662,836.1650823999662,836.1650823999662,836.1650823999662,836.1650823999662,f,0.8491022000089288,837.0469108000398,837.0469108000398,837.0469108000398,837.0469108000398,837.0469108000398,837.0469108000398,837.345594700193,837.345594700193,839.3401631000452,839.3401631000452,839.3401631000452,839.3401631000452,839.3401631000452,839.3401631000452,839.3401631000452,839.3401631000452,839.3401631000452,839.3401631000452,839.3401631000452,839.3401631000452,839.3401631000452,839.3401631000452,839.3401631000452,839.3401631000452,839.3401631000452,,,,,,36,72,29,13,72,84,None,None,,,[],[],[],[],[],[],[],0.2,1,40,[-0.037037037037037035],[-0.29814814814814816],[1],[0],[0],[5.23475500009954],['tijiao_random_2'],4.935185185185185,2.8339088999200612,849.9598670999985,851.9388047000393,,,841.8585368001368,841.8585368001368,841.8585368001368,841.8585368001368,841.8585368001368,841.8585368001368,841.8585368001368,841.8585368001368,0.0066727998200803995,841.8585368001368,847.1081807999872,847.1081807999872,847.1081807999872,847.1081807999872,,,,,,,,,,,,,,279,m,23,2023-04-04_17h36.54.912,RL,2022.2.4,60.160978782174794,
1,-0.3,-0.225,0,60,60,60,,,,,,,,,,None,851.9388047000393,851.9388047000393,851.9388047000393,851.9388047000393,851.9388047000393,851.9388047000393,r,1.1269458997994661,853.0875548000913,853.0875548000913,853.0875548000913,853.0875548000913,853.0875548000913,853.0875548000913,853.3852071000729,853.3852071000729,855.1301602001768,855.1301602001768,855.1301602001768,855.1301602001768,855.1301602001768,855.1301602001768,855.1301602001768,855.1301602001768,855.1301602001768,855.1301602001768,855.1301602001768,855.1301602001768,855.1301602001768,855.1301602001768,855.1301602001768,855.1301602001768,855.1301602001768,857.6392988001462,857.6392988001462,857.6392988001462,857.6392988001462,857.6392988001462,48,58,37,5,48,83,6.0,3.0411199999507517,,,[],[],[],[],[],[],[],-0.6,2,,[],[],[],[],[],[],[],None,None,860.7064642000478,862.6097681999672,,,,,,,,,,,,,,,,,,,,,,,,,,,,,,279,m,23,2023-04-04_17h36.54.912,RL,2022.2.4,60.160978782174794,
0,0.3,0.225,0,61,61,61,,,,,,,,,,None,862.6097681999672,862.6097681999672,862.6097681999672,862.6097681999672,862.6097681999672,862.6097681999672,f,0.756920900195837,863.3918755000923,863.3918755000923,863.3918755000923,863.3918755000923,863.3918755000923,863.3918755000923,863.690275200177,863.690275200177,864.8372301000636,864.8372301000636,864.8372301000636,864.8372301000636,864.8372301000636,864.8372301000636,864.8372301000636,864.8372301000636,864.8372301000636,864.8372301000636,864.8372301000636,864.8372301000636,864.8372301000636,864.8372301000636,864.8372301000636,864.8372301000636,864.8372301000636,,,,,,39,58,34,12,58,81,None,None,,,[],[],[],[],[],[],[],0.2,1,30,[0.005555555555555556],[-0.2953703703703704],[1],[0],[0],[5.666510500013828],['tijiao_random_2'],6.009259259259259,2.5688951001502573,875.6231588001829,877.5353475001175,,,867.355574300047,867.355574300047,867.355574300047,867.355574300047,867.355574300047,867.355574300047,867.355574300047,867.355574300047,0.006864900002256036,867.355574300047,873.0362266001757,873.0362266001757,873.0362266001757,873.0362266001757,,,,,,,,,,,,,,279,m,23,2023-04-04_17h36.54.912,RL,2022.2.4,60.160978782174794,
1,-0.3,-0.225,0,62,62,62,,,,,,,,,,None,877.5353475001175,877.5353475001175,877.5353475001175,877.5353475001175,877.5353475001175,877.5353475001175,f,0.6835497000720352,878.2506771001499,878.2506771001499,878.2506771001499,878.2506771001499,878.2506771001499,878.2506771001499,878.5497411000542,878.5497411000542,879.496806900017,879.496806900017,879.496806900017,879.496806900017,879.496806900017,879.496806900017,879.496806900017,879.496806900017,879.496806900017,879.496806900017,879.496806900017,879.496806900017,879.496806900017,879.496806900017,879.496806900017,879.496806900017,879.496806900017,882.0059128000867,882.0059128000867,882.0059128000867,882.0059128000867,882.0059128000867,51,56,48,22,56,71,2.0,2.209941199980676,,,[],[],[],[],[],[],[],0.2,2,,[],[],[],[],[],[],[],None,None,884.2440639000852,885.9626850001514,,,,,,,,,,,,,,,,,,,,,,,,,,,,,,279,m,23,2023-04-04_17h36.54.912,RL,2022.2.4,60.160978782174794,
0,0.3,0.225,0,63,63,63,,,,,,,,,,None,885.9626850001514,885.9626850001514,885.9626850001514,885.9626850001514,885.9626850001514,885.9626850001514,i,0.8245934001170099,886.8121198001318,886.8121198001318,886.8121198001318,886.8121198001318,886.8121198001318,886.8121198001318,887.1097907000221,887.1097907000221,888.7216323001776,888.7216323001776,888.7216323001776,888.7216323001776,888.7216323001776,888.7216323001776,888.7216323001776,888.7216323001776,888.7216323001776,888.7216323001776,888.7216323001776,888.7216323001776,888.7216323001776,888.7216323001776,888.7216323001776,888.7216323001776,888.7216323001776,,,,,,54,55,53,16,53,77,None,None,50,50,[0.013888888888888888],[-0.29259259259259257],[1],[0],[0],[5.308013999834657],['tijiao'],-0.2,0,,[],[],[],[],[],[],[],6.0,3.7245263000950217,900.3058790001087,902.1351646000985,,,,,,,,,,,,,896.5622162001673,896.5622162001673,896.5622162001673,896.5622162001673,891.2336627000477,891.2336627000477,891.2336627000477,891.2336627000477,891.2336627000477,891.2336627000477,891.2336627000477,891.2336627000477,0.007198199862614274,891.2336627000477,,,,279,m,23,2023-04-04_17h36.54.912,RL,2022.2.4,60.160978782174794,
1,-0.3,-0.225,0,64,64,64,,,,,,,,,,None,902.1351646000985,902.1351646000985,902.1351646000985,902.1351646000985,902.1351646000985,902.1351646000985,j,1.068000900093466,903.2332826000638,903.2332826000638,903.2332826000638,903.2332826000638,903.2332826000638,903.2332826000638,903.5316642001271,903.5316642001271,904.8777436001692,904.8777436001692,904.8777436001692,904.8777436001692,904.8777436001692,904.8777436001692,904.8777436001692,904.8777436001692,904.8777436001692,904.8777436001692,904.8777436001692,904.8777436001692,904.8777436001692,904.8777436001692,904.8777436001692,904.8777436001692,904.8777436001692,,,,,,53,59,50,25,25,68,None,None,,,[],[],[],[],[],[],[],-0.2,1,60,[0.019444444444444445],[-0.27685185185185185],[1],[0],[0],[4.4700378000270575],['tijiao_random_2'],7.9907407407407405,3.465863599907607,915.364678800106,917.3105276001152,,,907.396020400105,907.396020400105,907.396020400105,907.396020400105,907.396020400105,907.396020400105,907.396020400105,907.396020400105,0.006683399900794029,907.396020400105,911.8807924001012,911.8807924001012,911.8807924001012,911.8807924001012,,,,,,,,,,,,,,279,m,23,2023-04-04_17h36.54.912,RL,2022.2.4,60.160978782174794,
0,0.3,0.225,0,65,65,65,,,,,,,,,,None,917.3105276001152,917.3105276001152,917.3105276001152,917.3105276001152,917.3105276001152,917.3105276001152,f,0.5905175998341292,917.92884100019,917.92884100019,917.92884100019,917.92884100019,917.92884100019,917.92884100019,918.2249539999757,918.2249539999757,920.0196629001293,920.0196629001293,920.0196629001293,920.0196629001293,920.0196629001293,920.0196629001293,920.0196629001293,920.0196629001293,920.0196629001293,920.0196629001293,920.0196629001293,920.0196629001293,920.0196629001293,920.0196629001293,920.0196629001293,920.0196629001293,920.0196629001293,922.5291040001903,922.5291040001903,922.5291040001903,922.5291040001903,922.5291040001903,55,62,45,19,62,67,5.0,2.1766802999190986,,,[],[],[],[],[],[],[],-0.6,2,,[],[],[],[],[],[],[],None,None,924.7346542000305,926.684864600189,,,,,,,,,,,,,,,,,,,,,,,,,,,,,,279,m,23,2023-04-04_17h36.54.912,RL,2022.2.4,60.160978782174794,
1,-0.3,-0.225,0,66,66,66,,,,,,,,,,None,926.684864600189,926.684864600189,926.684864600189,926.684864600189,926.684864600189,926.684864600189,r,0.5734953999053687,927.2856829999946,927.2856829999946,927.2856829999946,927.2856829999946,927.2856829999946,927.2856829999946,927.5827544000931,927.5827544000931,928.5967306001112,928.5967306001112,928.5967306001112,928.5967306001112,928.5967306001112,928.5967306001112,928.5967306001112,928.5967306001112,928.5967306001112,928.5967306001112,928.5967306001112,928.5967306001112,928.5967306001112,928.5967306001112,928.5967306001112,928.5967306001112,928.5967306001112,931.1055020000786,931.1055020000786,931.1055020000786,931.1055020000786,931.1055020000786,58,62,48,23,58,59,5.0,2.093893399927765,,,[],[],[],[],[],[],[],-0.2,3,,[],[],[],[],[],[],[],None,None,933.2271037001628,935.0784366000444,,,,,,,,,,,,,,,,,,,,,,,,,,,,,,279,m,23,2023-04-04_17h36.54.912,RL,2022.2.4,60.160978782174794,
0,0.3,0.225,0,67,67,67,,,,,,,,,,None,935.0784366000444,935.0784366000444,935.0784366000444,935.0784366000444,935.0784366000444,935.0784366000444,f,0.672426899895072,935.7767555001192,935.7767555001192,935.7767555001192,935.7767555001192,935.7767555001192,935.7767555001192,936.0760255001951,936.0760255001951,936.9899111001287,936.9899111001287,936.9899111001287,936.9899111001287,936.9899111001287,936.9899111001287,936.9899111001287,936.9899111001287,936.9899111001287,936.9899111001287,936.9899111001287,936.9899111001287,936.9899111001287,936.9899111001287,936.9899111001287,936.9899111001287,936.9899111001287,,,,,,59,59,40,21,59,55,None,None,,,[],[],[],[],[],[],[],0.6,1,20,[0.013888888888888888],[-0.275],[1],[0],[0],[4.1856603000778705],['tijiao_random_2'],9.907407407407407,2.1701650000177324,945.8982375999913,947.6775779000018,,,939.5110864001326,939.5110864001326,939.5110864001326,939.5110864001326,939.5110864001326,939.5110864001326,939.5110864001326,939.5110864001326,0.006741699995473027,939.5110864001326,943.7094972000923,943.7094972000923,943.7094972000923,943.7094972000923,,,,,,,,,,,,,,279,m,23,2023-04-04_17h36.54.912,RL,2022.2.4,60.160978782174794,
1,-0.3,-0.225,0,68,68,68,,,,,,,,,,None,947.6775779000018,947.6775779000018,947.6775779000018,947.6775779000018,947.6775779000018,947.6775779000018,i,0.9727918000426143,948.676116200164,948.676116200164,948.676116200164,948.676116200164,948.676116200164,948.676116200164,948.9742130001541,948.9742130001541,950.5034698001109,950.5034698001109,950.5034698001109,950.5034698001109,950.5034698001109,950.5034698001109,950.5034698001109,950.5034698001109,950.5034698001109,950.5034698001109,950.5034698001109,950.5034698001109,950.5034698001109,950.5034698001109,950.5034698001109,950.5034698001109,950.5034698001109,,,,,,64,52,41,25,41,60,None,None,,,[],[],[],[],[],[],[],0.6,1,15,[0.03425925925925926],[-0.29814814814814816],[1],[0],[0],[4.485498100053519],['tijiao_random_2'],9.092592592592592,3.118363599991426,960.6577898000833,962.3705033001024,,,953.0226765000261,953.0226765000261,953.0226765000261,953.0226765000261,953.0226765000261,953.0226765000261,953.0226765000261,953.0226765000261,0.006442199926823378,953.0226765000261,957.520552800037,957.520552800037,957.520552800037,957.520552800037,,,,,,,,,,,,,,279,m,23,2023-04-04_17h36.54.912,RL,2022.2.4,60.160978782174794,
0,0.3,0.225,0,69,69,69,,,,,,,,,,None,962.3705033001024,962.3705033001024,962.3705033001024,962.3705033001024,962.3705033001024,962.3705033001024,f,0.8175764998886734,963.2201853999868,963.2201853999868,963.2201853999868,963.2201853999868,963.2201853999868,963.2201853999868,963.5176835001912,963.5176835001912,964.5979333000723,964.5979333000723,964.5979333000723,964.5979333000723,964.5979333000723,964.5979333000723,964.5979333000723,964.5979333000723,964.5979333000723,964.5979333000723,964.5979333000723,964.5979333000723,964.5979333000723,964.5979333000723,964.5979333000723,964.5979333000723,964.5979333000723,,,,,,62,56,36,20,56,59,None,None,,,[],[],[],[],[],[],[],-0.2,1,60,[0.02962962962962963],[-0.2953703703703704],[1],[0],[0],[4.701410100096837],['tijiao_random_2'],9.037037037037036,1.6551308000925928,973.505965600023,975.285329699982,,,967.1182525001932,967.1182525001932,967.1182525001932,967.1182525001932,967.1182525001932,967.1182525001932,967.1182525001932,967.1182525001932,0.007268799934536219,967.1182525001932,971.8324902001768,971.8324902001768,971.8324902001768,971.8324902001768,,,,,,,,,,,,,,279,m,23,2023-04-04_17h36.54.912,RL,2022.2.4,60.160978782174794,
1,-0.3,-0.225,0,70,70,70,,,,,,,,,,None,975.285329699982,975.285329699982,975.285329699982,975.285329699982,975.285329699982,975.285329699982,i,0.9218570999801159,976.2344431001693,976.2344431001693,976.2344431001693,976.2344431001693,976.2344431001693,976.2344431001693,976.532224799972,976.532224799972,977.6789741001558,977.6789741001558,977.6789741001558,977.6789741001558,977.6789741001558,977.6789741001558,977.6789741001558,977.6789741001558,977.6789741001558,977.6789741001558,977.6789741001558,977.6789741001558,977.6789741001558,977.6789741001558,977.6789741001558,977.6789741001558,977.6789741001558,980.188299600035,980.188299600035,980.188299600035,980.188299600035,980.188299600035,62,54,37,18,37,61,3.0,2.592127999989316,,,[],[],[],[],[],[],[],-0.6,2,,[],[],[],[],[],[],[],None,None,982.8063376001082,984.393955500098,,,,,,,,,,,,,,,,,,,,,,,,,,,,,,279,m,23,2023-04-04_17h36.54.912,RL,2022.2.4,60.160978782174794,
0,0.3,0.225,0,71,71,71,,,,,,,,,,None,984.393955500098,984.393955500098,984.393955500098,984.393955500098,984.393955500098,984.393955500098,i,0.8862551001366228,985.309420700185,985.309420700185,985.309420700185,985.309420700185,985.309420700185,985.309420700185,985.607705200091,985.607705200091,986.8708085000981,986.8708085000981,986.8708085000981,986.8708085000981,986.8708085000981,986.8708085000981,986.8708085000981,986.8708085000981,986.8708085000981,986.8708085000981,986.8708085000981,986.8708085000981,986.8708085000981,986.8708085000981,986.8708085000981,986.8708085000981,986.8708085000981,989.3799546000082,989.3799546000082,989.3799546000082,989.3799546000082,989.3799546000082,57,51,34,16,34,43,2.0,2.043516800040379,,,[],[],[],[],[],[],[],-0.6,3,,[],[],[],[],[],[],[],None,None,991.450913600158,993.0703688000795,,,,,,,,,,,,,,,,,,,,,,,,,,,,,,279,m,23,2023-04-04_17h36.54.912,RL,2022.2.4,60.160978782174794,
1,-0.3,-0.225,0,72,72,72,,,,,,,,,,None,993.0703688000795,993.0703688000795,993.0703688000795,993.0703688000795,993.0703688000795,993.0703688000795,f,0.5575030997861177,993.6523589000572,993.6523589000572,993.6523589000572,993.6523589000572,993.6523589000572,993.6523589000572,993.9516190001741,993.9516190001741,994.9820569001604,994.9820569001604,994.9820569001604,994.9820569001604,994.9820569001604,994.9820569001604,994.9820569001604,994.9820569001604,994.9820569001604,994.9820569001604,994.9820569001604,994.9820569001604,994.9820569001604,994.9820569001604,994.9820569001604,994.9820569001604,994.9820569001604,,,,,,57,54,41,23,54,44,None,None,60,60,[0.001851851851851852],[-0.31203703703703706],[1],[0],[0],[4.394213599851355],['tijiao'],-0.2,0,,[],[],[],[],[],[],[],9.935185185185187,1.3792216000147164,1003.3080823000055,1005.1208222999703,,,,,,,,,,,,,1001.9101953001227,1001.9101953001227,1001.9101953001227,1001.9101953001227,997.4935266000684,997.4935266000684,997.4935266000684,997.4935266000684,997.4935266000684,997.4935266000684,997.4935266000684,997.4935266000684,0.007570699788630009,997.4935266000684,,,,279,m,23,2023-04-04_17h36.54.912,RL,2022.2.4,60.160978782174794,
0,0.3,0.225,0,73,73,73,,,,,,,,,,None,1005.1208222999703,1005.1208222999703,1005.1208222999703,1005.1208222999703,1005.1208222999703,1005.1208222999703,f,1.0486205001361668,1006.2024578000419,1006.2024578000419,1006.2024578000419,1006.2024578000419,1006.2024578000419,1006.2024578000419,1006.5007050000131,1006.5007050000131,1007.7971366001293,1007.7971366001293,1007.7971366001293,1007.7971366001293,1007.7971366001293,1007.7971366001293,1007.7971366001293,1007.7971366001293,1007.7971366001293,1007.7971366001293,1007.7971366001293,1007.7971366001293,1007.7971366001293,1007.7971366001293,1007.7971366001293,1007.7971366001293,1007.7971366001293,,,,,,38,60,43,25,60,52,None,None,,,[],[],[],[],[],[],[],0.6,1,15,[0.05185185185185185],[-0.25833333333333336],[1],[0],[0],[4.552335599903017],['tijiao_random_2'],9.99074074074074,1.9372002000454813,1016.8378902999684,1018.4345217000227,,,1010.3163517001085,1010.3163517001085,1010.3163517001085,1010.3163517001085,1010.3163517001085,1010.3163517001085,1010.3163517001085,1010.3163517001085,0.007230999879539013,1010.3163517001085,1014.8827254001517,1014.8827254001517,1014.8827254001517,1014.8827254001517,,,,,,,,,,,,,,279,m,23,2023-04-04_17h36.54.912,RL,2022.2.4,60.160978782174794,
1,-0.3,-0.225,0,74,74,74,,,,,,,,,,None,1018.4345217000227,1018.4345217000227,1018.4345217000227,1018.4345217000227,1018.4345217000227,1018.4345217000227,f,0.6965105999261141,1019.1495990001131,1019.1495990001131,1019.1495990001131,1019.1495990001131,1019.1495990001131,1019.1495990001131,1019.4482997001614,1019.4482997001614,1020.6285490000155,1020.6285490000155,1020.6285490000155,1020.6285490000155,1020.6285490000155,1020.6285490000155,1020.6285490000155,1020.6285490000155,1020.6285490000155,1020.6285490000155,1020.6285490000155,1020.6285490000155,1020.6285490000155,1020.6285490000155,1020.6285490000155,1020.6285490000155,1020.6285490000155,,,,,,52,63,40,23,63,64,None,None,,,[],[],[],[],[],[],[],0.2,1,40,[-0.010185185185185186],[-0.29814814814814816],[1],[0],[0],[4.900833999970928],['tijiao_random_2'],8.935185185185185,1.8539317001122981,1029.9354475000873,1031.4653114001267,,,1023.1483142001089,1023.1483142001089,1023.1483142001089,1023.1483142001089,1023.1483142001089,1023.1483142001089,1023.1483142001089,1023.1483142001089,0.007236199919134378,1023.1483142001089,1028.0639442000538,1028.0639442000538,1028.0639442000538,1028.0639442000538,,,,,,,,,,,,,,279,m,23,2023-04-04_17h36.54.912,RL,2022.2.4,60.160978782174794,
0,0.3,0.225,0,75,75,75,,,,,,,,,,q,1091.3865040000528,1091.3865040000528,1091.3865040000528,1091.3865040000528,1091.3865040000528,1091.3865040000528,r,0.9569832000415772,1092.368094400037,1092.368094400037,1092.368094400037,1092.368094400037,1092.368094400037,1092.368094400037,1092.6656206999905,1092.6656206999905,1093.8123704001773,1093.8123704001773,1093.8123704001773,1093.8123704001773,1093.8123704001773,1093.8123704001773,1093.8123704001773,1093.8123704001773,1093.8123704001773,1093.8123704001773,1093.8123704001773,1093.8123704001773,1093.8123704001773,1093.8123704001773,1093.8123704001773,1093.8123704001773,1093.8123704001773,,,,,,50,55,44,18,50,61,None,None,60,60,[0.058333333333333334],[-0.2851851851851852],[1],[0],[0],[4.910462499829009],['tijiao'],-0.2,0,,[],[],[],[],[],[],[],1.925925925925926,3.357122000074014,1104.6318332001101,1106.4273432001937,,,,,,,,,,,,,1101.2551480999682,1101.2551480999682,1101.2551480999682,1101.2551480999682,1096.3227433001157,1096.3227433001157,1096.3227433001157,1096.3227433001157,1096.3227433001157,1096.3227433001157,1096.3227433001157,1096.3227433001157,0.006260299822315574,1096.3227433001157,1031.4653114001267,1031.4653114001267,59.88952419999987,279,m,23,2023-04-04_17h36.54.912,RL,2022.2.4,60.160978782174794,
1,-0.3,-0.225,0,76,76,76,,,,,,,,,,None,1106.4273432001937,1106.4273432001937,1106.4273432001937,1106.4273432001937,1106.4273432001937,1106.4273432001937,f,0.5587736999150366,1107.0099597000517,1107.0099597000517,1107.0099597000517,1107.0099597000517,1107.0099597000517,1107.0099597000517,1107.3089136001654,1107.3089136001654,1108.7877811000217,1108.7877811000217,1108.7877811000217,1108.7877811000217,1108.7877811000217,1108.7877811000217,1108.7877811000217,1108.7877811000217,1108.7877811000217,1108.7877811000217,1108.7877811000217,1108.7877811000217,1108.7877811000217,1108.7877811000217,1108.7877811000217,1108.7877811000217,1108.7877811000217,,,,,,45,60,34,12,60,53,None,None,60,60,[0.03888888888888889],[-0.262037037037037],[1],[0],[0],[4.110837100073695],['tijiao'],0.6,0,,[],[],[],[],[],[],[],7.018518518518519,3.2077244999818504,1118.6598732999992,1120.3062659001444,,,,,,,,,,,,,1115.4336420001928,1115.4336420001928,1115.4336420001928,1115.4336420001928,1111.3007332000416,1111.3007332000416,1111.3007332000416,1111.3007332000416,1111.3007332000416,1111.3007332000416,1111.3007332000416,1111.3007332000416,0.007914799964055419,1111.3007332000416,,,,279,m,23,2023-04-04_17h36.54.912,RL,2022.2.4,60.160978782174794,
0,0.3,0.225,0,77,77,77,,,,,,,,,,None,1120.3062659001444,1120.3062659001444,1120.3062659001444,1120.3062659001444,1120.3062659001444,1120.3062659001444,i,0.49245040002278984,1120.8227066001855,1120.8227066001855,1120.8227066001855,1120.8227066001855,1120.8227066001855,1120.8227066001855,1121.1212224999908,1121.1212224999908,1122.783226000145,1122.783226000145,1122.800036800094,1122.800036800094,1122.800036800094,1122.800036800094,1122.800036800094,1122.800036800094,1122.800036800094,1122.800036800094,1122.800036800094,1122.800036800094,1122.800036800094,1122.800036800094,1122.800036800094,1122.800036800094,1122.800036800094,1125.3090517001692,1125.3090517001692,1125.3090517001692,1125.3090517001692,1125.3090517001692,46,57,36,15,36,40,4.0,2.8415428998414427,,,[],[],[],[],[],[],[],0.2,2,,[],[],[],[],[],[],[],None,None,1128.1768507000525,1129.7473011000548,,,,,,,,,,,,,,,,,,,,,,,,,,,,,,279,m,23,2023-04-04_17h36.54.912,RL,2022.2.4,60.160978782174794,
1,-0.3,-0.225,0,78,78,78,,,,,,,,,,None,1129.7473011000548,1129.7473011000548,1129.7473011000548,1129.7473011000548,1129.7473011000548,1129.7473011000548,j,0.48833670001477003,1130.264811299974,1130.264811299974,1130.264811299974,1130.264811299974,1130.264811299974,1130.264811299974,1130.5620487001725,1130.5620487001725,1132.2903160999995,1132.2903160999995,1132.2903160999995,1132.2903160999995,1132.2903160999995,1132.2903160999995,1132.2903160999995,1132.2903160999995,1132.2903160999995,1132.2903160999995,1132.2903160999995,1132.2903160999995,1132.2903160999995,1132.2903160999995,1132.2903160999995,1132.2903160999995,1132.2903160999995,,,,,,46,65,31,13,13,42,None,None,60,60,[0.030555555555555555],[-0.2953703703703704],[1],[0],[0],[7.868588600074872],['tijiao'],0.2,0,,[],[],[],[],[],[],[],8.981481481481481,2.34417079994455,1145.055110400077,1146.83388140006,,,,,,,,,,,,,1142.69151829998,1142.69151829998,1142.69151829998,1142.69151829998,1134.800697100116,1134.800697100116,1134.800697100116,1134.800697100116,1134.800697100116,1134.800697100116,1134.800697100116,1134.800697100116,0.006288699805736542,1134.800697100116,,,,279,m,23,2023-04-04_17h36.54.912,RL,2022.2.4,60.160978782174794,
0,0.3,0.225,0,79,79,79,,,,,,,,,,None,1146.83388140006,1146.83388140006,1146.83388140006,1146.83388140006,1146.83388140006,1146.83388140006,f,0.411007400136441,1147.2666162999813,1147.2666162999813,1147.2666162999813,1147.2666162999813,1147.2666162999813,1147.2666162999813,1147.5653827001806,1147.5653827001806,1149.177775300108,1149.177775300108,1149.177775300108,1149.177775300108,1149.177775300108,1149.177775300108,1149.177775300108,1149.177775300108,1149.177775300108,1149.177775300108,1149.177775300108,1149.177775300108,1149.177775300108,1149.177775300108,1149.177775300108,1149.177775300108,1149.177775300108,1151.6870465001557,1151.6870465001557,1151.6870465001557,1151.6870465001557,1151.6870465001557,55,60,37,12,60,53,6.0,2.1762333000078797,,,[],[],[],[],[],[],[],-0.2,2,,[],[],[],[],[],[],[],None,None,1153.8900868999772,1155.5769762999844,,,,,,,,,,,,,,,,,,,,,,,,,,,,,,279,m,23,2023-04-04_17h36.54.912,RL,2022.2.4,60.160978782174794,
1,-0.3,-0.225,0,80,80,80,,,,,,,,,,None,1155.5769762999844,1155.5769762999844,1155.5769762999844,1155.5769762999844,1155.5769762999844,1155.5769762999844,f,0.5454968998674303,1156.1423593000509,1156.1423593000509,1156.1423593000509,1156.1423593000509,1156.1423593000509,1156.1423593000509,1156.441503799986,1156.441503799986,1157.4219292001799,1157.4219292001799,1157.4219292001799,1157.4219292001799,1157.4219292001799,1157.4219292001799,1157.4219292001799,1157.4219292001799,1157.4219292001799,1157.4219292001799,1157.4219292001799,1157.4219292001799,1157.4219292001799,1157.4219292001799,1157.4219292001799,1157.4219292001799,1157.4219292001799,,,,,,39,65,31,18,65,42,None,None,,,[],[],[],[],[],[],[],-0.6,1,40,[0.03611111111111111],[-0.30185185185185187],[1],[0],[0],[3.289537100121379],['tijiao_random_2'],9.88888888888889,1.3232384999282658,1164.5845398001838,1166.3639478001278,,,1159.9406666001305,1159.9406666001305,1159.9406666001305,1159.9406666001305,1159.9406666001305,1159.9406666001305,1159.9406666001305,1159.9406666001305,0.006600500084459782,1159.9406666001305,1163.2423288000282,1163.2423288000282,1163.2423288000282,1163.2423288000282,,,,,,,,,,,,,,279,m,23,2023-04-04_17h36.54.912,RL,2022.2.4,60.160978782174794,
0,0.3,0.225,0,81,81,81,,,,,,,,,,None,1166.3639478001278,1166.3639478001278,1166.3639478001278,1166.3639478001278,1166.3639478001278,1166.3639478001278,r,0.5681082999799401,1166.9630148001015,1166.9630148001015,1166.9630148001015,1166.9630148001015,1166.9630148001015,1166.9630148001015,1167.261853700038,1167.261853700038,1168.2591842999682,1168.2591842999682,1168.2591842999682,1168.2591842999682,1168.2591842999682,1168.2591842999682,1168.2591842999682,1168.2591842999682,1168.2591842999682,1168.2591842999682,1168.2591842999682,1168.2591842999682,1168.2591842999682,1168.2591842999682,1168.2591842999682,1168.2591842999682,1168.2591842999682,1170.768451299984,1170.768451299984,1170.768451299984,1170.768451299984,1170.768451299984,42,69,32,14,42,43,6.0,2.1765575997997075,,,[],[],[],[],[],[],[],0.6,2,,[],[],[],[],[],[],[],None,None,1172.9728646001313,1174.6414843001403,,,,,,,,,,,,,,,,,,,,,,,,,,,,,,279,m,23,2023-04-04_17h36.54.912,RL,2022.2.4,60.160978782174794,
1,-0.3,-0.225,0,82,82,82,,,,,,,,,,None,1174.6414843001403,1174.6414843001403,1174.6414843001403,1174.6414843001403,1174.6414843001403,1174.6414843001403,f,0.5294331000186503,1175.1905082000885,1175.1905082000885,1175.1905082000885,1175.1905082000885,1175.1905082000885,1175.1905082000885,1175.4895608001389,1175.4895608001389,1176.73608910013,1176.73608910013,1176.73608910013,1176.73608910013,1176.73608910013,1176.73608910013,1176.73608910013,1176.73608910013,1176.73608910013,1176.73608910013,1176.73608910013,1176.73608910013,1176.73608910013,1176.73608910013,1176.73608910013,1176.73608910013,1176.73608910013,,,,,,44,74,45,12,74,56,None,None,,,[],[],[],[],[],[],[],-0.6,1,40,[0.020370370370370372],[-0.31666666666666665],[1],[0],[0],[3.1402908000163734],['tijiao_random_2'],10.046296296296298,2.1857197999488562,1184.6134493001737,1186.1933564001229,,,1179.2546415000688,1179.2546415000688,1179.2546415000688,1179.2546415000688,1179.2546415000688,1179.2546415000688,1179.2546415000688,1179.2546415000688,0.005799199920147657,1179.2546415000688,1182.409547000192,1182.409547000192,1182.409547000192,1182.409547000192,,,,,,,,,,,,,,279,m,23,2023-04-04_17h36.54.912,RL,2022.2.4,60.160978782174794,
0,0.3,0.225,0,83,83,83,,,,,,,,,,None,1186.1933564001229,1186.1933564001229,1186.1933564001229,1186.1933564001229,1186.1933564001229,1186.1933564001229,f,0.5158742000348866,1186.744090900058,1186.744090900058,1186.744090900058,1186.744090900058,1186.744090900058,1186.744090900058,1187.041336900089,1187.041336900089,1188.4541349001229,1188.4541349001229,1188.4541349001229,1188.4541349001229,1188.4541349001229,1188.4541349001229,1188.4541349001229,1188.4541349001229,1188.4541349001229,1188.4541349001229,1188.4541349001229,1188.4541349001229,1188.4541349001229,1188.4541349001229,1188.4541349001229,1188.4541349001229,1188.4541349001229,,,,,,38,71,34,20,71,59,None,None,70,70,[0.024074074074074074],[-0.2824074074074074],[1],[0],[0],[3.546430699992925],['tijiao'],-0.2,0,,[],[],[],[],[],[],[],10.11111111111111,2.609990500146523,1197.1623087001499,1199.057993200142,,,,,,,,,,,,,1194.5331568000838,1194.5331568000838,1194.5331568000838,1194.5331568000838,1190.9648752000649,1190.9648752000649,1190.9648752000649,1190.9648752000649,1190.9648752000649,1190.9648752000649,1190.9648752000649,1190.9648752000649,0.006965499836951494,1190.9648752000649,,,,279,m,23,2023-04-04_17h36.54.912,RL,2022.2.4,60.160978782174794,
1,-0.3,-0.225,0,84,84,84,,,,,,,,,,None,1199.057993200142,1199.057993200142,1199.057993200142,1199.057993200142,1199.057993200142,1199.057993200142,f,0.484611599938944,1199.574089200003,1199.574089200003,1199.574089200003,1199.574089200003,1199.574089200003,1199.574089200003,1199.872891300125,1199.872891300125,1200.836756200064,1200.836756200064,1200.836756200064,1200.836756200064,1200.836756200064,1200.836756200064,1200.836756200064,1200.836756200064,1200.836756200064,1200.836756200064,1200.836756200064,1200.836756200064,1200.836756200064,1200.836756200064,1200.836756200064,1200.836756200064,1200.836756200064,,,,,,42,78,37,22,78,67,None,None,80,80,[0.03796296296296296],[-0.30277777777777776],[1],[0],[0],[3.91379819996655],['tijiao'],-0.6,0,,[],[],[],[],[],[],[],9.018518518518519,1.8310232998337597,1209.1298323001247,1210.6431802001316,,,,,,,,,,,,,1207.2804006000515,1207.2804006000515,1207.2804006000515,1207.2804006000515,1203.3470318000764,1203.3470318000764,1203.3470318000764,1203.3470318000764,1203.3470318000764,1203.3470318000764,1203.3470318000764,1203.3470318000764,0.005697700195014477,1203.3470318000764,,,,279,m,23,2023-04-04_17h36.54.912,RL,2022.2.4,60.160978782174794,
0,0.3,0.225,0,85,85,85,,,,,,,,,,None,1210.6431802001316,1210.6431802001316,1210.6431802001316,1210.6431802001316,1210.6431802001316,1210.6431802001316,f,0.4799079999793321,1211.1429503001273,1211.1429503001273,1211.1429503001273,1211.1429503001273,1211.1429503001273,1211.1429503001273,1211.4411917000543,1211.4411917000543,1212.9535003001802,1212.9535003001802,1212.9535003001802,1212.9535003001802,1212.9535003001802,1212.9535003001802,1212.9535003001802,1212.9535003001802,1212.9535003001802,1212.9535003001802,1212.9535003001802,1212.9535003001802,1212.9535003001802,1212.9535003001802,1212.9535003001802,1212.9535003001802,1212.9535003001802,1215.4627972000744,1215.4627972000744,1215.4627972000744,1215.4627972000744,1215.4627972000744,52,65,35,16,65,57,2.0,2.6923342999070883,,,[],[],[],[],[],[],[],0.6,2,,[],[],[],[],[],[],[],None,None,1218.1833444000222,1219.768488700036,,,,,,,,,,,,,,,,,,,,,,,,,,,,,,279,m,23,2023-04-04_17h36.54.912,RL,2022.2.4,60.160978782174794,
1,-0.3,-0.225,0,86,86,86,,,,,,,,,,None,1219.768488700036,1219.768488700036,1219.768488700036,1219.768488700036,1219.768488700036,1219.768488700036,r,1.0502398000098765,1220.852343400009,1220.852343400009,1220.852343400009,1220.852343400009,1220.852343400009,1220.852343400009,1221.148281000089,1221.148281000089,1222.3282516000327,1222.3282516000327,1222.3447025001515,1222.3447025001515,1222.3447025001515,1222.3447025001515,1222.3447025001515,1222.3447025001515,1222.3447025001515,1222.3447025001515,1222.3447025001515,1222.3447025001515,1222.3447025001515,1222.3447025001515,1222.3447025001515,1222.3447025001515,1222.3447025001515,1224.8539859000593,1224.8539859000593,1224.8539859000593,1224.8539859000593,1224.8539859000593,39,63,37,17,39,37,3.0,2.0434944999869913,,,[],[],[],[],[],[],[],-0.6,3,,[],[],[],[],[],[],[],None,None,1226.9227601999883,1228.8768708000425,,,,,,,,,,,,,,,,,,,,,,,,,,,,,,279,m,23,2023-04-04_17h36.54.912,RL,2022.2.4,60.160978782174794,
0,0.3,0.225,0,87,87,87,,,,,,,,,,None,1228.8768708000425,1228.8768708000425,1228.8768708000425,1228.8768708000425,1228.8768708000425,1228.8768708000425,i,0.69870899990201,1229.6089828000404,1229.6089828000404,1229.6089828000404,1229.6089828000404,1229.6089828000404,1229.6089828000404,1229.9073501001112,1229.9073501001112,1230.7548772001173,1230.7548772001173,1230.7548772001173,1230.7548772001173,1230.7548772001173,1230.7548772001173,1230.7548772001173,1230.7548772001173,1230.7548772001173,1230.7548772001173,1230.7548772001173,1230.7548772001173,1230.7548772001173,1230.7548772001173,1230.7548772001173,1230.7548772001173,1230.7548772001173,1233.2640763001982,1233.2640763001982,1233.2640763001982,1233.2640763001982,1233.2640763001982,42,53,40,16,40,48,3.0,1.977324099978432,,,[],[],[],[],[],[],[],0.2,3,,[],[],[],[],[],[],[],None,None,1235.270511600189,1237.1710368001368,,,,,,,,,,,,,,,,,,,,,,,,,,,,,,279,m,23,2023-04-04_17h36.54.912,RL,2022.2.4,60.160978782174794,
1,-0.3,-0.225,0,88,88,88,,,,,,,,,,None,1237.1710368001368,1237.1710368001368,1237.1710368001368,1237.1710368001368,1237.1710368001368,1237.1710368001368,f,0.7320243001449853,1237.9364310000092,1237.9364310000092,1237.9364310000092,1237.9364310000092,1237.9364310000092,1237.9364310000092,1238.2348867000546,1238.2348867000546,1239.4814115001354,1239.4814115001354,1239.4814115001354,1239.4814115001354,1239.4814115001354,1239.4814115001354,1239.4814115001354,1239.4814115001354,1239.4814115001354,1239.4814115001354,1239.4814115001354,1239.4814115001354,1239.4814115001354,1239.4814115001354,1239.4814115001354,1239.4814115001354,1239.4814115001354,,,,,,50,55,25,23,55,58,None,None,,,[],[],[],[],[],[],[],-0.2,1,60,[-0.003703703703703704],[-0.2972222222222222],[1],[0],[0],[3.3894688000436872],['tijiao_random_2'],8.055555555555555,3.6663824000861496,1249.0872278001625,1250.850337699987,,,1241.9997724001296,1241.9997724001296,1241.9997724001296,1241.9997724001296,1241.9997724001296,1241.9997724001296,1241.9997724001296,1241.9997724001296,0.006973900133743882,1241.9997724001296,1245.4019435001537,1245.4019435001537,1245.4019435001537,1245.4019435001537,,,,,,,,,,,,,,279,m,23,2023-04-04_17h36.54.912,RL,2022.2.4,60.160978782174794,
0,0.3,0.225,0,89,89,89,,,,,,,,,,None,1250.850337699987,1250.850337699987,1250.850337699987,1250.850337699987,1250.850337699987,1250.850337699987,f,0.600926399929449,1251.4837656000163,1251.4837656000163,1251.4837656000163,1251.4837656000163,1251.4837656000163,1251.4837656000163,1251.781138899969,1251.781138899969,1252.8284885000903,1252.8284885000903,1252.8284885000903,1252.8284885000903,1252.8284885000903,1252.8284885000903,1252.8284885000903,1252.8284885000903,1252.8284885000903,1252.8284885000903,1252.8284885000903,1252.8284885000903,1252.8284885000903,1252.8284885000903,1252.8284885000903,1252.8284885000903,1252.8284885000903,1255.3376667001285,1255.3376667001285,1255.3376667001285,1255.3376667001285,1255.3376667001285,51,58,28,25,58,63,5.0,1.8772748000919819,,,[],[],[],[],[],[],[],0.6,2,,[],[],[],[],[],[],[],None,None,1257.2443132000044,1259.1439340000506,,,,,,,,,,,,,,,,,,,,,,,,,,,,,,279,m,23,2023-04-04_17h36.54.912,RL,2022.2.4,60.160978782174794,
