bandit0,black_x_pos_random,black_y_pos_random,trials.thisRepN,trials.thisTrialN,trials.thisN,trials.thisIndex,instru_img1.started,instru_resp.started,instru_resp.keys,instru_resp.rt,instru_img2.started,instru_resp2.started,instru_resp2.keys,instru_resp2.rt,fixbefore_2.started,rest_response.keys,red.started,green.started,yellow.started,blue.started,choose_bandit.started,Fixation.started,choose_bandit.keys,choose_bandit.rt,black.started,red_2.started,green_2.started,yellow_2.started,blue_2.started,fixation_2.started,docs.started,wait_playerB.started,docs.stopped,wait_playerB.stopped,black.stopped,red_2.stopped,green_2.stopped,yellow_2.stopped,blue_2.stopped,fixation_2.stopped,black_com.started,reward_sub.started,palyerb.started,reward__sub.started,compare.started,red_compare.started,green_com.started,yellow_com.started,blue_com.started,rewardyellow,rewardred,rewardblue,rewardgreen,subchoose,playerb,slider.response,slider.rt,expectself.started,expect_self_black.started,expect_self.started,expect_self_red.started,expect_self_green.started,expect_self_yellow.started,expect_self_blue.started,tijiao.started,tijiao_click.started,check.started,expectself.text,value_expect_self,tijiao_click.x,tijiao_click.y,tijiao_click.leftButton,tijiao_click.midButton,tijiao_click.rightButton,tijiao_click.time,tijiao_click.clicked_name,random_whicharm,whether_ask,expect_random_3.text,tijiao_random.x,tijiao_random.y,tijiao_random.leftButton,tijiao_random.midButton,tijiao_random.rightButton,tijiao_random.time,tijiao_random.clicked_name,slider_2.started,image_7.started,confi.started,notconfi.started,slider_2.response,slider_2.rt,intertrialfix.started,intertrialfix.stopped,image_3.started,slider.started,text.started,image_4.started,image_5.started,jiantou_random.started,expect_red.started,expect_green.started,expect_yellow.started,expect_blue.started,expect_random_2.started,expect_random_3.started,tijiao_random_2.started,tijiao_random.started,check_2.started,rest_image.started,rest_response.started,rest_response.rt,red.stopped,green.stopped,yellow.stopped,blue.stopped,choose_bandit.stopped,Fixation.stopped,bigx.started,bigx.stopped,participant,Gender,Age,date,expName,psychopyVersion,frameRate,
,,,,,,,36.49412814899915,36.49412814899915,space,10.853090257998701,,,,,,,,,,,,,,,,,,,,,,,,,,,,,,,,,,,,,,,,,,,,,,,,,,,,,,,,,,,,,,,,,,,,,,,,,,,,,,,,,,,,,,,,,,,,,,,,,,,,,,,,,,,,,,,280,f,24,2023-04-04_17h36.53.328,RL,2022.2.4,60.01309773911543,
,,,,,,,,,,,47.38515374299823,47.38515374299823,s,56.823996376999276,,,,,,,,,,,,,,,,,,,,,,,,,,,,,,,,,,,,,,,,,,,,,,,,,,,,,,,,,,,,,,,,,,,,,,,,,,,,,,,,,,,,,,,,,,,,,,,,,,,,,,,,,,,280,f,24,2023-04-04_17h36.53.328,RL,2022.2.4,60.01309773911543,
1,-0.3,-0.225,0,0,0,0,,,,,,,,,104.25667183800033,None,105.31063082299806,105.31063082299806,105.31063082299806,105.31063082299806,105.31063082299806,105.31063082299806,f,0.6365516670011857,106.03172070499932,106.03172070499932,106.03172070499932,106.03172070499932,106.03172070499932,106.03172070499932,106.28153882200058,106.28153882200058,108.27272698099841,108.27272698099841,108.34069963399816,108.34069963399816,108.34069963399816,108.34069963399816,108.34069963399816,108.34069963399816,108.34069963399816,108.34069963399816,108.34069963399816,108.34069963399816,108.34069963399816,108.34069963399816,108.34069963399816,108.34069963399816,108.34069963399816,27,56,64,72,56,47,None,None,110.87662784200074,110.87662784200074,110.87662784200074,110.87662784200074,110.87662784200074,110.87662784200074,110.87662784200074,110.87662784200074,0.01277658399703796,110.87662784200074,60,60,"[-0.1275, -0.08, -0.07625, -0.07625, 0.00125]","[-0.295, -0.29125, -0.29625, -0.29625, -0.3]","[1, 1, 1, 1, 1]","[0, 0, 0, 0, 0]","[0, 0, 0, 0, 0]","[7.545739921999484, 8.30670458700115, 8.754648823000025, 8.903532906999317, 10.49802266900224]",['tijiao'],0.2,0,,[],[],[],[],[],[],[],121.59831174699866,121.59831174699866,121.59831174699866,121.59831174699866,6.012499999999999,2.816348422998999,124.42002939499798,126.40061003899973,,,,,,,,,,,,,,,,,,,,,,,,,,,280,f,24,2023-04-04_17h36.53.328,RL,2022.2.4,60.01309773911543,
0,0.3,0.225,0,1,1,1,,,,,,,,,,None,126.40061003899973,126.40061003899973,126.40061003899973,126.40061003899973,126.40061003899973,126.40061003899973,f,0.9210318000004918,127.36925976899875,127.36925976899875,127.36925976899875,127.36925976899875,127.36925976899875,127.36925976899875,127.63977745399825,127.63977745399825,129.37571664899951,129.37571664899951,129.41922721199808,129.41922721199808,129.41922721199808,129.41922721199808,129.41922721199808,129.41922721199808,129.41922721199808,129.41922721199808,129.41922721199808,129.41922721199808,129.41922721199808,129.41922721199808,129.41922721199808,129.41922721199808,129.41922721199808,27,49,55,71,49,57,3.0,2.184124862000317,,,,,,,,,,,,,[],[],[],[],[],[],[],0.2,2,,[],[],[],[],[],[],[],,,,,None,None,134.14985288299795,135.77076227900034,131.91188737999983,131.91188737999983,131.91188737999983,131.91188737999983,131.91188737999983,,,,,,,,,,,,,,,,,,,,,,280,f,24,2023-04-04_17h36.53.328,RL,2022.2.4,60.01309773911543,
1,-0.3,-0.225,0,2,2,2,,,,,,,,,,None,135.77076227900034,135.77076227900034,135.77076227900034,135.77076227900034,135.77076227900034,135.77076227900034,r,0.9163494019994687,136.74239548399783,136.74239548399783,136.74239548399783,136.74239548399783,136.74239548399783,136.74239548399783,137.01055618199825,137.01055618199825,138.641028121001,138.641028121001,138.68742284299879,138.68742284299879,138.68742284299879,138.68742284299879,138.68742284299879,138.68742284299879,138.68742284299879,138.68742284299879,138.68742284299879,138.68742284299879,138.68742284299879,138.68742284299879,138.68742284299879,138.68742284299879,138.68742284299879,19,49,51,70,19,36,None,None,141.20206423299896,141.20206423299896,141.20206423299896,141.20206423299896,141.20206423299896,141.20206423299896,141.20206423299896,141.20206423299896,0.008925419999286532,141.20206423299896,20,20,[-0.06125],[-0.315],[1],[0],[0],[4.044645332000073],['tijiao'],-0.2,0,,[],[],[],[],[],[],[],145.28450852099922,145.28450852099922,145.28450852099922,145.28450852099922,5.975,3.7622118389990646,149.06355496000106,150.94393603199933,,,,,,,,,,,,,,,,,,,,,,,,,,,280,f,24,2023-04-04_17h36.53.328,RL,2022.2.4,60.01309773911543,
0,0.3,0.225,0,3,3,3,,,,,,,,,,None,150.94393603199933,150.94393603199933,150.94393603199933,150.94393603199933,150.94393603199933,150.94393603199933,i,0.9685617750001256,151.9665666740002,151.9665666740002,151.9665666740002,151.9665666740002,151.9665666740002,151.9665666740002,152.24612501999945,152.24612501999945,153.72128568300104,153.72128568300104,153.74445084699983,153.74445084699983,153.74445084699983,153.74445084699983,153.74445084699983,153.74445084699983,153.74445084699983,153.74445084699983,153.74445084699983,153.74445084699983,153.74445084699983,153.74445084699983,153.74445084699983,153.74445084699983,153.74445084699983,25,40,57,72,57,55,4.0,1.4328731860005064,,,,,,,,,,,,,[],[],[],[],[],[],[],-0.6,3,,[],[],[],[],[],[],[],,,,,None,None,157.7184374339995,159.41604755599838,156.24078100299812,156.24078100299812,156.24078100299812,156.24078100299812,156.24078100299812,,,,,,,,,,,,,,,,,,,,,,280,f,24,2023-04-04_17h36.53.328,RL,2022.2.4,60.01309773911543,
1,-0.3,-0.225,0,4,4,4,,,,,,,,,,None,159.41604755599838,159.41604755599838,159.41604755599838,159.41604755599838,159.41604755599838,159.41604755599838,i,0.936969616002898,160.39585298499878,160.39585298499878,160.39585298499878,160.39585298499878,160.39585298499878,160.39585298499878,160.66934902799767,160.66934902799767,162.17489201499848,162.17489201499848,162.2219821889994,162.2219821889994,162.2219821889994,162.2219821889994,162.2219821889994,162.2219821889994,162.2219821889994,162.2219821889994,162.2219821889994,162.2219821889994,162.2219821889994,162.2219821889994,162.2219821889994,162.2219821889994,162.2219821889994,24,43,58,50,58,42,None,None,,,,,,,,,,,,,[],[],[],[],[],[],[],0.6,1,55,[0.04625],[-0.30125],[1],[0],[0],[3.5730180040009145],['tijiao_random_2'],168.34669547799786,168.34669547799786,168.34669547799786,168.34669547799786,6.9125000000000005,3.07183521999832,171.44112384500113,172.97051075099807,,,,,,164.75545512199824,164.75545512199824,164.75545512199824,164.75545512199824,164.75545512199824,164.75545512199824,164.75545512199824,164.75545512199824,0.009937107999576256,164.75545512199824,,,,,,,,,,,,280,f,24,2023-04-04_17h36.53.328,RL,2022.2.4,60.01309773911543,
0,0.3,0.225,0,5,5,5,,,,,,,,,,None,172.97051075099807,172.97051075099807,172.97051075099807,172.97051075099807,172.97051075099807,172.97051075099807,j,0.9158814659967902,173.92831569699774,173.92831569699774,173.92831569699774,173.92831569699774,173.92831569699774,173.92831569699774,174.19525145700027,174.19525145700027,175.95861348000108,175.95861348000108,175.99756261899893,175.99756261899893,175.99756261899893,175.99756261899893,175.99756261899893,175.99756261899893,175.99756261899893,175.99756261899893,175.99756261899893,175.99756261899893,175.99756261899893,175.99756261899893,175.99756261899893,175.99756261899893,175.99756261899893,20,46,43,62,62,56,4.0,2.1144462199990812,,,,,,,,,,,,,[],[],[],[],[],[],[],0.6,3,,[],[],[],[],[],[],[],,,,,None,None,180.6611292310008,182.21004223400087,178.5015079219993,178.5015079219993,178.5015079219993,178.5015079219993,178.5015079219993,,,,,,,,,,,,,,,,,,,,,,280,f,24,2023-04-04_17h36.53.328,RL,2022.2.4,60.01309773911543,
1,-0.3,-0.225,0,6,6,6,,,,,,,,,,None,182.21004223400087,182.21004223400087,182.21004223400087,182.21004223400087,182.21004223400087,182.21004223400087,f,0.6839954300012323,182.94698737699946,182.94698737699946,182.94698737699946,182.94698737699946,182.94698737699946,182.94698737699946,183.21623606799767,183.21623606799767,184.53567355499763,184.53567355499763,184.5757569239977,184.5757569239977,184.5757569239977,184.5757569239977,184.5757569239977,184.5757569239977,184.5757569239977,184.5757569239977,184.5757569239977,184.5757569239977,184.5757569239977,184.5757569239977,184.5757569239977,184.5757569239977,184.5757569239977,22,36,51,66,36,36,None,None,187.0982470199997,187.0982470199997,187.0982470199997,187.0982470199997,187.0982470199997,187.0982470199997,187.0982470199997,187.0982470199997,0.009067457998753525,187.0982470199997,36,36,[0.05625],[-0.28875],[1],[0],[0],[3.398423777001881],['tijiao'],-0.6,0,,[],[],[],[],[],[],[],190.524322027999,190.524322027999,190.524322027999,190.524322027999,4.9125,3.074082194998482,193.61808541600112,195.28288987999986,,,,,,,,,,,,,,,,,,,,,,,,,,,280,f,24,2023-04-04_17h36.53.328,RL,2022.2.4,60.01309773911543,
0,0.3,0.225,0,7,7,7,,,,,,,,,,None,195.28288987999986,195.28288987999986,195.28288987999986,195.28288987999986,195.28288987999986,195.28288987999986,r,0.33384473199839704,195.66980119900109,195.66980119900109,195.66980119900109,195.66980119900109,195.66980119900109,195.66980119900109,195.93875996099814,195.93875996099814,196.8899726109994,196.8899726109994,196.92939236899838,196.92939236899838,196.92939236899838,196.92939236899838,196.92939236899838,196.92939236899838,196.92939236899838,196.92939236899838,196.92939236899838,196.92939236899838,196.92939236899838,196.92939236899838,196.92939236899838,196.92939236899838,196.92939236899838,13,49,47,52,13,28,3.0,1.7797736969987454,,,,,,,,,,,,,[],[],[],[],[],[],[],0.6,2,,[],[],[],[],[],[],[],,,,,None,None,201.2586123990004,203.06967428699863,199.4278043919985,199.4278043919985,199.4278043919985,199.4278043919985,199.4278043919985,,,,,,,,,,,,,,,,,,,,,,280,f,24,2023-04-04_17h36.53.328,RL,2022.2.4,60.01309773911543,
1,-0.3,-0.225,0,8,8,8,,,,,,,,,,None,203.06967428699863,203.06967428699863,203.06967428699863,203.06967428699863,203.06967428699863,203.06967428699863,i,0.7045672790009121,203.82421310399877,203.82421310399877,203.82421310399877,203.82421310399877,203.82421310399877,203.82421310399877,204.0921439249978,204.0921439249978,205.92739396999968,205.92739396999968,205.96970024999973,205.96970024999973,205.96970024999973,205.96970024999973,205.96970024999973,205.96970024999973,205.96970024999973,205.96970024999973,205.96970024999973,205.96970024999973,205.96970024999973,205.96970024999973,205.96970024999973,205.96970024999973,205.96970024999973,27,51,45,57,45,50,3.0,1.581847215002199,,,,,,,,,,,,,[],[],[],[],[],[],[],-0.2,3,,[],[],[],[],[],[],[],,,,,None,None,210.09825743200054,211.77385788399988,208.46515039099904,208.46515039099904,208.46515039099904,208.46515039099904,208.46515039099904,,,,,,,,,,,,,,,,,,,,,,280,f,24,2023-04-04_17h36.53.328,RL,2022.2.4,60.01309773911543,
0,0.3,0.225,0,9,9,9,,,,,,,,,,None,211.77385788399988,211.77385788399988,211.77385788399988,211.77385788399988,211.77385788399988,211.77385788399988,j,0.5078401140017377,212.3280049950008,212.3280049950008,212.3280049950008,212.3280049950008,212.3280049950008,212.3280049950008,212.5961750739989,212.5961750739989,213.81496661100027,213.81496661100027,213.8540433909984,213.8540433909984,213.8540433909984,213.8540433909984,213.8540433909984,213.8540433909984,213.8540433909984,213.8540433909984,213.8540433909984,213.8540433909984,213.8540433909984,213.8540433909984,213.8540433909984,213.8540433909984,213.8540433909984,24,50,51,64,64,35,None,None,,,,,,,,,,,,,[],[],[],[],[],[],[],0.6,1,70,[-0.06],[-0.28125],[1],[0],[0],[4.309679553000024],['tijiao_random_2'],220.71172047599975,220.71172047599975,220.71172047599975,220.71172047599975,3.125,1.6029959740008053,222.33246018999853,223.8962202570001,,,,,,216.38239578199864,216.38239578199864,216.38239578199864,216.38239578199864,216.38239578199864,216.38239578199864,216.38239578199864,216.38239578199864,0.010059184998681303,216.38239578199864,,,,,,,,,,,,280,f,24,2023-04-04_17h36.53.328,RL,2022.2.4,60.01309773911543,
1,-0.3,-0.225,0,10,10,10,,,,,,,,,,None,223.8962202570001,223.8962202570001,223.8962202570001,223.8962202570001,223.8962202570001,223.8962202570001,j,0.6232501580016105,224.56746222699803,224.56746222699803,224.56746222699803,224.56746222699803,224.56746222699803,224.56746222699803,224.8354385349994,224.8354385349994,225.870641780999,225.870641780999,225.90952152300088,225.90952152300088,225.90952152300088,225.90952152300088,225.90952152300088,225.90952152300088,225.90952152300088,225.90952152300088,225.90952152300088,225.90952152300088,225.90952152300088,225.90952152300088,225.90952152300088,225.90952152300088,225.90952152300088,28,47,50,63,63,52,None,None,228.42392658899917,228.42392658899917,228.42392658899917,228.42392658899917,228.42392658899917,228.42392658899917,228.42392658899917,228.42392658899917,0.008822752999549266,228.42392658899917,60,60,[-0.0675],[-0.27375],[1],[0],[0],[4.436635400998057],['tijiao'],0.2,0,,[],[],[],[],[],[],[],232.89234545,232.89234545,232.89234545,232.89234545,2.9375,2.881024588998116,235.7922540949985,237.73668058000112,,,,,,,,,,,,,,,,,,,,,,,,,,,280,f,24,2023-04-04_17h36.53.328,RL,2022.2.4,60.01309773911543,
0,0.3,0.225,0,11,11,11,,,,,,,,,,None,237.73668058000112,237.73668058000112,237.73668058000112,237.73668058000112,237.73668058000112,237.73668058000112,i,0.46729227200194146,238.25748560400098,238.25748560400098,238.25748560400098,238.25748560400098,238.25748560400098,238.25748560400098,238.5226141940002,238.5226141940002,239.87694199399994,239.87694199399994,239.918270735001,239.918270735001,239.918270735001,239.918270735001,239.918270735001,239.918270735001,239.918270735001,239.918270735001,239.918270735001,239.918270735001,239.918270735001,239.918270735001,239.918270735001,239.918270735001,239.918270735001,23,44,46,55,46,37,None,None,242.43249446299887,242.43249446299887,242.43249446299887,242.43249446299887,242.43249446299887,242.43249446299887,242.43249446299887,242.43249446299887,0.008540443999663694,242.43249446299887,33,33,[-0.10625],[-0.29375],[1],[0],[0],[5.088851858999988],['tijiao'],0.6,0,,[],[],[],[],[],[],[],247.55239278500085,247.55239278500085,247.55239278500085,247.55239278500085,2.125,2.825433358000737,250.39626254199902,252.19307870600096,,,,,,,,,,,,,,,,,,,,,,,,,,,280,f,24,2023-04-04_17h36.53.328,RL,2022.2.4,60.01309773911543,
1,-0.3,-0.225,0,12,12,12,,,,,,,,,,None,252.19307870600096,252.19307870600096,252.19307870600096,252.19307870600096,252.19307870600096,252.19307870600096,f,0.5756226800003788,252.81228791600006,252.81228791600006,252.81228791600006,252.81228791600006,252.81228791600006,252.81228791600006,253.08341606400063,253.08341606400063,253.93427367299955,253.93427367299955,253.9752493169981,253.9752493169981,253.9752493169981,253.9752493169981,253.9752493169981,253.9752493169981,253.9752493169981,253.9752493169981,253.9752493169981,253.9752493169981,253.9752493169981,253.9752493169981,253.9752493169981,253.9752493169981,253.9752493169981,25,36,54,61,36,45,None,None,,,,,,,,,,,,,[],[],[],[],[],[],[],-0.2,1,36,[-0.10875],[-0.3025],[1],[0],[0],[3.7673389590017905],['tijiao_random_2'],260.2892572689998,260.2892572689998,260.2892572689998,260.2892572689998,2.0375,2.5638609520028695,262.8764077039996,264.73126384499847,,,,,,256.50619967500097,256.50619967500097,256.50619967500097,256.50619967500097,256.50619967500097,256.50619967500097,256.50619967500097,256.50619967500097,0.009787923001567833,256.50619967500097,,,,,,,,,,,,280,f,24,2023-04-04_17h36.53.328,RL,2022.2.4,60.01309773911543,
0,0.3,0.225,0,13,13,13,,,,,,,,,,None,264.73126384499847,264.73126384499847,264.73126384499847,264.73126384499847,264.73126384499847,264.73126384499847,r,0.7768017029993644,265.55118354599836,265.55118354599836,265.55118354599836,265.55118354599836,265.55118354599836,265.55118354599836,265.82123102100013,265.82123102100013,267.2743709219976,267.2743709219976,267.3111805519984,267.3111805519984,267.3111805519984,267.3111805519984,267.3111805519984,267.3111805519984,267.3111805519984,267.3111805519984,267.3111805519984,267.3111805519984,267.3111805519984,267.3111805519984,267.3111805519984,267.3111805519984,267.3111805519984,23,40,51,58,23,39,None,None,,,,,,,,,,,,,[],[],[],[],[],[],[],-0.6,1,23,[-0.09],[-0.28125],[1],[0],[0],[4.270133194000664],['tijiao_random_2'],274.13059720399906,274.13059720399906,274.13059720399906,274.13059720399906,1.9625,2.237088563000725,276.3882609629982,278.0719377109999,,,,,,269.84349601400027,269.84349601400027,269.84349601400027,269.84349601400027,269.84349601400027,269.84349601400027,269.84349601400027,269.84349601400027,0.00998103500023717,269.84349601400027,,,,,,,,,,,,280,f,24,2023-04-04_17h36.53.328,RL,2022.2.4,60.01309773911543,
1,-0.3,-0.225,0,14,14,14,,,,,,,,,,None,278.0719377109999,278.0719377109999,278.0719377109999,278.0719377109999,278.0719377109999,278.0719377109999,j,0.5209733039991988,278.6419828670005,278.6419828670005,278.6419828670005,278.6419828670005,278.6419828670005,278.6419828670005,278.9120283439988,278.9120283439988,280.73066421099793,280.73066421099793,280.77141938600107,280.77141938600107,280.77141938600107,280.77141938600107,280.77141938600107,280.77141938600107,280.77141938600107,280.77141938600107,280.77141938600107,280.77141938600107,280.77141938600107,280.77141938600107,280.77141938600107,280.77141938600107,280.77141938600107,25,48,52,56,56,48,3.0,2.2450240830003168,,,,,,,,,,,,,[],[],[],[],[],[],[],-0.6,3,,[],[],[],[],[],[],[],,,,,None,None,285.55945652899754,287.092857519001,283.26931948499987,283.26931948499987,283.26931948499987,283.26931948499987,283.26931948499987,,,,,,,,,,,,,,,,,,,,,,280,f,24,2023-04-04_17h36.53.328,RL,2022.2.4,60.01309773911543,
0,0.3,0.225,0,15,15,15,,,,,,,,,,None,287.092857519001,287.092857519001,287.092857519001,287.092857519001,287.092857519001,287.092857519001,j,0.8098049019972677,287.94539477299986,287.94539477299986,287.94539477299986,287.94539477299986,287.94539477299986,287.94539477299986,288.21297669499836,288.21297669499836,289.8502672729992,289.8502672729992,289.8922445809985,289.8922445809985,289.8922445809985,289.8922445809985,289.8922445809985,289.8922445809985,289.8922445809985,289.8922445809985,289.8922445809985,289.8922445809985,289.8922445809985,289.8922445809985,289.8922445809985,289.8922445809985,289.8922445809985,27,46,62,63,63,20,None,None,292.4158554329988,292.4158554329988,292.4158554329988,292.4158554329988,292.4158554329988,292.4158554329988,292.4158554329988,292.4158554329988,0.010476024999661604,292.4158554329988,63,63,[-0.0125],[-0.29],[1],[0],[0],[4.962532196001121],['tijiao'],0.6,0,,[],[],[],[],[],[],[],297.4094345179983,297.4094345179983,297.4094345179983,297.4094345179983,2.025,2.400051752003492,299.82717622400014,301.7001752739998,,,,,,,,,,,,,,,,,,,,,,,,,,,280,f,24,2023-04-04_17h36.53.328,RL,2022.2.4,60.01309773911543,
1,-0.3,-0.225,0,16,16,16,,,,,,,,,,None,301.7001752739998,301.7001752739998,301.7001752739998,301.7001752739998,301.7001752739998,301.7001752739998,i,0.3914405489995261,302.135344377999,302.135344377999,302.135344377999,302.135344377999,302.135344377999,302.135344377999,302.4015638339988,302.4015638339988,303.5085787530006,303.5085787530006,303.563583449999,303.563583449999,303.563583449999,303.563583449999,303.563583449999,303.563583449999,303.563583449999,303.563583449999,303.563583449999,303.563583449999,303.563583449999,303.563583449999,303.563583449999,303.563583449999,303.563583449999,25,56,48,61,48,31,None,None,,,,,,,,,,,,,[],[],[],[],[],[],[],-0.2,1,48,[-0.015],[-0.29],[1],[0],[0],[6.948295684996992],['tijiao_random_2'],313.057250777998,313.057250777998,313.057250777998,313.057250777998,2.925,1.578844507002941,314.6567727649999,316.60706651500004,,,,,,306.09200907299964,306.09200907299964,306.09200907299964,306.09200907299964,306.09200907299964,306.09200907299964,306.09200907299964,306.09200907299964,0.010004413001297507,306.09200907299964,,,,,,,,,,,,280,f,24,2023-04-04_17h36.53.328,RL,2022.2.4,60.01309773911543,
0,0.3,0.225,0,17,17,17,,,,,,,,,,None,316.60706651500004,316.60706651500004,316.60706651500004,316.60706651500004,316.60706651500004,316.60706651500004,f,0.40851509499771055,317.06021624799905,317.06021624799905,317.06021624799905,317.06021624799905,317.06021624799905,317.06021624799905,317.3293454480008,317.3293454480008,318.7149100200004,318.7149100200004,318.75313977800033,318.75313977800033,318.75313977800033,318.75313977800033,318.75313977800033,318.75313977800033,318.75313977800033,318.75313977800033,318.75313977800033,318.75313977800033,318.75313977800033,318.75313977800033,318.75313977800033,318.75313977800033,318.75313977800033,26,55,51,63,55,48,None,None,,,,,,,,,,,,,[],[],[],[],[],[],[],0.2,1,55,[-0.03],[-0.29],[1],[0],[0],[7.759685012002592],['tijiao_random_2'],329.06987881999885,329.06987881999885,329.06987881999885,329.06987881999885,3.1,1.5546835770001053,330.64245805799874,332.63112585400086,,,,,,321.2941674879985,321.2941674879985,321.2941674879985,321.2941674879985,321.2941674879985,321.2941674879985,321.2941674879985,321.2941674879985,0.010076956001284998,321.2941674879985,,,,,,,,,,,,280,f,24,2023-04-04_17h36.53.328,RL,2022.2.4,60.01309773911543,
1,-0.3,-0.225,0,18,18,18,,,,,,,,,,None,332.63112585400086,332.63112585400086,332.63112585400086,332.63112585400086,332.63112585400086,332.63112585400086,f,1.0608655840005667,333.73344967699813,333.73344967699813,333.73344967699813,333.73344967699813,333.73344967699813,333.73344967699813,334.0014625750009,334.0014625750009,335.50489009100056,335.50489009100056,335.5444119519998,335.5444119519998,335.5444119519998,335.5444119519998,335.5444119519998,335.5444119519998,335.5444119519998,335.5444119519998,335.5444119519998,335.5444119519998,335.5444119519998,335.5444119519998,335.5444119519998,335.5444119519998,335.5444119519998,34,55,54,61,55,53,None,None,338.0613067960003,338.0613067960003,338.0613067960003,338.0613067960003,338.0613067960003,338.0613067960003,338.0613067960003,338.0613067960003,0.008945388002757682,338.0613067960003,53,53,[-0.04625],[-0.305],[1],[0],[0],[6.2277317230000335],['tijiao'],-0.6,0,,[],[],[],[],[],[],[],344.3215822359998,344.3215822359998,344.3215822359998,344.3215822359998,3.9125,1.8268367490018136,346.1629923799992,347.9388125330006,,,,,,,,,,,,,,,,,,,,,,,,,,,280,f,24,2023-04-04_17h36.53.328,RL,2022.2.4,60.01309773911543,
0,0.3,0.225,0,19,19,19,,,,,,,,,,None,347.9388125330006,347.9388125330006,347.9388125330006,347.9388125330006,347.9388125330006,347.9388125330006,f,0.4266353889979655,348.40711123800065,348.40711123800065,348.40711123800065,348.40711123800065,348.40711123800065,348.40711123800065,348.6781974299993,348.6781974299993,349.56206343399754,349.56206343399754,349.6015529449978,349.6015529449978,349.6015529449978,349.6015529449978,349.6015529449978,349.6015529449978,349.6015529449978,349.6015529449978,349.6015529449978,349.6015529449978,349.6015529449978,349.6015529449978,349.6015529449978,349.6015529449978,349.6015529449978,35,56,53,63,56,38,None,None,352.1267621779989,352.1267621779989,352.1267621779989,352.1267621779989,352.1267621779989,352.1267621779989,352.1267621779989,352.1267621779989,0.009258690999558894,352.1267621779989,36,36,[0.0325],[-0.28],[1],[0],[0],[6.954598754000472],['tijiao'],0.2,0,,[],[],[],[],[],[],[],359.11325014799877,359.11325014799877,359.11325014799877,359.11325014799877,3.7125,1.5805351710005198,360.707751083999,362.64582668399817,,,,,,,,,,,,,,,,,,,,,,,,,,,280,f,24,2023-04-04_17h36.53.328,RL,2022.2.4,60.01309773911543,
1,-0.3,-0.225,0,20,20,20,,,,,,,,,,None,362.64582668399817,362.64582668399817,362.64582668399817,362.64582668399817,362.64582668399817,362.64582668399817,f,0.4241917440012912,363.11422923899954,363.11422923899954,363.11422923899954,363.11422923899954,363.11422923899954,363.11422923899954,363.38199452299887,363.38199452299887,364.6680872729994,364.6680872729994,364.7073468620001,364.7073468620001,364.7073468620001,364.7073468620001,364.7073468620001,364.7073468620001,364.7073468620001,364.7073468620001,364.7073468620001,364.7073468620001,364.7073468620001,364.7073468620001,364.7073468620001,364.7073468620001,364.7073468620001,27,57,59,60,57,48,None,None,367.226842166001,367.226842166001,367.226842166001,367.226842166001,367.226842166001,367.226842166001,367.226842166001,367.226842166001,0.009154172999842558,367.226842166001,57,57,[-0.085],[-0.27625],[1],[0],[0],[4.97925278600087],['tijiao'],-0.6,0,,[],[],[],[],[],[],[],372.2364622669993,372.2364622669993,372.2364622669993,372.2364622669993,3.1125,1.8947494220010412,374.15197832099875,376.10213356799795,,,,,,,,,,,,,,,,,,,,,,,,,,,280,f,24,2023-04-04_17h36.53.328,RL,2022.2.4,60.01309773911543,
0,0.3,0.225,0,21,21,21,,,,,,,,,,None,376.10213356799795,376.10213356799795,376.10213356799795,376.10213356799795,376.10213356799795,376.10213356799795,f,0.7957127000008768,376.93774605,376.93774605,376.93774605,376.93774605,376.93774605,376.93774605,377.20782520899957,377.20782520899957,378.69316420799805,378.69316420799805,378.73174565999943,378.73174565999943,378.73174565999943,378.73174565999943,378.73174565999943,378.73174565999943,378.73174565999943,378.73174565999943,378.73174565999943,378.73174565999943,378.73174565999943,378.73174565999943,378.73174565999943,378.73174565999943,378.73174565999943,28,62,55,59,62,32,None,None,381.2466688429995,381.2466688429995,381.2466688429995,381.2466688429995,381.2466688429995,381.2466688429995,381.2466688429995,381.2466688429995,0.008507217000442324,381.2466688429995,32,32,[-0.08125],[-0.3],[1],[0],[0],[6.616480125998351],['tijiao'],0.2,0,,[],[],[],[],[],[],[],387.8948121539979,387.8948121539979,387.8948121539979,387.8948121539979,1.9000000000000004,2.4419655230012722,390.3533023029995,392.32646367599955,,,,,,,,,,,,,,,,,,,,,,,,,,,280,f,24,2023-04-04_17h36.53.328,RL,2022.2.4,60.01309773911543,
1,-0.3,-0.225,0,22,22,22,,,,,,,,,,None,392.32646367599955,392.32646367599955,392.32646367599955,392.32646367599955,392.32646367599955,392.32646367599955,r,1.372474455001793,393.74752751199776,393.74752751199776,393.74752751199776,393.74752751199776,393.74752751199776,393.74752751199776,394.01563362199886,394.01563362199886,395.08182971600036,395.08182971600036,395.12192866199985,395.12192866199985,395.12192866199985,395.12192866199985,395.12192866199985,395.12192866199985,395.12192866199985,395.12192866199985,395.12192866199985,395.12192866199985,395.12192866199985,395.12192866199985,395.12192866199985,395.12192866199985,395.12192866199985,33,49,47,56,33,49,2.0,1.9595743829995627,,,,,,,,,,,,,[],[],[],[],[],[],[],-0.6,2,,[],[],[],[],[],[],[],,,,,None,None,399.63145490399984,401.5640751209976,397.62226737200035,397.62226737200035,397.62226737200035,397.62226737200035,397.62226737200035,,,,,,,,,,,,,,,,,,,,,,280,f,24,2023-04-04_17h36.53.328,RL,2022.2.4,60.01309773911543,
0,0.3,0.225,0,23,23,23,,,,,,,,,,None,401.5640751209976,401.5640751209976,401.5640751209976,401.5640751209976,401.5640751209976,401.5640751209976,r,0.8692023439980403,402.4827259409976,402.4827259409976,402.4827259409976,402.4827259409976,402.4827259409976,402.4827259409976,402.747566490998,402.747566490998,404.72262907299955,404.72262907299955,404.76133614599894,404.76133614599894,404.76133614599894,404.76133614599894,404.76133614599894,404.76133614599894,404.76133614599894,404.76133614599894,404.76133614599894,404.76133614599894,404.76133614599894,404.76133614599894,404.76133614599894,404.76133614599894,404.76133614599894,26,47,54,63,26,42,None,None,,,,,,,,,,,,,[],[],[],[],[],[],[],0.2,1,42,[0.05625],[-0.295],[1],[0],[0],[4.571310715000436],['tijiao_random_2'],411.87606450399835,411.87606450399835,411.87606450399835,411.87606450399835,3.0374999999999996,2.467642010000418,414.3653767549986,416.00396830200043,,,,,,407.2871394110007,407.2871394110007,407.2871394110007,407.2871394110007,407.2871394110007,407.2871394110007,407.2871394110007,407.2871394110007,0.00990798600105336,407.2871394110007,,,,,,,,,,,,280,f,24,2023-04-04_17h36.53.328,RL,2022.2.4,60.01309773911543,
1,-0.3,-0.225,0,24,24,24,,,,,,,,,,None,416.00396830200043,416.00396830200043,416.00396830200043,416.00396830200043,416.00396830200043,416.00396830200043,j,0.3836081049994391,416.4390631030001,416.4390631030001,416.4390631030001,416.4390631030001,416.4390631030001,416.4390631030001,416.7097674659999,416.7097674659999,418.46110928399867,418.46110928399867,418.49943036200057,418.49943036200057,418.49943036200057,418.49943036200057,418.49943036200057,418.49943036200057,418.49943036200057,418.49943036200057,418.49943036200057,418.49943036200057,418.49943036200057,418.49943036200057,418.49943036200057,418.49943036200057,418.49943036200057,28,57,56,62,62,20,5.0,3.93127272700076,,,,,,,,,,,,,[],[],[],[],[],[],[],0.2,3,,[],[],[],[],[],[],[],,,,,None,None,424.9788793459993,426.69277957899976,421.0007268570007,421.0007268570007,421.0007268570007,421.0007268570007,421.0007268570007,,,,,,,,,,,,,,,,,,,,,,280,f,24,2023-04-04_17h36.53.328,RL,2022.2.4,60.01309773911543,
0,0.3,0.225,0,25,25,25,,,,,,,,,,None,426.69277957899976,426.69277957899976,426.69277957899976,426.69277957899976,426.69277957899976,426.69277957899976,i,0.5708867190005549,427.3140402459976,427.3140402459976,427.3140402459976,427.3140402459976,427.3140402459976,427.3140402459976,427.5815942269983,427.5815942269983,429.50071023000055,429.50071023000055,429.5390803019982,429.5390803019982,429.5390803019982,429.5390803019982,429.5390803019982,429.5390803019982,429.5390803019982,429.5390803019982,429.5390803019982,429.5390803019982,429.5390803019982,429.5390803019982,429.5390803019982,429.5390803019982,429.5390803019982,30,49,55,69,55,29,None,None,,,,,,,,,,,,,[],[],[],[],[],[],[],-0.6,1,29,[0.0075],[-0.31375],[1],[0],[0],[5.220485198999086],['tijiao_random_2'],437.31625239599816,437.31625239599816,437.31625239599816,437.31625239599816,2.0999999999999996,1.8153046970001014,439.1530716720008,440.8632876099982,,,,,,432.084229363998,432.084229363998,432.084229363998,432.084229363998,432.084229363998,432.084229363998,432.084229363998,432.084229363998,0.011298107998300111,432.084229363998,,,,,,,,,,,,280,f,24,2023-04-04_17h36.53.328,RL,2022.2.4,60.01309773911543,
1,-0.3,-0.225,0,26,26,26,,,,,,,,,,None,440.8632876099982,440.8632876099982,440.8632876099982,440.8632876099982,440.8632876099982,440.8632876099982,r,0.30910049799786066,441.2195600249979,441.2195600249979,441.2195600249979,441.2195600249979,441.2195600249979,441.2195600249979,441.48831857299956,441.48831857299956,443.3068587859998,443.3068587859998,443.3487418650002,443.3487418650002,443.3487418650002,443.3487418650002,443.3487418650002,443.3487418650002,443.3487418650002,443.3487418650002,443.3487418650002,443.3487418650002,443.3487418650002,443.3487418650002,443.3487418650002,443.3487418650002,443.3487418650002,36,48,49,74,36,45,None,None,,,,,,,,,,,,,[],[],[],[],[],[],[],-0.2,1,45,[-0.08625],[-0.2975],[1],[0],[0],[4.323271899000247],['tijiao_random_2'],450.21948710799916,450.21948710799916,450.21948710799916,450.21948710799916,2.925,2.0894612459997006,452.32461556499766,454.32209124499786,,,,,,445.87154329400073,445.87154329400073,445.87154329400073,445.87154329400073,445.87154329400073,445.87154329400073,445.87154329400073,445.87154329400073,0.010150212998269126,445.87154329400073,,,,,,,,,,,,280,f,24,2023-04-04_17h36.53.328,RL,2022.2.4,60.01309773911543,
0,0.3,0.225,0,27,27,27,,,,,,,,,,None,454.32209124499786,454.32209124499786,454.32209124499786,454.32209124499786,454.32209124499786,454.32209124499786,f,0.3036747900005139,454.67600832099924,454.67600832099924,454.67600832099924,454.67600832099924,454.67600832099924,454.67600832099924,454.9450691710008,454.9450691710008,456.39643925199925,456.39643925199925,456.41840388999844,456.41840388999844,456.41840388999844,456.41840388999844,456.41840388999844,456.41840388999844,456.41840388999844,456.41840388999844,456.41840388999844,456.41840388999844,456.41840388999844,456.41840388999844,456.41840388999844,456.41840388999844,456.41840388999844,40,51,60,74,51,44,3.0,1.8292901940003503,,,,,,,,,,,,,[],[],[],[],[],[],[],0.2,3,,[],[],[],[],[],[],[],,,,,None,None,460.7938572089988,462.37614822999967,458.9194361150003,458.9194361150003,458.9194361150003,458.9194361150003,458.9194361150003,,,,,,,,,,,,,,,,,,,,,,280,f,24,2023-04-04_17h36.53.328,RL,2022.2.4,60.01309773911543,
1,-0.3,-0.225,0,28,28,28,,,,,,,,,,None,462.37614822999967,462.37614822999967,462.37614822999967,462.37614822999967,462.37614822999967,462.37614822999967,i,1.1362105769985646,463.5631467739986,463.5631467739986,463.5631467739986,463.5631467739986,463.5631467739986,463.5631467739986,463.8320987010011,463.8320987010011,464.8168252409996,464.8168252409996,464.85613055299837,464.85613055299837,464.85613055299837,464.85613055299837,464.85613055299837,464.85613055299837,464.85613055299837,464.85613055299837,464.85613055299837,464.85613055299837,464.85613055299837,464.85613055299837,464.85613055299837,464.85613055299837,464.85613055299837,29,47,51,71,51,52,4.0,2.147163110999827,,,,,,,,,,,,,[],[],[],[],[],[],[],0.6,2,,[],[],[],[],[],[],[],,,,,None,None,469.5459312620005,471.229290624,467.3558923620003,467.3558923620003,467.3558923620003,467.3558923620003,467.3558923620003,,,,,,,,,,,,,,,,,,,,,,280,f,24,2023-04-04_17h36.53.328,RL,2022.2.4,60.01309773911543,
0,0.3,0.225,0,29,29,29,,,,,,,,,,None,471.229290624,471.229290624,471.229290624,471.229290624,471.229290624,471.229290624,j,0.759620131997508,472.03364240299925,472.03364240299925,472.03364240299925,472.03364240299925,472.03364240299925,472.03364240299925,472.3044354779995,472.3044354779995,473.1696965400006,473.1696965400006,473.20990194000115,473.20990194000115,473.20990194000115,473.20990194000115,473.20990194000115,473.20990194000115,473.20990194000115,473.20990194000115,473.20990194000115,473.20990194000115,473.20990194000115,473.20990194000115,473.20990194000115,473.20990194000115,473.20990194000115,35,43,53,71,71,52,None,None,475.7263188069992,475.7263188069992,475.7263188069992,475.7263188069992,475.7263188069992,475.7263188069992,475.7263188069992,475.7263188069992,0.008752625999477459,475.7263188069992,21,21,[-0.01625],[-0.29125],[1],[0],[0],[7.324701608002215],['tijiao'],-0.6,0,,[],[],[],[],[],[],[],483.08294775099785,483.08294775099785,483.08294775099785,483.08294775099785,2.9,2.379353177999292,485.4785073540006,487.42080793399873,,,,,,,,,,,,,,,,,,,,,,,,,,,280,f,24,2023-04-04_17h36.53.328,RL,2022.2.4,60.01309773911543,
1,-0.3,-0.225,0,30,30,30,,,,,,,,,,None,487.42080793399873,487.42080793399873,487.42080793399873,487.42080793399873,487.42080793399873,487.42080793399873,i,0.4547599020006601,487.9233594979996,487.9233594979996,487.9233594979996,487.9233594979996,487.9233594979996,487.9233594979996,488.1876487619993,488.1876487619993,490.0790072939999,490.0790072939999,490.11799086500105,490.11799086500105,490.11799086500105,490.11799086500105,490.11799086500105,490.11799086500105,490.11799086500105,490.11799086500105,490.11799086500105,490.11799086500105,490.11799086500105,490.11799086500105,490.11799086500105,490.11799086500105,490.11799086500105,42,42,47,75,47,54,3.0,2.147446992999903,,,,,,,,,,,,,[],[],[],[],[],[],[],0.6,2,,[],[],[],[],[],[],[],,,,,None,None,494.81113748499774,496.3423689800002,492.61702129499827,492.61702129499827,492.61702129499827,492.61702129499827,492.61702129499827,,,,,,,,,,,,,,,,,,,,,,280,f,24,2023-04-04_17h36.53.328,RL,2022.2.4,60.01309773911543,
0,0.3,0.225,0,31,31,31,,,,,,,,,,None,496.3423689800002,496.3423689800002,496.3423689800002,496.3423689800002,496.3423689800002,496.3423689800002,j,0.5397605580001255,496.929583688001,496.929583688001,496.929583688001,496.929583688001,496.929583688001,496.929583688001,497.1978890799983,497.1978890799983,498.31643841500045,498.31643841500045,498.3552170319999,498.3552170319999,498.3552170319999,498.3552170319999,498.3552170319999,498.3552170319999,498.3552170319999,498.3552170319999,498.3552170319999,498.3552170319999,498.3552170319999,498.3552170319999,498.3552170319999,498.3552170319999,498.3552170319999,33,46,52,67,67,37,None,None,,,,,,,,,,,,,[],[],[],[],[],[],[],0.2,1,30,[0.0275],[-0.29875],[1],[0],[0],[4.727368900999863],['tijiao_random_2'],505.6305021219996,505.6305021219996,505.6305021219996,505.6305021219996,2.925,2.7323553980022552,508.3809308029995,510.3155732970008,,,,,,500.88056485799825,500.88056485799825,500.88056485799825,500.88056485799825,500.88056485799825,500.88056485799825,500.88056485799825,500.88056485799825,0.009910838001815137,500.88056485799825,,,,,,,,,,,,280,f,24,2023-04-04_17h36.53.328,RL,2022.2.4,60.01309773911543,
1,-0.3,-0.225,0,32,32,32,,,,,,,,,,None,510.3155732970008,510.3155732970008,510.3155732970008,510.3155732970008,510.3155732970008,510.3155732970008,i,0.4394893950011465,510.79909987000065,510.79909987000065,510.79909987000065,510.79909987000065,510.79909987000065,510.79909987000065,511.07141847000094,511.07141847000094,511.9065204590006,511.9065204590006,511.94409887599977,511.94409887599977,511.94409887599977,511.94409887599977,511.94409887599977,511.94409887599977,511.94409887599977,511.94409887599977,511.94409887599977,511.94409887599977,511.94409887599977,511.94409887599977,511.94409887599977,511.94409887599977,511.94409887599977,33,44,46,75,46,45,None,None,514.473221201999,514.473221201999,514.473221201999,514.473221201999,514.473221201999,514.473221201999,514.473221201999,514.473221201999,0.010300871999788797,514.473221201999,45,45,[-0.08625],[-0.29625],[1],[0],[0],[4.1473187020019395],['tijiao'],-0.2,0,,[],[],[],[],[],[],[],518.6534351509981,518.6534351509981,518.6534351509981,518.6534351509981,1.0374999999999996,2.2349121359984565,520.9065519199976,522.471474979,,,,,,,,,,,,,,,,,,,,,,,,,,,280,f,24,2023-04-04_17h36.53.328,RL,2022.2.4,60.01309773911543,
0,0.3,0.225,0,33,33,33,,,,,,,,,,None,522.471474979,522.471474979,522.471474979,522.471474979,522.471474979,522.471474979,r,1.2815345489980245,523.7915680980004,523.7915680980004,523.7915680980004,523.7915680980004,523.7915680980004,523.7915680980004,524.0613012039976,524.0613012039976,525.52850416,525.52850416,525.5668795220008,525.5668795220008,525.5668795220008,525.5668795220008,525.5668795220008,525.5668795220008,525.5668795220008,525.5668795220008,525.5668795220008,525.5668795220008,525.5668795220008,525.5668795220008,525.5668795220008,525.5668795220008,525.5668795220008,37,42,36,74,37,55,3.0,3.4441988120015594,,,,,,,,,,,,,[],[],[],[],[],[],[],0.2,3,,[],[],[],[],[],[],[],,,,,None,None,531.561571025999,533.4762868100006,528.0738113609987,528.0738113609987,528.0738113609987,528.0738113609987,528.0738113609987,,,,,,,,,,,,,,,,,,,,,,280,f,24,2023-04-04_17h36.53.328,RL,2022.2.4,60.01309773911543,
1,-0.3,-0.225,0,34,34,34,,,,,,,,,,None,533.4762868100006,533.4762868100006,533.4762868100006,533.4762868100006,533.4762868100006,533.4762868100006,j,0.4913387979977415,534.0131911669996,534.0131911669996,534.0131911669996,534.0131911669996,534.0131911669996,534.0131911669996,534.2823004790007,534.2823004790007,536.012236229999,536.012236229999,536.0335144909986,536.0335144909986,536.0335144909986,536.0335144909986,536.0335144909986,536.0335144909986,536.0335144909986,536.0335144909986,536.0335144909986,536.0335144909986,536.0335144909986,536.0335144909986,536.0335144909986,536.0335144909986,536.0335144909986,43,52,38,68,68,29,4.0,1.9620546490004926,,,,,,,,,,,,,[],[],[],[],[],[],[],0.6,2,,[],[],[],[],[],[],[],,,,,None,None,540.5493138599995,542.4477878699981,538.5378440429995,538.5378440429995,538.5378440429995,538.5378440429995,538.5378440429995,,,,,,,,,,,,,,,,,,,,,,280,f,24,2023-04-04_17h36.53.328,RL,2022.2.4,60.01309773911543,
0,0.3,0.225,0,35,35,35,,,,,,,,,,None,542.4477878699981,542.4477878699981,542.4477878699981,542.4477878699981,542.4477878699981,542.4477878699981,j,0.7311529970029369,543.2328043710004,543.2328043710004,543.2328043710004,543.2328043710004,543.2328043710004,543.2328043710004,543.5027695419994,543.5027695419994,544.600108857001,544.600108857001,544.6427818779994,544.6427818779994,544.6427818779994,544.6427818779994,544.6427818779994,544.6427818779994,544.6427818779994,544.6427818779994,544.6427818779994,544.6427818779994,544.6427818779994,544.6427818779994,544.6427818779994,544.6427818779994,544.6427818779994,46,43,45,61,61,59,4.0,1.2614351099982741,,,,,,,,,,,,,[],[],[],[],[],[],[],-0.2,2,,[],[],[],[],[],[],[],,,,,None,None,548.4528912879978,550.2008632299985,547.1416520509993,547.1416520509993,547.1416520509993,547.1416520509993,547.1416520509993,,,,,,,,,,,,,,,,,,,,,,280,f,24,2023-04-04_17h36.53.328,RL,2022.2.4,60.01309773911543,
1,-0.3,-0.225,0,36,36,36,,,,,,,,,,None,550.2008632299985,550.2008632299985,550.2008632299985,550.2008632299985,550.2008632299985,550.2008632299985,i,0.41434082399791805,550.6536323479995,550.6536323479995,550.6536323479995,550.6536323479995,550.6536323479995,550.6536323479995,550.9236089810001,550.9236089810001,552.7260702719977,552.7260702719977,552.7503265189989,552.7503265189989,552.7503265189989,552.7503265189989,552.7503265189989,552.7503265189989,552.7503265189989,552.7503265189989,552.7503265189989,552.7503265189989,552.7503265189989,552.7503265189989,552.7503265189989,552.7503265189989,552.7503265189989,42,45,39,69,39,45,3.0,2.5183364580007037,,,,,,,,,,,,,[],[],[],[],[],[],[],0.6,2,,[],[],[],[],[],[],[],,,,,None,None,557.824250548998,559.4221683799988,555.2570818239983,555.2570818239983,555.2570818239983,555.2570818239983,555.2570818239983,,,,,,,,,,,,,,,,,,,,,,280,f,24,2023-04-04_17h36.53.328,RL,2022.2.4,60.01309773911543,
0,0.3,0.225,0,37,37,37,,,,,,,,,,None,559.4221683799988,559.4221683799988,559.4221683799988,559.4221683799988,559.4221683799988,559.4221683799988,i,0.3359212139985175,559.8068745470009,559.8068745470009,559.8068745470009,559.8068745470009,559.8068745470009,559.8068745470009,560.0784928069988,560.0784928069988,562.047655579001,562.047655579001,562.0879699159996,562.0879699159996,562.0879699159996,562.0879699159996,562.0879699159996,562.0879699159996,562.0879699159996,562.0879699159996,562.0879699159996,562.0879699159996,562.0879699159996,562.0879699159996,562.0879699159996,562.0879699159996,562.0879699159996,37,42,41,62,41,47,None,None,,,,,,,,,,,,,[],[],[],[],[],[],[],0.6,1,48,[-0.08625],[-0.27125],[1],[0],[0],[5.268379011002253],['tijiao_random_2'],569.8969737010011,569.8969737010011,569.8969737010011,569.8969737010011,1.025,2.1260117380006704,572.0462047039982,573.8951143160011,,,,,,564.6146778980001,564.6146778980001,564.6146778980001,564.6146778980001,564.6146778980001,564.6146778980001,564.6146778980001,564.6146778980001,0.01012826700025471,564.6146778980001,,,,,,,,,,,,280,f,24,2023-04-04_17h36.53.328,RL,2022.2.4,60.01309773911543,
1,-0.3,-0.225,0,38,38,38,,,,,,,,,,None,573.8951143160011,573.8951143160011,573.8951143160011,573.8951143160011,573.8951143160011,573.8951143160011,f,1.253754500001378,575.1999961529982,575.1999961529982,575.1999961529982,575.1999961529982,575.1999961529982,575.1999961529982,575.4698687249984,575.4698687249984,576.6201395569988,576.6201395569988,576.6585794880011,576.6585794880011,576.6585794880011,576.6585794880011,576.6585794880011,576.6585794880011,576.6585794880011,576.6585794880011,576.6585794880011,576.6585794880011,576.6585794880011,576.6585794880011,576.6585794880011,576.6585794880011,576.6585794880011,40,41,33,59,41,27,None,None,,,,,,,,,,,,,[],[],[],[],[],[],[],-0.2,1,27,[0.09125],[-0.28625],[1],[0],[0],[4.16494989399871],['tijiao_random_2'],583.3838385919989,583.3838385919989,583.3838385919989,583.3838385919989,2.1375,1.718080573999032,585.121227855001,587.1014776150005,,,,,,579.2015104179991,579.2015104179991,579.2015104179991,579.2015104179991,579.2015104179991,579.2015104179991,579.2015104179991,579.2015104179991,0.010056461997010047,579.2015104179991,,,,,,,,,,,,280,f,24,2023-04-04_17h36.53.328,RL,2022.2.4,60.01309773911543,
0,0.3,0.225,0,39,39,39,,,,,,,,,,None,587.1014776150005,587.1014776150005,587.1014776150005,587.1014776150005,587.1014776150005,587.1014776150005,f,0.6567095640020852,587.8041753619982,587.8041753619982,587.8041753619982,587.8041753619982,587.8041753619982,587.8041753619982,588.074187192,588.074187192,589.0288220900002,589.0288220900002,589.0519537599976,589.0519537599976,589.0519537599976,589.0519537599976,589.0519537599976,589.0519537599976,589.0519537599976,589.0519537599976,589.0519537599976,589.0519537599976,589.0519537599976,589.0519537599976,589.0519537599976,589.0519537599976,589.0519537599976,39,42,45,60,42,44,3.0,2.3981533589976607,,,,,,,,,,,,,[],[],[],[],[],[],[],-0.2,3,,[],[],[],[],[],[],[],,,,,None,None,594.0038294549995,595.9710552889992,591.5624800320002,591.5624800320002,591.5624800320002,591.5624800320002,591.5624800320002,,,,,,,,,,,,,,,,,,,,,,280,f,24,2023-04-04_17h36.53.328,RL,2022.2.4,60.01309773911543,
1,-0.3,-0.225,0,40,40,40,,,,,,,,,,None,595.9710552889992,595.9710552889992,595.9710552889992,595.9710552889992,595.9710552889992,595.9710552889992,r,0.42268455999874277,596.4413356090008,596.4413356090008,596.4413356090008,596.4413356090008,596.4413356090008,596.4413356090008,596.7059663889995,596.7059663889995,598.5477254569996,598.5477254569996,598.5865973840009,598.5865973840009,598.5865973840009,598.5865973840009,598.5865973840009,598.5865973840009,598.5865973840009,598.5865973840009,598.5865973840009,598.5865973840009,598.5865973840009,598.5865973840009,598.5865973840009,598.5865973840009,598.5865973840009,40,46,43,66,40,53,None,None,601.1023900379987,601.1023900379987,601.1023900379987,601.1023900379987,601.1023900379987,601.1023900379987,601.1023900379987,601.1023900379987,0.008196105001843534,601.1023900379987,53,53,[-0.02625],[-0.305],[1],[0],[0],[4.481573651999497],['tijiao'],0.2,0,,[],[],[],[],[],[],[],605.6140348589979,605.6140348589979,605.6140348589979,605.6140348589979,1.1500000000000001,3.5611514250012988,609.193883412001,610.9447684369989,,,,,,,,,,,,,,,,,,,,,,,,,,,280,f,24,2023-04-04_17h36.53.328,RL,2022.2.4,60.01309773911543,
0,0.3,0.225,0,41,41,41,,,,,,,,,,None,610.9447684369989,610.9447684369989,610.9447684369989,610.9447684369989,610.9447684369989,610.9447684369989,i,0.37811542700001155,611.3649025459999,611.3649025459999,611.3649025459999,611.3649025459999,611.3649025459999,611.3649025459999,611.6328607479991,611.6328607479991,612.8211403799978,612.8211403799978,612.8593787479986,612.8593787479986,612.8593787479986,612.8593787479986,612.8593787479986,612.8593787479986,612.8593787479986,612.8593787479986,612.8593787479986,612.8593787479986,612.8593787479986,612.8593787479986,612.8593787479986,612.8593787479986,612.8593787479986,44,48,34,66,34,32,3.0,2.947587926999404,,,,,,,,,,,,,[],[],[],[],[],[],[],0.6,3,,[],[],[],[],[],[],[],,,,,None,None,618.3532387689993,620.0670254549987,615.3582296959976,615.3582296959976,615.3582296959976,615.3582296959976,615.3582296959976,,,,,,,,,,,,,,,,,,,,,,280,f,24,2023-04-04_17h36.53.328,RL,2022.2.4,60.01309773911543,
1,-0.3,-0.225,0,42,42,42,,,,,,,,,,None,620.0670254549987,620.0670254549987,620.0670254549987,620.0670254549987,620.0670254549987,620.0670254549987,j,0.6077123489994847,620.7207206759995,620.7207206759995,620.7207206759995,620.7207206759995,620.7207206759995,620.7207206759995,620.9878409269986,620.9878409269986,621.9096930419983,621.9096930419983,621.9505624259982,621.9505624259982,621.9505624259982,621.9505624259982,621.9505624259982,621.9505624259982,621.9505624259982,621.9505624259982,621.9505624259982,621.9505624259982,621.9505624259982,621.9505624259982,621.9505624259982,621.9505624259982,621.9505624259982,38,47,40,67,67,54,4.0,2.0474774230024195,,,,,,,,,,,,,[],[],[],[],[],[],[],-0.2,2,,[],[],[],[],[],[],[],,,,,None,None,626.555970327001,628.2211910449987,624.4601200879988,624.4601200879988,624.4601200879988,624.4601200879988,624.4601200879988,,,,,,,,,,,,,,,,,,,,,,280,f,24,2023-04-04_17h36.53.328,RL,2022.2.4,60.01309773911543,
0,0.3,0.225,0,43,43,43,,,,,,,,,,None,628.2211910449987,628.2211910449987,628.2211910449987,628.2211910449987,628.2211910449987,628.2211910449987,j,0.412340792001487,628.6748449999977,628.6748449999977,628.6748449999977,628.6748449999977,628.6748449999977,628.6748449999977,628.9437225789989,628.9437225789989,630.8789912539978,630.8789912539978,630.9182708189983,630.9182708189983,630.9182708189983,630.9182708189983,630.9182708189983,630.9182708189983,630.9182708189983,630.9182708189983,630.9182708189983,630.9182708189983,630.9182708189983,630.9182708189983,630.9182708189983,630.9182708189983,630.9182708189983,45,49,41,64,64,53,4.0,1.5181460579988197,,,,,,,,,,,,,[],[],[],[],[],[],[],-0.6,2,,[],[],[],[],[],[],[],,,,,None,None,634.9936974989978,636.9923165459986,633.4305189949991,633.4305189949991,633.4305189949991,633.4305189949991,633.4305189949991,,,,,,,,,,,,,,,,,,,,,,280,f,24,2023-04-04_17h36.53.328,RL,2022.2.4,60.01309773911543,
1,-0.3,-0.225,0,44,44,44,,,,,,,,,,None,636.9923165459986,636.9923165459986,636.9923165459986,636.9923165459986,636.9923165459986,636.9923165459986,j,0.3905371439977898,637.4262214029986,637.4262214029986,637.4262214029986,637.4262214029986,637.4262214029986,637.4262214029986,637.6936377300008,637.6936377300008,639.5996990669992,639.5996990669992,639.6395982779977,639.6395982779977,639.6395982779977,639.6395982779977,639.6395982779977,639.6395982779977,639.6395982779977,639.6395982779977,639.6395982779977,639.6395982779977,639.6395982779977,639.6395982779977,639.6395982779977,639.6395982779977,639.6395982779977,39,56,53,69,69,58,5.0,1.2293165159971977,,,,,,,,,,,,,[],[],[],[],[],[],[],0.2,2,,[],[],[],[],[],[],[],,,,,None,None,643.4098952079985,645.1796002810006,642.1363564050007,642.1363564050007,642.1363564050007,642.1363564050007,642.1363564050007,,,,,,,,,,,,,,,,,,,,,,280,f,24,2023-04-04_17h36.53.328,RL,2022.2.4,60.01309773911543,
0,0.3,0.225,0,45,45,45,,,,,,,,,,None,645.1796002810006,645.1796002810006,645.1796002810006,645.1796002810006,645.1796002810006,645.1796002810006,j,0.3478012250016036,645.5811959530001,645.5811959530001,645.5811959530001,645.5811959530001,645.5811959530001,645.5811959530001,645.8514200280006,645.8514200280006,646.9411720349999,646.9411720349999,646.981906705998,646.981906705998,646.981906705998,646.981906705998,646.981906705998,646.981906705998,646.981906705998,646.981906705998,646.981906705998,646.981906705998,646.981906705998,646.981906705998,646.981906705998,646.981906705998,646.981906705998,47,48,52,64,64,31,5.0,1.8918692190018191,,,,,,,,,,,,,[],[],[],[],[],[],[],-0.6,2,,[],[],[],[],[],[],[],,,,,None,None,651.4184620220003,653.116579829999,649.479580141,649.479580141,649.479580141,649.479580141,649.479580141,,,,,,,,,,,,,,,,,,,,,,280,f,24,2023-04-04_17h36.53.328,RL,2022.2.4,60.01309773911543,
1,-0.3,-0.225,0,46,46,46,,,,,,,,,,None,653.116579829999,653.116579829999,653.116579829999,653.116579829999,653.116579829999,653.116579829999,j,0.38236943100127974,653.5476600549991,653.5476600549991,653.5476600549991,653.5476600549991,653.5476600549991,653.5476600549991,653.8154867929989,653.8154867929989,655.3580899730005,655.3580899730005,655.395620233001,655.395620233001,655.395620233001,655.395620233001,655.395620233001,655.395620233001,655.395620233001,655.395620233001,655.395620233001,655.395620233001,655.395620233001,655.395620233001,655.395620233001,655.395620233001,655.395620233001,57,41,36,67,67,55,5.0,1.2980994669997017,,,,,,,,,,,,,[],[],[],[],[],[],[],0.6,2,,[],[],[],[],[],[],[],,,,,None,None,659.2393934639986,661.2199701249992,657.8942229809982,657.8942229809982,657.8942229809982,657.8942229809982,657.8942229809982,,,,,,,,,,,,,,,,,,,,,,280,f,24,2023-04-04_17h36.53.328,RL,2022.2.4,60.01309773911543,
0,0.3,0.225,0,47,47,47,,,,,,,,,,None,661.2199701249992,661.2199701249992,661.2199701249992,661.2199701249992,661.2199701249992,661.2199701249992,j,1.4130131230012921,662.6734831219983,662.6734831219983,662.6734831219983,662.6734831219983,662.6734831219983,662.6734831219983,662.9410326699981,662.9410326699981,664.9283305319987,664.9283305319987,664.9675211680005,664.9675211680005,664.9675211680005,664.9675211680005,664.9675211680005,664.9675211680005,664.9675211680005,664.9675211680005,664.9675211680005,664.9675211680005,664.9675211680005,664.9675211680005,664.9675211680005,664.9675211680005,664.9675211680005,46,46,42,64,64,54,None,None,667.486266904998,667.486266904998,667.486266904998,667.486266904998,667.486266904998,667.486266904998,667.486266904998,667.486266904998,0.008675330002006376,667.486266904998,66,66,[0.00375],[-0.30125],[1],[0],[0],[5.975442308998026],['tijiao'],-0.2,0,,[],[],[],[],[],[],[],673.4951496760004,673.4951496760004,673.4951496760004,673.4951496760004,6.9875,1.5309163060010178,675.0411727879982,676.9940800170007,,,,,,,,,,,,,,,,,,,,,,,,,,,280,f,24,2023-04-04_17h36.53.328,RL,2022.2.4,60.01309773911543,
1,-0.3,-0.225,0,48,48,48,,,,,,,,,,None,676.9940800170007,676.9940800170007,676.9940800170007,676.9940800170007,676.9940800170007,676.9940800170007,j,0.4108894999990298,677.4459389129988,677.4459389129988,677.4459389129988,677.4459389129988,677.4459389129988,677.4459389129988,677.7113155789993,677.7113155789993,678.7021896529986,678.7021896529986,678.7433600149998,678.7433600149998,678.7433600149998,678.7433600149998,678.7433600149998,678.7433600149998,678.7433600149998,678.7433600149998,678.7433600149998,678.7433600149998,678.7433600149998,678.7433600149998,678.7433600149998,678.7433600149998,678.7433600149998,45,48,51,70,70,47,5.0,1.90011083400168,,,,,,,,,,,,,[],[],[],[],[],[],[],-0.6,3,,[],[],[],[],[],[],[],,,,,None,None,683.1838358460009,685.0145356510002,681.237551735001,681.237551735001,681.237551735001,681.237551735001,681.237551735001,,,,,,,,,,,,,,,,,,,,,,280,f,24,2023-04-04_17h36.53.328,RL,2022.2.4,60.01309773911543,
0,0.3,0.225,0,49,49,49,,,,,,,,,,None,685.0145356510002,685.0145356510002,685.0145356510002,685.0145356510002,685.0145356510002,685.0145356510002,j,0.8200692589998653,685.8847435999996,685.8847435999996,685.8847435999996,685.8847435999996,685.8847435999996,685.8847435999996,686.1549067730011,686.1549067730011,688.0832776719981,688.0832776719981,688.1249450920004,688.1249450920004,688.1249450920004,688.1249450920004,688.1249450920004,688.1249450920004,688.1249450920004,688.1249450920004,688.1249450920004,688.1249450920004,688.1249450920004,688.1249450920004,688.1249450920004,688.1249450920004,688.1249450920004,47,47,48,66,66,51,None,None,690.6419192449976,690.6419192449976,690.6419192449976,690.6419192449976,690.6419192449976,690.6419192449976,690.6419192449976,690.6419192449976,0.008735454997804482,690.6419192449976,70,70,[0.07375],[-0.305],[1],[0],[0],[5.672489688000496],['tijiao'],0.2,0,,[],[],[],[],[],[],[],696.3469710940008,696.3469710940008,696.3469710940008,696.3469710940008,8.9875,2.497680093998497,698.8644681490005,700.7225031749986,,,,,,,,,,,,,,,,,,,,,,,,,,,280,f,24,2023-04-04_17h36.53.328,RL,2022.2.4,60.01309773911543,
1,-0.3,-0.225,0,50,50,50,,,,,,,,,,None,700.7225031749986,700.7225031749986,700.7225031749986,700.7225031749986,700.7225031749986,700.7225031749986,j,0.9027234809982474,701.6737439040007,701.6737439040007,701.6737439040007,701.6737439040007,701.6737439040007,701.6737439040007,701.9447040249979,701.9447040249979,703.7598046079984,703.7598046079984,703.7999510119989,703.7999510119989,703.7999510119989,703.7999510119989,703.7999510119989,703.7999510119989,703.7999510119989,703.7999510119989,703.7999510119989,703.7999510119989,703.7999510119989,703.7999510119989,703.7999510119989,703.7999510119989,703.7999510119989,35,50,51,78,78,63,None,None,706.3102508329976,706.3102508329976,706.3102508329976,706.3102508329976,706.3102508329976,706.3102508329976,706.3102508329976,706.3102508329976,0.008269711001048563,706.3102508329976,80,80,[0.065],[-0.31625],[1],[0],[0],[4.439644767997379],['tijiao'],-0.6,0,,[],[],[],[],[],[],[],710.7818972290006,710.7818972290006,710.7818972290006,710.7818972290006,9.0375,1.2095899240011931,712.0094094150008,713.8788562669979,,,,,,,,,,,,,,,,,,,,,,,,,,,280,f,24,2023-04-04_17h36.53.328,RL,2022.2.4,60.01309773911543,
0,0.3,0.225,0,51,51,51,,,,,,,,,,None,713.8788562669979,713.8788562669979,713.8788562669979,713.8788562669979,713.8788562669979,713.8788562669979,j,0.4642706239974359,714.380794738001,714.380794738001,714.380794738001,714.380794738001,714.380794738001,714.380794738001,714.6463227450004,714.6463227450004,715.4688891879996,715.4688891879996,715.5079471680001,715.5079471680001,715.5079471680001,715.5079471680001,715.5079471680001,715.5079471680001,715.5079471680001,715.5079471680001,715.5079471680001,715.5079471680001,715.5079471680001,715.5079471680001,715.5079471680001,715.5079471680001,715.5079471680001,38,39,48,75,75,38,None,None,718.0234862010002,718.0234862010002,718.0234862010002,718.0234862010002,718.0234862010002,718.0234862010002,718.0234862010002,718.0234862010002,0.008582995997130638,718.0234862010002,81,81,[0.01125],[-0.28625],[1],[0],[0],[4.2944608139987395],['tijiao'],-0.6,0,,[],[],[],[],[],[],[],722.3518428530006,722.3518428530006,722.3518428530006,722.3518428530006,8.775,1.8982675260012911,724.2636503770009,725.8517731779975,,,,,,,,,,,,,,,,,,,,,,,,,,,280,f,24,2023-04-04_17h36.53.328,RL,2022.2.4,60.01309773911543,
1,-0.3,-0.225,0,52,52,52,,,,,,,,,,None,725.8517731779975,725.8517731779975,725.8517731779975,725.8517731779975,725.8517731779975,725.8517731779975,j,0.34181341899966355,726.2369827859984,726.2369827859984,726.2369827859984,726.2369827859984,726.2369827859984,726.2369827859984,726.5068707619976,726.5068707619976,727.5932521920004,727.5932521920004,727.6309521139992,727.6309521139992,727.6309521139992,727.6309521139992,727.6309521139992,727.6309521139992,727.6309521139992,727.6309521139992,727.6309521139992,727.6309521139992,727.6309521139992,727.6309521139992,727.6309521139992,727.6309521139992,727.6309521139992,34,39,41,69,69,42,None,None,730.147754802998,730.147754802998,730.147754802998,730.147754802998,730.147754802998,730.147754802998,730.147754802998,730.147754802998,0.008997299999464303,730.147754802998,69,69,[-0.0175],[-0.2775],[1],[0],[0],[4.5587376069997845],['tijiao'],0.6,0,,[],[],[],[],[],[],[],734.7390473220003,734.7390473220003,734.7390473220003,734.7390473220003,7.925,1.7560177779996593,736.5121145189987,738.322141790999,,,,,,,,,,,,,,,,,,,,,,,,,,,280,f,24,2023-04-04_17h36.53.328,RL,2022.2.4,60.01309773911543,
0,0.3,0.225,0,53,53,53,,,,,,,,,,None,738.322141790999,738.322141790999,738.322141790999,738.322141790999,738.322141790999,738.322141790999,j,0.41203072600183077,738.7754131679976,738.7754131679976,738.7754131679976,738.7754131679976,738.7754131679976,738.7754131679976,739.0550756789999,739.0550756789999,740.5315214609982,740.5315214609982,740.5567453449985,740.5567453449985,740.5567453449985,740.5567453449985,740.5567453449985,740.5567453449985,740.5567453449985,740.5567453449985,740.5567453449985,740.5567453449985,740.5567453449985,740.5567453449985,740.5567453449985,740.5567453449985,740.5567453449985,39,46,44,73,73,44,None,None,743.068592216001,743.068592216001,743.068592216001,743.068592216001,743.068592216001,743.068592216001,743.068592216001,743.068592216001,0.008297952997963876,743.068592216001,77,77,[0.015],[-0.27375],[1],[0],[0],[5.274922784999944],['tijiao'],0.6,0,,[],[],[],[],[],[],[],748.3748434909976,748.3748434909976,748.3748434909976,748.3748434909976,8.925,1.5842511529990588,749.9765348670007,751.729701059001,,,,,,,,,,,,,,,,,,,,,,,,,,,280,f,24,2023-04-04_17h36.53.328,RL,2022.2.4,60.01309773911543,
1,-0.3,-0.225,0,54,54,54,,,,,,,,,,None,751.729701059001,751.729701059001,751.729701059001,751.729701059001,751.729701059001,751.729701059001,j,0.49036720799995237,752.2669348489981,752.2669348489981,752.2669348489981,752.2669348489981,752.2669348489981,752.2669348489981,752.5355066259981,752.5355066259981,753.8545559409977,753.8545559409977,753.8936012640006,753.8936012640006,753.8936012640006,753.8936012640006,753.8936012640006,753.8936012640006,753.8936012640006,753.8936012640006,753.8936012640006,753.8936012640006,753.8936012640006,753.8936012640006,753.8936012640006,753.8936012640006,753.8936012640006,32,44,45,66,66,60,None,None,,,,,,,,,,,,,[],[],[],[],[],[],[],0.2,1,68,[-0.05625],[-0.29],[1],[0],[0],[5.288581191998674],['tijiao_random_2'],761.7342842219987,761.7342842219987,761.7342842219987,761.7342842219987,9.075,1.238241000999551,762.9939618429999,764.8865890380002,,,,,,756.4307397989978,756.4307397989978,756.4307397989978,756.4307397989978,756.4307397989978,756.4307397989978,756.4307397989978,756.4307397989978,0.00979324099898804,756.4307397989978,,,,,,,,,,,,280,f,24,2023-04-04_17h36.53.328,RL,2022.2.4,60.01309773911543,
0,0.3,0.225,0,55,55,55,,,,,,,,,,None,764.8865890380002,764.8865890380002,764.8865890380002,764.8865890380002,764.8865890380002,764.8865890380002,j,1.1911318550010037,766.1216688630011,766.1216688630011,766.1216688630011,766.1216688630011,766.1216688630011,766.1216688630011,766.3935079839976,766.3935079839976,768.2616351939978,768.2616351939978,768.3003344629979,768.3003344629979,768.3003344629979,768.3003344629979,768.3003344629979,768.3003344629979,768.3003344629979,768.3003344629979,768.3003344629979,768.3003344629979,768.3003344629979,768.3003344629979,768.3003344629979,768.3003344629979,768.3003344629979,44,44,48,61,61,62,6.0,2.2274518119993445,,,,,,,,,,,,,[],[],[],[],[],[],[],0.6,2,,[],[],[],[],[],[],[],,,,,None,None,773.0771212559994,775.0077198510007,770.8041811229996,770.8041811229996,770.8041811229996,770.8041811229996,770.8041811229996,,,,,,,,,,,,,,,,,,,,,,280,f,24,2023-04-04_17h36.53.328,RL,2022.2.4,60.01309773911543,
1,-0.3,-0.225,0,56,56,56,,,,,,,,,,None,775.0077198510007,775.0077198510007,775.0077198510007,775.0077198510007,775.0077198510007,775.0077198510007,i,1.2972989930021868,776.3402359319989,776.3402359319989,776.3402359319989,776.3402359319989,776.3402359319989,776.3402359319989,776.6136083479978,776.6136083479978,777.6008119069993,777.6008119069993,777.6378165620008,777.6378165620008,777.6378165620008,777.6378165620008,777.6378165620008,777.6378165620008,777.6378165620008,777.6378165620008,777.6378165620008,777.6378165620008,777.6378165620008,777.6378165620008,777.6378165620008,777.6378165620008,777.6378165620008,37,47,48,68,48,50,4.0,1.4607826780011237,,,,,,,,,,,,,[],[],[],[],[],[],[],0.2,2,,[],[],[],[],[],[],[],,,,,None,None,781.6575363869997,783.394970297999,780.1548158939986,780.1548158939986,780.1548158939986,780.1548158939986,780.1548158939986,,,,,,,,,,,,,,,,,,,,,,280,f,24,2023-04-04_17h36.53.328,RL,2022.2.4,60.01309773911543,
0,0.3,0.225,0,57,57,57,,,,,,,,,,None,783.394970297999,783.394970297999,783.394970297999,783.394970297999,783.394970297999,783.394970297999,f,0.3023772739979904,783.747219421999,783.747219421999,783.747219421999,783.747219421999,783.747219421999,783.747219421999,784.0170291939976,784.0170291939976,785.2519720220007,785.2519720220007,785.290722785001,785.290722785001,785.290722785001,785.290722785001,785.290722785001,785.290722785001,785.290722785001,785.290722785001,785.290722785001,785.290722785001,785.290722785001,785.290722785001,785.290722785001,785.290722785001,785.290722785001,46,44,49,66,44,66,None,None,787.8056785049994,787.8056785049994,787.8056785049994,787.8056785049994,787.8056785049994,787.8056785049994,787.8056785049994,787.8056785049994,0.00871062000078382,787.8056785049994,40,40,[-0.01],[-0.3125],[1],[0],[0],[4.347634126999765],['tijiao'],-0.6,0,,[],[],[],[],[],[],[],792.1874069099977,792.1874069099977,792.1874069099977,792.1874069099977,7.862500000000001,2.6453706419997616,794.8540509310005,796.8172715569999,,,,,,,,,,,,,,,,,,,,,,,,,,,280,f,24,2023-04-04_17h36.53.328,RL,2022.2.4,60.01309773911543,
1,-0.3,-0.225,0,58,58,58,,,,,,,,,,None,796.8172715569999,796.8172715569999,796.8172715569999,796.8172715569999,796.8172715569999,796.8172715569999,f,0.635275445998559,797.5038334009987,797.5038334009987,797.5038334009987,797.5038334009987,797.5038334009987,797.5038334009987,797.784284428999,797.784284428999,798.9256664259992,798.9256664259992,798.949993547998,798.949993547998,798.949993547998,798.949993547998,798.949993547998,798.949993547998,798.949993547998,798.949993547998,798.949993547998,798.949993547998,798.949993547998,798.949993547998,798.949993547998,798.949993547998,798.949993547998,36,55,50,77,55,72,None,None,,,,,,,,,,,,,[],[],[],[],[],[],[],0.6,1,68,[0.0275],[-0.32125],[1],[0],[0],[4.663539413999388],['tijiao_random_2'],806.1556647549987,806.1556647549987,806.1556647549987,806.1556647549987,9.0625,1.2557227540019085,807.4317958399988,808.990593358998,,,,,,801.4748716719987,801.4748716719987,801.4748716719987,801.4748716719987,801.4748716719987,801.4748716719987,801.4748716719987,801.4748716719987,0.01027417799923569,801.4748716719987,,,,,,,,,,,,280,f,24,2023-04-04_17h36.53.328,RL,2022.2.4,60.01309773911543,
0,0.3,0.225,0,59,59,59,,,,,,,,,,None,808.990593358998,808.990593358998,808.990593358998,808.990593358998,808.990593358998,808.990593358998,j,0.5009202930013998,809.5442705280002,809.5442705280002,809.5442705280002,809.5442705280002,809.5442705280002,809.5442705280002,809.8101713489996,809.8101713489996,811.6660972159989,811.6660972159989,811.7021929549992,811.7021929549992,811.7021929549992,811.7021929549992,811.7021929549992,811.7021929549992,811.7021929549992,811.7021929549992,811.7021929549992,811.7021929549992,811.7021929549992,811.7021929549992,811.7021929549992,811.7021929549992,811.7021929549992,42,47,35,70,70,44,6.0,1.8985072969990142,,,,,,,,,,,,,[],[],[],[],[],[],[],0.2,2,,[],[],[],[],[],[],[],,,,,None,None,816.147069071998,817.894704798,814.2029720069986,814.2029720069986,814.2029720069986,814.2029720069986,814.2029720069986,,,,,,,,,,,,,,,,,,,,,,280,f,24,2023-04-04_17h36.53.328,RL,2022.2.4,60.01309773911543,
1,-0.3,-0.225,0,60,60,60,,,,,,,,,,None,817.894704798,817.894704798,817.894704798,817.894704798,817.894704798,817.894704798,j,0.3124388630021713,818.2466772570006,818.2466772570006,818.2466772570006,818.2466772570006,818.2466772570006,818.2466772570006,818.5169741539976,818.5169741539976,820.1517543599984,820.1517543599984,820.1912525849984,820.1912525849984,820.1912525849984,820.1912525849984,820.1912525849984,820.1912525849984,820.1912525849984,820.1912525849984,820.1912525849984,820.1912525849984,820.1912525849984,820.1912525849984,820.1912525849984,820.1912525849984,820.1912525849984,36,47,53,74,74,39,None,None,,,,,,,,,,,,,[],[],[],[],[],[],[],-0.6,1,21,[0.09],[-0.30125],[1],[0],[0],[4.889529560001392],['tijiao_random_2'],827.6259616829993,827.6259616829993,827.6259616829993,827.6259616829993,6.9375,3.5296355730024516,831.1770838749981,832.7180891709977,,,,,,822.717794188,822.717794188,822.717794188,822.717794188,822.717794188,822.717794188,822.717794188,822.717794188,0.009862235001492081,822.717794188,,,,,,,,,,,,280,f,24,2023-04-04_17h36.53.328,RL,2022.2.4,60.01309773911543,
0,0.3,0.225,0,61,61,61,,,,,,,,,,None,832.7180891709977,832.7180891709977,832.7180891709977,832.7180891709977,832.7180891709977,832.7180891709977,r,0.7864024530026654,833.5548667500007,833.5548667500007,833.5548667500007,833.5548667500007,833.5548667500007,833.5548667500007,833.8239309989985,833.8239309989985,834.9587024879984,834.9587024879984,834.9983892439996,834.9983892439996,834.9983892439996,834.9983892439996,834.9983892439996,834.9983892439996,834.9983892439996,834.9983892439996,834.9983892439996,834.9983892439996,834.9983892439996,834.9983892439996,834.9983892439996,834.9983892439996,834.9983892439996,37,56,37,69,37,47,None,None,,,,,,,,,,,,,[],[],[],[],[],[],[],-0.6,1,30,[0.0325],[-0.2975],[1],[0],[0],[4.62913085299806],['tijiao_random_2'],842.1734446720002,842.1734446720002,842.1734446720002,842.1734446720002,7.0875,1.8672722110022733,844.059834104999,845.5903850469986,,,,,,837.5243715299985,837.5243715299985,837.5243715299985,837.5243715299985,837.5243715299985,837.5243715299985,837.5243715299985,837.5243715299985,0.009914465001202188,837.5243715299985,,,,,,,,,,,,280,f,24,2023-04-04_17h36.53.328,RL,2022.2.4,60.01309773911543,
1,-0.3,-0.225,0,62,62,62,,,,,,,,,,None,845.5903850469986,845.5903850469986,845.5903850469986,845.5903850469986,845.5903850469986,845.5903850469986,j,0.4318772149999859,846.0589478199981,846.0589478199981,846.0589478199981,846.0589478199981,846.0589478199981,846.0589478199981,846.3301129179999,846.3301129179999,848.0658364560004,848.0658364560004,848.1045848799986,848.1045848799986,848.1045848799986,848.1045848799986,848.1045848799986,848.1045848799986,848.1045848799986,848.1045848799986,848.1045848799986,848.1045848799986,848.1045848799986,848.1045848799986,848.1045848799986,848.1045848799986,848.1045848799986,52,52,33,66,66,40,4.0,2.232695914000942,,,,,,,,,,,,,[],[],[],[],[],[],[],0.2,3,,[],[],[],[],[],[],[],,,,,None,None,852.8804360419999,854.6288909520008,850.6028682430006,850.6028682430006,850.6028682430006,850.6028682430006,850.6028682430006,,,,,,,,,,,,,,,,,,,,,,280,f,24,2023-04-04_17h36.53.328,RL,2022.2.4,60.01309773911543,
0,0.3,0.225,0,63,63,63,,,,,,,,,,None,854.6288909520008,854.6288909520008,854.6288909520008,854.6288909520008,854.6288909520008,854.6288909520008,j,0.5073540299999877,855.1805018839987,855.1805018839987,855.1805018839987,855.1805018839987,855.1805018839987,855.1805018839987,855.4510903199989,855.4510903199989,856.4874696119987,856.4874696119987,856.5273290010009,856.5273290010009,856.5273290010009,856.5273290010009,856.5273290010009,856.5273290010009,856.5273290010009,856.5273290010009,856.5273290010009,856.5273290010009,856.5273290010009,856.5273290010009,856.5273290010009,856.5273290010009,856.5273290010009,49,51,52,73,73,68,None,None,859.0406352869977,859.0406352869977,859.0406352869977,859.0406352869977,859.0406352869977,859.0406352869977,859.0406352869977,859.0406352869977,0.009155178999208147,859.0406352869977,75,75,[-0.01875],[-0.305],[1],[0],[0],[4.310820763002994],['tijiao'],-0.6,0,,[],[],[],[],[],[],[],863.3855641759983,863.3855641759983,863.3855641759983,863.3855641759983,9.025,1.6278959160008526,865.0271861369984,866.7006163229998,,,,,,,,,,,,,,,,,,,,,,,,,,,280,f,24,2023-04-04_17h36.53.328,RL,2022.2.4,60.01309773911543,
1,-0.3,-0.225,0,64,64,64,,,,,,,,,,None,866.7006163229998,866.7006163229998,866.7006163229998,866.7006163229998,866.7006163229998,866.7006163229998,j,0.6461176040029386,867.3868825639984,867.3868825639984,867.3868825639984,867.3868825639984,867.3868825639984,867.3868825639984,867.6565588400008,867.6565588400008,869.3343681660008,869.3343681660008,869.372329242,869.372329242,869.372329242,869.372329242,869.372329242,869.372329242,869.372329242,869.372329242,869.372329242,869.372329242,869.372329242,869.372329242,869.372329242,869.372329242,869.372329242,37,46,47,68,68,66,5.0,2.1466672850001487,,,,,,,,,,,,,[],[],[],[],[],[],[],0.2,2,,[],[],[],[],[],[],[],,,,,None,None,874.0738859859994,876.0723589279987,871.8784669159977,871.8784669159977,871.8784669159977,871.8784669159977,871.8784669159977,,,,,,,,,,,,,,,,,,,,,,280,f,24,2023-04-04_17h36.53.328,RL,2022.2.4,60.01309773911543,
0,0.3,0.225,0,65,65,65,,,,,,,,,,None,876.0723589279987,876.0723589279987,876.0723589279987,876.0723589279987,876.0723589279987,876.0723589279987,j,0.3619651299995894,876.4741942639994,876.4741942639994,876.4741942639994,876.4741942639994,876.4741942639994,876.4741942639994,876.7444213349991,876.7444213349991,877.5964327209986,877.5964327209986,877.6341921060011,877.6341921060011,877.6341921060011,877.6341921060011,877.6341921060011,877.6341921060011,877.6341921060011,877.6341921060011,877.6341921060011,877.6341921060011,877.6341921060011,877.6341921060011,877.6341921060011,877.6341921060011,877.6341921060011,39,44,44,70,70,42,None,None,880.1515010189978,880.1515010189978,880.1515010189978,880.1515010189978,880.1515010189978,880.1515010189978,880.1515010189978,880.1515010189978,0.008633273999294033,880.1515010189978,72,72,[0.04375],[-0.29625],[1],[0],[0],[3.910639990001073],['tijiao'],0.6,0,,[],[],[],[],[],[],[],884.0955140730002,884.0955140730002,884.0955140730002,884.0955140730002,8.875,1.3324299729974882,885.4430503549993,887.2278016479977,,,,,,,,,,,,,,,,,,,,,,,,,,,280,f,24,2023-04-04_17h36.53.328,RL,2022.2.4,60.01309773911543,
1,-0.3,-0.225,0,66,66,66,,,,,,,,,,None,887.2278016479977,887.2278016479977,887.2278016479977,887.2278016479977,887.2278016479977,887.2278016479977,j,0.5971732580001117,887.8635736369979,887.8635736369979,887.8635736369979,887.8635736369979,887.8635736369979,887.8635736369979,888.1332947789997,888.1332947789997,889.669378972998,889.669378972998,889.7113666299992,889.7113666299992,889.7113666299992,889.7113666299992,889.7113666299992,889.7113666299992,889.7113666299992,889.7113666299992,889.7113666299992,889.7113666299992,889.7113666299992,889.7113666299992,889.7113666299992,889.7113666299992,889.7113666299992,35,42,49,76,76,69,None,None,892.2319151299998,892.2319151299998,892.2319151299998,892.2319151299998,892.2319151299998,892.2319151299998,892.2319151299998,892.2319151299998,0.008443074999377131,892.2319151299998,75,75,[0.005],[-0.30875],[1],[0],[0],[3.3471771240001544],['tijiao'],-0.2,0,,[],[],[],[],[],[],[],895.6112808889993,895.6112808889993,895.6112808889993,895.6112808889993,9.95,1.2938848230005533,896.923220867,898.716326482001,,,,,,,,,,,,,,,,,,,,,,,,,,,280,f,24,2023-04-04_17h36.53.328,RL,2022.2.4,60.01309773911543,
0,0.3,0.225,0,67,67,67,,,,,,,,,,None,898.716326482001,898.716326482001,898.716326482001,898.716326482001,898.716326482001,898.716326482001,j,0.30753668200122775,899.0710394399975,899.0710394399975,899.0710394399975,899.0710394399975,899.0710394399975,899.0710394399975,899.3382530310009,899.3382530310009,901.0389026349985,901.0389026349985,901.0788402069993,901.0788402069993,901.0788402069993,901.0788402069993,901.0788402069993,901.0788402069993,901.0788402069993,901.0788402069993,901.0788402069993,901.0788402069993,901.0788402069993,901.0788402069993,901.0788402069993,901.0788402069993,901.0788402069993,40,45,42,79,79,72,6.0,2.0164326680023805,,,,,,,,,,,,,[],[],[],[],[],[],[],-0.6,3,,[],[],[],[],[],[],[],,,,,None,None,905.6416639140007,907.3538459279989,903.5793725639996,903.5793725639996,903.5793725639996,903.5793725639996,903.5793725639996,,,,,,,,,,,,,,,,,,,,,,280,f,24,2023-04-04_17h36.53.328,RL,2022.2.4,60.01309773911543,
1,-0.3,-0.225,0,68,68,68,,,,,,,,,,None,907.3538459279989,907.3538459279989,907.3538459279989,907.3538459279989,907.3538459279989,907.3538459279989,j,0.3567195020004874,907.7566317620003,907.7566317620003,907.7566317620003,907.7566317620003,907.7566317620003,907.7566317620003,908.0257982399999,908.0257982399999,909.1150003679977,909.1150003679977,909.1543773490012,909.1543773490012,909.1543773490012,909.1543773490012,909.1543773490012,909.1543773490012,909.1543773490012,909.1543773490012,909.1543773490012,909.1543773490012,909.1543773490012,909.1543773490012,909.1543773490012,909.1543773490012,909.1543773490012,34,43,44,70,70,39,5.0,1.8818689780018758,,,,,,,,,,,,,[],[],[],[],[],[],[],0.6,3,,[],[],[],[],[],[],[],,,,,None,None,913.5738823319989,915.5079476899991,911.6488975909997,911.6488975909997,911.6488975909997,911.6488975909997,911.6488975909997,,,,,,,,,,,,,,,,,,,,,,280,f,24,2023-04-04_17h36.53.328,RL,2022.2.4,60.01309773911543,
0,0.3,0.225,0,69,69,69,,,,,,,,,,None,915.5079476899991,915.5079476899991,915.5079476899991,915.5079476899991,915.5079476899991,915.5079476899991,j,0.3054761640014476,915.860278174001,915.860278174001,915.860278174001,915.860278174001,915.860278174001,915.860278174001,916.1292346139999,916.1292346139999,917.8654903210008,917.8654903210008,917.9047440969989,917.9047440969989,917.9047440969989,917.9047440969989,917.9047440969989,917.9047440969989,917.9047440969989,917.9047440969989,917.9047440969989,917.9047440969989,917.9047440969989,917.9047440969989,917.9047440969989,917.9047440969989,917.9047440969989,36,46,50,77,77,72,None,None,920.4200284750004,920.4200284750004,920.4200284750004,920.4200284750004,920.4200284750004,920.4200284750004,920.4200284750004,920.4200284750004,0.00880217700250796,920.4200284750004,78,78,[0.025],[-0.27625],[1],[0],[0],[3.3607873289984127],['tijiao'],-0.6,0,,[],[],[],[],[],[],[],923.8114277200002,923.8114277200002,923.8114277200002,923.8114277200002,9.85,2.387389923998853,926.2182636899997,927.8299883539985,,,,,,,,,,,,,,,,,,,,,,,,,,,280,f,24,2023-04-04_17h36.53.328,RL,2022.2.4,60.01309773911543,
1,-0.3,-0.225,0,70,70,70,,,,,,,,,,None,927.8299883539985,927.8299883539985,927.8299883539985,927.8299883539985,927.8299883539985,927.8299883539985,j,0.27431778900063364,928.1507275010008,928.1507275010008,928.1507275010008,928.1507275010008,928.1507275010008,928.1507275010008,928.4164795389988,928.4164795389988,929.4206772789985,929.4206772789985,929.4598659149997,929.4598659149997,929.4598659149997,929.4598659149997,929.4598659149997,929.4598659149997,929.4598659149997,929.4598659149997,929.4598659149997,929.4598659149997,929.4598659149997,929.4598659149997,929.4598659149997,929.4598659149997,929.4598659149997,45,45,45,75,75,71,None,None,,,,,,,,,,,,,[],[],[],[],[],[],[],0.6,1,75,[0.02625],[-0.295],[1],[0],[0],[3.7430633140029386],['tijiao_random_2'],935.7491686930007,935.7491686930007,935.7491686930007,935.7491686930007,10.1,1.6743928120013152,937.4452568599991,939.2513516709987,,,,,,931.987479520998,931.987479520998,931.987479520998,931.987479520998,931.987479520998,931.987479520998,931.987479520998,931.987479520998,0.00976231799722882,931.987479520998,,,,,,,,,,,,280,f,24,2023-04-04_17h36.53.328,RL,2022.2.4,60.01309773911543,
0,0.3,0.225,0,71,71,71,,,,,,,,,,None,939.2513516709987,939.2513516709987,939.2513516709987,939.2513516709987,939.2513516709987,939.2513516709987,j,0.39247808999789413,939.6880752039979,939.6880752039979,939.6880752039979,939.6880752039979,939.6880752039979,939.6880752039979,939.957467889999,939.957467889999,940.8741199059987,940.8741199059987,940.9141024050004,940.9141024050004,940.9141024050004,940.9141024050004,940.9141024050004,940.9141024050004,940.9141024050004,940.9141024050004,940.9141024050004,940.9141024050004,940.9141024050004,940.9141024050004,940.9141024050004,940.9141024050004,940.9141024050004,43,42,38,79,79,69,None,None,,,,,,,,,,,,,[],[],[],[],[],[],[],-0.2,1,45,[0.05125],[-0.3],[1],[0],[0],[4.803781465998327],['tijiao_random_2'],948.2652623989998,948.2652623989998,948.2652623989998,948.2652623989998,7.825,1.6191540500003612,949.9015522129994,951.5585257300008,,,,,,943.4410812639981,943.4410812639981,943.4410812639981,943.4410812639981,943.4410812639981,943.4410812639981,943.4410812639981,943.4410812639981,0.010342424000555184,943.4410812639981,,,,,,,,,,,,280,f,24,2023-04-04_17h36.53.328,RL,2022.2.4,60.01309773911543,
1,-0.3,-0.225,0,72,72,72,,,,,,,,,,None,951.5585257300008,951.5585257300008,951.5585257300008,951.5585257300008,951.5585257300008,951.5585257300008,j,0.32035032700150623,951.9262331169994,951.9262331169994,951.9262331169994,951.9262331169994,951.9262331169994,951.9262331169994,952.1965650950006,952.1965650950006,953.6985893889978,953.6985893889978,953.7371794940009,953.7371794940009,953.7371794940009,953.7371794940009,953.7371794940009,953.7371794940009,953.7371794940009,953.7371794940009,953.7371794940009,953.7371794940009,953.7371794940009,953.7371794940009,953.7371794940009,953.7371794940009,953.7371794940009,50,47,41,76,76,49,None,None,956.253603090001,956.253603090001,956.253603090001,956.253603090001,956.253603090001,956.253603090001,956.253603090001,956.253603090001,0.009688610000011977,956.253603090001,78,78,[-0.02875],[-0.27875],[1],[0],[0],[4.832341124998493],['tijiao'],0.2,0,,[],[],[],[],[],[],[],961.1177590320003,961.1177590320003,961.1177590320003,961.1177590320003,9.925,1.9807133879985486,963.1177134869977,964.6462596639976,,,,,,,,,,,,,,,,,,,,,,,,,,,280,f,24,2023-04-04_17h36.53.328,RL,2022.2.4,60.01309773911543,
0,0.3,0.225,0,73,73,73,,,,,,,,,,None,964.6462596639976,964.6462596639976,964.6462596639976,964.6462596639976,964.6462596639976,964.6462596639976,j,0.2924031689981348,964.9818997740003,964.9818997740003,964.9818997740003,964.9818997740003,964.9818997740003,964.9818997740003,965.2528902829981,965.2528902829981,966.9580834119988,966.9580834119988,966.9973083839977,966.9973083839977,966.9973083839977,966.9973083839977,966.9973083839977,966.9973083839977,966.9973083839977,966.9973083839977,966.9973083839977,966.9973083839977,966.9973083839977,966.9973083839977,966.9973083839977,966.9973083839977,966.9973083839977,58,53,41,82,82,70,None,None,,,,,,,,,,,,,[],[],[],[],[],[],[],-0.2,1,40,[-0.045],[-0.27625],[1],[0],[0],[6.442069620999973],['tijiao_random_2'],975.9850540519983,975.9850540519983,975.9850540519983,975.9850540519983,7.1625,1.8514495089984848,977.8546979210005,979.5881256360008,,,,,,969.5193141399977,969.5193141399977,969.5193141399977,969.5193141399977,969.5193141399977,969.5193141399977,969.5193141399977,969.5193141399977,0.009985051001422107,969.5193141399977,,,,,,,,,,,,280,f,24,2023-04-04_17h36.53.328,RL,2022.2.4,60.01309773911543,
1,-0.3,-0.225,0,74,74,74,,,,,,,,,,None,979.5881256360008,979.5881256360008,979.5881256360008,979.5881256360008,979.5881256360008,979.5881256360008,j,0.33336984799825586,979.9740136820001,979.9740136820001,979.9740136820001,979.9740136820001,979.9740136820001,979.9740136820001,980.243609909001,980.243609909001,982.2464309879979,982.2464309879979,982.2845399229991,982.2845399229991,982.2845399229991,982.2845399229991,982.2845399229991,982.2845399229991,982.2845399229991,982.2845399229991,982.2845399229991,982.2845399229991,982.2845399229991,982.2845399229991,982.2845399229991,982.2845399229991,982.2845399229991,56,50,40,78,78,78,None,None,984.8001070700011,984.8001070700011,984.8001070700011,984.8001070700011,984.8001070700011,984.8001070700011,984.8001070700011,984.8001070700011,0.008586078998632729,984.8001070700011,79,79,[0.06875],[-0.26625],[1],[0],[0],[4.495381186996383],['tijiao'],0.6,0,,[],[],[],[],[],[],[],989.3278250299991,989.3278250299991,989.3278250299991,989.3278250299991,9.85,0.9832303859984677,990.3284645329986,992.1752755769994,,,,,,,,,,,,,,,,,,,,,,,,,,,280,f,24,2023-04-04_17h36.53.328,RL,2022.2.4,60.01309773911543,
0,0.3,0.225,0,75,75,75,,,,,,,,,,q,1072.3003234069984,1072.3003234069984,1072.3003234069984,1072.3003234069984,1072.3003234069984,1072.3003234069984,j,1.2437725019990467,1073.585302940999,1073.585302940999,1073.585302940999,1073.585302940999,1073.585302940999,1073.585302940999,1073.8530695679983,1073.8530695679983,1075.290657818001,1075.290657818001,1075.3290074649994,1075.3290074649994,1075.3290074649994,1075.3290074649994,1075.3290074649994,1075.3290074649994,1075.3290074649994,1075.3290074649994,1075.3290074649994,1075.3290074649994,1075.3290074649994,1075.3290074649994,1075.3290074649994,1075.3290074649994,1075.3290074649994,55,47,39,69,69,50,None,None,1077.8519211860003,1077.8519211860003,1077.8519211860003,1077.8519211860003,1077.8519211860003,1077.8519211860003,1077.8519211860003,1077.8519211860003,0.009231645999534521,1077.8519211860003,66,66,[0.075],[-0.305],[1],[0],[0],[4.26497751900024],['tijiao'],0.2,0,,[],[],[],[],[],[],[],1082.149873071001,1082.149873071001,1082.149873071001,1082.149873071001,5.9375,2.233344817002944,1084.3994632440008,1086.138351057998,,,,,,,,,,,,,,,,992.1752755769994,992.1752755769994,80.09738577499957,,,,,,,,,280,f,24,2023-04-04_17h36.53.328,RL,2022.2.4,60.01309773911543,
1,-0.3,-0.225,0,76,76,76,,,,,,,,,,None,1086.138351057998,1086.138351057998,1086.138351057998,1086.138351057998,1086.138351057998,1086.138351057998,i,0.3913976260009804,1086.576714720999,1086.576714720999,1086.576714720999,1086.576714720999,1086.576714720999,1086.576714720999,1086.8459434549986,1086.8459434549986,1088.763586383,1088.763586383,1088.8048157890007,1088.8048157890007,1088.8048157890007,1088.8048157890007,1088.8048157890007,1088.8048157890007,1088.8048157890007,1088.8048157890007,1088.8048157890007,1088.8048157890007,1088.8048157890007,1088.8048157890007,1088.8048157890007,1088.8048157890007,1088.8048157890007,50,48,40,73,40,82,None,None,1091.3262881629998,1091.3262881629998,1091.3262881629998,1091.3262881629998,1091.3262881629998,1091.3262881629998,1091.3262881629998,1091.3262881629998,0.009115654000197537,1091.3262881629998,40,40,[-0.00125],[-0.29875],[1],[0],[0],[3.972065055000712],['tijiao'],-0.6,0,,[],[],[],[],[],[],[],1095.3296278649977,1095.3296278649977,1095.3296278649977,1095.3296278649977,5.875,1.3195818860003783,1096.6654797129995,1098.2272216569982,,,,,,,,,,,,,,,,,,,,,,,,,,,280,f,24,2023-04-04_17h36.53.328,RL,2022.2.4,60.01309773911543,
0,0.3,0.225,0,77,77,77,,,,,,,,,,None,1098.2272216569982,1098.2272216569982,1098.2272216569982,1098.2272216569982,1098.2272216569982,1098.2272216569982,f,0.5321124920010334,1098.8138875500008,1098.8138875500008,1098.8138875500008,1098.8138875500008,1098.8138875500008,1098.8138875500008,1099.085189939,1099.085189939,1100.224225965998,1100.224225965998,1100.2645952979983,1100.2645952979983,1100.2645952979983,1100.2645952979983,1100.2645952979983,1100.2645952979983,1100.2645952979983,1100.2645952979983,1100.2645952979983,1100.2645952979983,1100.2645952979983,1100.2645952979983,1100.2645952979983,1100.2645952979983,1100.2645952979983,49,43,43,69,43,81,4.0,1.444779572000698,,,,,,,,,,,,,[],[],[],[],[],[],[],0.2,2,,[],[],[],[],[],[],[],,,,,None,None,1104.2499230859976,1105.864377531998,1102.7583423760007,1102.7583423760007,1102.7583423760007,1102.7583423760007,1102.7583423760007,,,,,,,,,,,,,,,,,,,,,,280,f,24,2023-04-04_17h36.53.328,RL,2022.2.4,60.01309773911543,
1,-0.3,-0.225,0,78,78,78,,,,,,,,,,None,1105.864377531998,1105.864377531998,1105.864377531998,1105.864377531998,1105.864377531998,1105.864377531998,r,0.4769117859977996,1106.384395475001,1106.384395475001,1106.384395475001,1106.384395475001,1106.384395475001,1106.384395475001,1106.6532708550003,1106.6532708550003,1107.639018621001,1107.639018621001,1107.6609809729998,1107.6609809729998,1107.6609809729998,1107.6609809729998,1107.6609809729998,1107.6609809729998,1107.6609809729998,1107.6609809729998,1107.6609809729998,1107.6609809729998,1107.6609809729998,1107.6609809729998,1107.6609809729998,1107.6609809729998,1107.6609809729998,47,35,35,77,47,77,None,None,1110.174347357999,1110.174347357999,1110.174347357999,1110.174347357999,1110.174347357999,1110.174347357999,1110.174347357999,1110.174347357999,0.009934269000950735,1110.174347357999,40,40,[-0.08],[-0.31875],[1],[0],[0],[4.132010655997874],['tijiao'],-0.6,0,,[],[],[],[],[],[],[],1114.3402322969996,1114.3402322969996,1114.3402322969996,1114.3402322969996,4.9875,0.9848311209971143,1115.343549631998,1116.8863604020007,,,,,,,,,,,,,,,,,,,,,,,,,,,280,f,24,2023-04-04_17h36.53.328,RL,2022.2.4,60.01309773911543,
0,0.3,0.225,0,79,79,79,,,,,,,,,,None,1116.8863604020007,1116.8863604020007,1116.8863604020007,1116.8863604020007,1116.8863604020007,1116.8863604020007,j,0.43643041899849777,1117.3740042969985,1117.3740042969985,1117.3740042969985,1117.3740042969985,1117.3740042969985,1117.3740042969985,1117.6420307269982,1117.6420307269982,1119.5784501889975,1119.5784501889975,1119.6169221089986,1119.6169221089986,1119.6169221089986,1119.6169221089986,1119.6169221089986,1119.6169221089986,1119.6169221089986,1119.6169221089986,1119.6169221089986,1119.6169221089986,1119.6169221089986,1119.6169221089986,1119.6169221089986,1119.6169221089986,1119.6169221089986,54,41,42,71,71,50,4.0,1.6268277739982295,,,,,,,,,,,,,[],[],[],[],[],[],[],-0.6,2,,[],[],[],[],[],[],[],,,,,None,None,1123.791410826001,1125.6564888920002,1122.1160058120004,1122.1160058120004,1122.1160058120004,1122.1160058120004,1122.1160058120004,,,,,,,,,,,,,,,,,,,,,,280,f,24,2023-04-04_17h36.53.328,RL,2022.2.4,60.01309773911543,
1,-0.3,-0.225,0,80,80,80,,,,,,,,,,None,1125.6564888920002,1125.6564888920002,1125.6564888920002,1125.6564888920002,1125.6564888920002,1125.6564888920002,i,0.62352733300213,1126.3245207889995,1126.3245207889995,1126.3245207889995,1126.3245207889995,1126.3245207889995,1126.3245207889995,1126.5967301929995,1126.5967301929995,1127.680304573998,1127.680304573998,1127.7199702159996,1127.7199702159996,1127.7199702159996,1127.7199702159996,1127.7199702159996,1127.7199702159996,1127.7199702159996,1127.7199702159996,1127.7199702159996,1127.7199702159996,1127.7199702159996,1127.7199702159996,1127.7199702159996,1127.7199702159996,1127.7199702159996,55,42,39,71,39,73,3.0,1.6824905169996782,,,,,,,,,,,,,[],[],[],[],[],[],[],0.6,2,,[],[],[],[],[],[],[],,,,,None,None,1131.9468110769994,1133.477864569999,1130.2191809979995,1130.2191809979995,1130.2191809979995,1130.2191809979995,1130.2191809979995,,,,,,,,,,,,,,,,,,,,,,280,f,24,2023-04-04_17h36.53.328,RL,2022.2.4,60.01309773911543,
0,0.3,0.225,0,81,81,81,,,,,,,,,,None,1133.477864569999,1133.477864569999,1133.477864569999,1133.477864569999,1133.477864569999,1133.477864569999,j,0.3936658569982683,1133.912789342001,1133.912789342001,1133.912789342001,1133.912789342001,1133.912789342001,1133.912789342001,1134.1828111430004,1134.1828111430004,1135.8023157370008,1135.8023157370008,1135.8408164110006,1135.8408164110006,1135.8408164110006,1135.8408164110006,1135.8408164110006,1135.8408164110006,1135.8408164110006,1135.8408164110006,1135.8408164110006,1135.8408164110006,1135.8408164110006,1135.8408164110006,1135.8408164110006,1135.8408164110006,1135.8408164110006,54,38,32,69,69,75,None,None,,,,,,,,,,,,,[],[],[],[],[],[],[],0.6,1,69,[-0.0225],[-0.2775],[1],[0],[0],[3.6337407370010624],['tijiao_random_2'],1142.0176796390006,1142.0176796390006,1142.0176796390006,1142.0176796390006,9.0125,1.0014495770010399,1143.0397230179988,1144.7994472729988,,,,,,1138.3674791619997,1138.3674791619997,1138.3674791619997,1138.3674791619997,1138.3674791619997,1138.3674791619997,1138.3674791619997,1138.3674791619997,0.010406247998616891,1138.3674791619997,,,,,,,,,,,,280,f,24,2023-04-04_17h36.53.328,RL,2022.2.4,60.01309773911543,
1,-0.3,-0.225,0,82,82,82,,,,,,,,,,None,1144.7994472729988,1144.7994472729988,1144.7994472729988,1144.7994472729988,1144.7994472729988,1144.7994472729988,j,0.28578531200037105,1145.1363894839997,1145.1363894839997,1145.1363894839997,1145.1363894839997,1145.1363894839997,1145.1363894839997,1145.4167548589976,1145.4167548589976,1146.5746037530007,1146.5746037530007,1146.5980906990007,1146.5980906990007,1146.5980906990007,1146.5980906990007,1146.5980906990007,1146.5980906990007,1146.5980906990007,1146.5980906990007,1146.5980906990007,1146.5980906990007,1146.5980906990007,1146.5980906990007,1146.5980906990007,1146.5980906990007,1146.5980906990007,60,38,36,68,68,74,4.0,4.117587125001592,,,,,,,,,,,,,[],[],[],[],[],[],[],-0.6,3,,[],[],[],[],[],[],[],,,,,None,None,1153.2699997579984,1154.9046040920002,1149.1093170399981,1149.1093170399981,1149.1093170399981,1149.1093170399981,1149.1093170399981,,,,,,,,,,,,,,,,,,,,,,280,f,24,2023-04-04_17h36.53.328,RL,2022.2.4,60.01309773911543,
0,0.3,0.225,0,83,83,83,,,,,,,,,,None,1154.9046040920002,1154.9046040920002,1154.9046040920002,1154.9046040920002,1154.9046040920002,1154.9046040920002,j,0.35007146399948397,1155.3086722199987,1155.3086722199987,1155.3086722199987,1155.3086722199987,1155.3086722199987,1155.3086722199987,1155.5742259619983,1155.5742259619983,1157.1284797669978,1157.1284797669978,1157.1665889539981,1157.1665889539981,1157.1665889539981,1157.1665889539981,1157.1665889539981,1157.1665889539981,1157.1665889539981,1157.1665889539981,1157.1665889539981,1157.1665889539981,1157.1665889539981,1157.1665889539981,1157.1665889539981,1157.1665889539981,1157.1665889539981,52,44,33,67,67,65,None,None,,,,,,,,,,,,,[],[],[],[],[],[],[],0.6,1,70,[0.01125],[-0.30875],[1],[0],[0],[3.830113062998862],['tijiao_random_2'],1163.555175475998,1163.555175475998,1163.555175475998,1163.555175475998,10.0625,1.0274681439987035,1164.5987601009983,1166.3264294599976,,,,,,1159.7060260379985,1159.7060260379985,1159.7060260379985,1159.7060260379985,1159.7060260379985,1159.7060260379985,1159.7060260379985,1159.7060260379985,0.011572268998861546,1159.7060260379985,,,,,,,,,,,,280,f,24,2023-04-04_17h36.53.328,RL,2022.2.4,60.01309773911543,
1,-0.3,-0.225,0,84,84,84,,,,,,,,,,None,1166.3264294599976,1166.3264294599976,1166.3264294599976,1166.3264294599976,1166.3264294599976,1166.3264294599976,j,0.3813421750019188,1166.761553911001,1166.761553911001,1166.761553911001,1166.761553911001,1166.761553911001,1166.761553911001,1167.0435629780004,1167.0435629780004,1168.234325510999,1168.234325510999,1168.2568249609976,1168.2568249609976,1168.2568249609976,1168.2568249609976,1168.2568249609976,1168.2568249609976,1168.2568249609976,1168.2568249609976,1168.2568249609976,1168.2568249609976,1168.2568249609976,1168.2568249609976,1168.2568249609976,1168.2568249609976,1168.2568249609976,53,48,35,68,68,78,None,None,,,,,,,,,,,,,[],[],[],[],[],[],[],0.2,1,40,[0.0625],[-0.28125],[1],[0],[0],[4.257621439002833],['tijiao_random_2'],1175.0593065889989,1175.0593065889989,1175.0593065889989,1175.0593065889989,6.0875,1.4017620829981752,1176.480705211001,1178.182139329001,,,,,,1170.7835273329983,1170.7835273329983,1170.7835273329983,1170.7835273329983,1170.7835273329983,1170.7835273329983,1170.7835273329983,1170.7835273329983,0.010038415999588324,1170.7835273329983,,,,,,,,,,,,280,f,24,2023-04-04_17h36.53.328,RL,2022.2.4,60.01309773911543,
0,0.3,0.225,0,85,85,85,,,,,,,,,,None,1178.182139329001,1178.182139329001,1178.182139329001,1178.182139329001,1178.182139329001,1178.182139329001,j,0.36518524599887314,1178.6007796689992,1178.6007796689992,1178.6007796689992,1178.6007796689992,1178.6007796689992,1178.6007796689992,1178.8708280379979,1178.8708280379979,1180.8403971160005,1180.8403971160005,1180.8788346889996,1180.8788346889996,1180.8788346889996,1180.8788346889996,1180.8788346889996,1180.8788346889996,1180.8788346889996,1180.8788346889996,1180.8788346889996,1180.8788346889996,1180.8788346889996,1180.8788346889996,1180.8788346889996,1180.8788346889996,1180.8788346889996,54,45,38,68,68,38,None,None,1183.3941633529976,1183.3941633529976,1183.3941633529976,1183.3941633529976,1183.3941633529976,1183.3941633529976,1183.3941633529976,1183.3941633529976,0.008676237001054687,1183.3941633529976,70,70,[-0.0375],[-0.3075],[1],[0],[0],[4.37308568699882],['tijiao'],-0.6,0,,[],[],[],[],[],[],[],1187.79680267,1187.79680267,1187.79680267,1187.79680267,9.9125,1.0436104229993362,1188.8636662739991,1190.3866009509984,,,,,,,,,,,,,,,,,,,,,,,,,,,280,f,24,2023-04-04_17h36.53.328,RL,2022.2.4,60.01309773911543,
1,-0.3,-0.225,0,86,86,86,,,,,,,,,,None,1190.3866009509984,1190.3866009509984,1190.3866009509984,1190.3866009509984,1190.3866009509984,1190.3866009509984,j,0.5458133970023482,1190.9781071199977,1190.9781071199977,1190.9781071199977,1190.9781071199977,1190.9781071199977,1190.9781071199977,1191.2430227660006,1191.2430227660006,1192.7805316899976,1192.7805316899976,1192.820693542999,1192.820693542999,1192.820693542999,1192.820693542999,1192.820693542999,1192.820693542999,1192.820693542999,1192.820693542999,1192.820693542999,1192.820693542999,1192.820693542999,1192.820693542999,1192.820693542999,1192.820693542999,1192.820693542999,68,53,45,65,65,44,None,None,1195.3319182839987,1195.3319182839987,1195.3319182839987,1195.3319182839987,1195.3319182839987,1195.3319182839987,1195.3319182839987,1195.3319182839987,0.008828058002109174,1195.3319182839987,70,70,[0.01625],[-0.3],[1],[0],[0],[3.9611916469984862],['tijiao'],0.6,0,,[],[],[],[],[],[],[],1199.3279921569992,1199.3279921569992,1199.3279921569992,1199.3279921569992,9.1375,1.3719936230008898,1200.7162570379987,1202.4269568130003,,,,,,,,,,,,,,,,,,,,,,,,,,,280,f,24,2023-04-04_17h36.53.328,RL,2022.2.4,60.01309773911543,
0,0.3,0.225,0,87,87,87,,,,,,,,,,None,1202.4269568130003,1202.4269568130003,1202.4269568130003,1202.4269568130003,1202.4269568130003,1202.4269568130003,j,0.30848282299848506,1202.7798010109982,1202.7798010109982,1202.7798010109982,1202.7798010109982,1202.7798010109982,1202.7798010109982,1203.0497997429993,1203.0497997429993,1204.8173514949995,1204.8173514949995,1204.857242744998,1204.857242744998,1204.857242744998,1204.857242744998,1204.857242744998,1204.857242744998,1204.857242744998,1204.857242744998,1204.857242744998,1204.857242744998,1204.857242744998,1204.857242744998,1204.857242744998,1204.857242744998,1204.857242744998,53,51,29,62,62,71,4.0,1.881012431000272,,,,,,,,,,,,,[],[],[],[],[],[],[],0.6,2,,[],[],[],[],[],[],[],,,,,None,None,1209.2839174359979,1210.8631600909976,1207.3576511610008,1207.3576511610008,1207.3576511610008,1207.3576511610008,1207.3576511610008,,,,,,,,,,,,,,,,,,,,,,280,f,24,2023-04-04_17h36.53.328,RL,2022.2.4,60.01309773911543,
1,-0.3,-0.225,0,88,88,88,,,,,,,,,,None,1210.8631600909976,1210.8631600909976,1210.8631600909976,1210.8631600909976,1210.8631600909976,1210.8631600909976,j,0.6521683110004233,1211.5685713050007,1211.5685713050007,1211.5685713050007,1211.5685713050007,1211.5685713050007,1211.5685713050007,1211.8366207849976,1211.8366207849976,1213.4554299019983,1213.4554299019983,1213.494555237001,1213.494555237001,1213.494555237001,1213.494555237001,1213.494555237001,1213.494555237001,1213.494555237001,1213.494555237001,1213.494555237001,1213.494555237001,1213.494555237001,1213.494555237001,1213.494555237001,1213.494555237001,1213.494555237001,51,45,23,67,67,76,None,None,,,,,,,,,,,,,[],[],[],[],[],[],[],0.2,1,45,[-0.0425],[-0.30375],[1],[0],[0],[4.777582528000494],['tijiao_random_2'],1220.8211070789985,1220.8211070789985,1220.8211070789985,1220.8211070789985,5.1499999999999995,1.4782456880020618,1222.3168893910006,1224.0873140309996,,,,,,1216.0265005170004,1216.0265005170004,1216.0265005170004,1216.0265005170004,1216.0265005170004,1216.0265005170004,1216.0265005170004,1216.0265005170004,0.010063401001389138,1216.0265005170004,,,,,,,,,,,,280,f,24,2023-04-04_17h36.53.328,RL,2022.2.4,60.01309773911543,
