bandit0,black_x_pos_random,black_y_pos_random,trials.thisRepN,trials.thisTrialN,trials.thisN,trials.thisIndex,instru_img1.started,instru_resp.started,instru_resp.keys,instru_resp.rt,instru_img2.started,instru_resp2.started,instru_resp2.keys,instru_resp2.rt,fixbefore_2.started,rest_response.keys,red.started,green.started,yellow.started,blue.started,choose_bandit.started,Fixation.started,choose_bandit.keys,choose_bandit.rt,black.started,red_2.started,green_2.started,yellow_2.started,blue_2.started,fixation_2.started,docs.started,wait_playerB.started,docs.stopped,wait_playerB.stopped,black.stopped,red_2.stopped,green_2.stopped,yellow_2.stopped,blue_2.stopped,fixation_2.stopped,black_com.started,reward_sub.started,palyerb.started,reward__sub.started,compare.started,red_compare.started,green_com.started,yellow_com.started,blue_com.started,rewardyellow,rewardred,rewardblue,rewardgreen,subchoose,playerb,slider.response,slider.rt,expectself.text,value_expect_self,tijiao_click.x,tijiao_click.y,tijiao_click.leftButton,tijiao_click.midButton,tijiao_click.rightButton,tijiao_click.time,tijiao_click.clicked_name,random_whicharm,whether_ask,jiantou_random.started,expect_red.started,expect_green.started,expect_yellow.started,expect_blue.started,expect_random_2.started,expect_random_3.started,tijiao_random_2.started,tijiao_random.started,check_2.started,expect_random_3.text,tijiao_random.x,tijiao_random.y,tijiao_random.leftButton,tijiao_random.midButton,tijiao_random.rightButton,tijiao_random.time,tijiao_random.clicked_name,slider_2.started,image_7.started,confi.started,notconfi.started,slider_2.response,slider_2.rt,intertrialfix.started,intertrialfix.stopped,image_3.started,slider.started,text.started,image_4.started,image_5.started,expectself.started,expect_self_black.started,expect_self.started,expect_self_red.started,expect_self_green.started,expect_self_yellow.started,expect_self_blue.started,tijiao.started,tijiao_click.started,check.started,bigx.started,bigx.stopped,rest_image.started,rest_response.started,rest_response.rt,participant,Gender,Age,date,expName,psychopyVersion,frameRate,
,,,,,,,31.03416769998148,31.03416769998148,space,5.126410899916664,,,,,,,,,,,,,,,,,,,,,,,,,,,,,,,,,,,,,,,,,,,,,,,,,,,,,,,,,,,,,,,,,,,,,,,,,,,,,,,,,,,,,,,,,,,,,,,,,,,,,,,,,281,m,18,2023-04-05_15h08.18.386,RL,2022.2.4,60.1210115977128,
,,,,,,,,,,,36.19217610009946,36.19217610009946,s,57.804906600154936,,,,,,,,,,,,,,,,,,,,,,,,,,,,,,,,,,,,,,,,,,,,,,,,,,,,,,,,,,,,,,,,,,,,,,,,,,,,,,,,,,,,,,,,,,,,,,,,,,,,,281,m,18,2023-04-05_15h08.18.386,RL,2022.2.4,60.1210115977128,
1,-0.3,-0.225,0,0,0,0,,,,,,,,,94.02098820009269,None,95.04717480018735,95.04717480018735,95.04717480018735,95.04717480018735,95.04717480018735,95.04717480018735,j,0.773247699951753,95.8700190000236,95.8700190000236,95.8700190000236,95.8700190000236,95.8700190000236,95.8700190000236,96.14768100017682,96.14768100017682,97.99265430006199,97.99265430006199,98.01120800012723,98.01120800012723,98.01120800012723,98.01120800012723,98.01120800012723,98.01120800012723,98.01120800012723,98.01120800012723,98.01120800012723,98.01120800012723,98.01120800012723,98.01120800012723,98.01120800012723,98.01120800012723,98.01120800012723,44,52,64,59,59,48,None,None,,,[],[],[],[],[],[],[],0.6,1,100.59534830017947,100.59534830017947,100.59534830017947,100.59534830017947,100.59534830017947,100.59534830017947,100.59534830017947,100.59534830017947,0.007106299977749586,100.59534830017947,70,[0.020370370370370372],[-0.3055555555555556],[1],[0],[0],[12.916417199885473],['tijiao_random_2'],113.57498210016638,113.57498210016638,113.57498210016638,113.57498210016638,4.0092592592592595,2.4055840999353677,116.03257540008053,117.65569040016271,,,,,,,,,,,,,,,,,,,,,281,m,18,2023-04-05_15h08.18.386,RL,2022.2.4,60.1210115977128,
0,0.3,0.225,0,1,1,1,,,,,,,,,,None,117.65569040016271,117.65569040016271,117.65569040016271,117.65569040016271,117.65569040016271,117.65569040016271,j,1.0263732001185417,118.70556130004115,118.70556130004115,118.70556130004115,118.70556130004115,118.70556130004115,118.70556130004115,119.00202460004948,119.00202460004948,120.82993930019438,120.82993930019438,120.82993930019438,120.82993930019438,120.82993930019438,120.82993930019438,120.82993930019438,120.82993930019438,120.82993930019438,120.82993930019438,120.82993930019438,120.82993930019438,120.82993930019438,120.82993930019438,120.82993930019438,120.82993930019438,120.82993930019438,34,45,62,54,54,31,None,None,,,[],[],[],[],[],[],[],0.2,1,123.34638470015489,123.34638470015489,123.34638470015489,123.34638470015489,123.34638470015489,123.34638470015489,123.34638470015489,123.34638470015489,0.006146400002762675,123.34638470015489,40,[0.09444444444444444],[-0.2953703703703704],[1],[0],[0],[8.478270699968562],['tijiao_random_2'],131.83724620006979,131.83724620006979,131.83724620006979,131.83724620006979,6.981481481481481,1.9542386000975966,133.810453500133,135.72295000008307,,,,,,,,,,,,,,,,,,,,,281,m,18,2023-04-05_15h08.18.386,RL,2022.2.4,60.1210115977128,
1,-0.3,-0.225,0,2,2,2,,,,,,,,,,None,135.72295000008307,135.72295000008307,135.72295000008307,135.72295000008307,135.72295000008307,135.72295000008307,r,0.9834565001074225,136.74216170003638,136.74216170003638,136.74216170003638,136.74216170003638,136.74216170003638,136.74216170003638,137.03637830005027,137.03637830005027,138.9476469999645,138.9476469999645,138.9476469999645,138.9476469999645,138.9476469999645,138.9476469999645,138.9476469999645,138.9476469999645,138.9476469999645,138.9476469999645,138.9476469999645,138.9476469999645,138.9476469999645,138.9476469999645,138.9476469999645,138.9476469999645,138.9476469999645,38,35,59,60,38,41,3.0,6.66439380007796,,,[],[],[],[],[],[],[],-0.6,3,,,,,,,,,,,,[],[],[],[],[],[],[],,,,,None,None,148.1542307001073,149.83458610018715,141.45716420002282,141.45716420002282,141.45716420002282,141.45716420002282,141.45716420002282,,,,,,,,,,,,,,,,281,m,18,2023-04-05_15h08.18.386,RL,2022.2.4,60.1210115977128,
0,0.3,0.225,0,3,3,3,,,,,,,,,,None,149.83458610018715,149.83458610018715,149.83458610018715,149.83458610018715,149.83458610018715,149.83458610018715,f,1.1864512001629919,151.05553770018741,151.05553770018741,151.05553770018741,151.05553770018741,151.05553770018741,151.05553770018741,151.34688850003295,151.34688850003295,152.36073109996505,152.36073109996505,152.37756750010885,152.37756750010885,152.37756750010885,152.37756750010885,152.37756750010885,152.37756750010885,152.37756750010885,152.37756750010885,152.37756750010885,152.37756750010885,152.37756750010885,152.37756750010885,152.37756750010885,152.37756750010885,152.37756750010885,25,36,57,60,36,33,3.0,3.589717400027439,,,[],[],[],[],[],[],[],0.2,3,,,,,,,,,,,,[],[],[],[],[],[],[],,,,,None,None,158.5025953000877,160.50509230000898,154.88690280006267,154.88690280006267,154.88690280006267,154.88690280006267,154.88690280006267,,,,,,,,,,,,,,,,281,m,18,2023-04-05_15h08.18.386,RL,2022.2.4,60.1210115977128,
1,-0.3,-0.225,0,4,4,4,,,,,,,,,,None,160.50509230000898,160.50509230000898,160.50509230000898,160.50509230000898,160.50509230000898,160.50509230000898,j,0.9779654000885785,161.50536130019464,161.50536130019464,161.50536130019464,161.50536130019464,161.50536130019464,161.50536130019464,161.80174000002444,161.80174000002444,162.94854780007154,162.94854780007154,162.94854780007154,162.94854780007154,162.94854780007154,162.94854780007154,162.94854780007154,162.94854780007154,162.94854780007154,162.94854780007154,162.94854780007154,162.94854780007154,162.94854780007154,162.94854780007154,162.94854780007154,162.94854780007154,162.94854780007154,33,46,55,59,59,33,5.0,2.5087794000282884,,,[],[],[],[],[],[],[],-0.2,2,,,,,,,,,,,,[],[],[],[],[],[],[],,,,,None,None,167.9930657001678,169.54746270016767,165.45813839999028,165.45813839999028,165.45813839999028,165.45813839999028,165.45813839999028,,,,,,,,,,,,,,,,281,m,18,2023-04-05_15h08.18.386,RL,2022.2.4,60.1210115977128,
0,0.3,0.225,0,5,5,5,,,,,,,,,,None,169.54746270016767,169.54746270016767,169.54746270016767,169.54746270016767,169.54746270016767,169.54746270016767,i,1.1086006998084486,170.68185090017505,170.68185090017505,170.68185090017505,170.68185090017505,170.68185090017505,170.68185090017505,170.9767571000848,170.9767571000848,172.88813610002398,172.88813610002398,172.88813610002398,172.88813610002398,172.88813610002398,172.88813610002398,172.88813610002398,172.88813610002398,172.88813610002398,172.88813610002398,172.88813610002398,172.88813610002398,172.88813610002398,172.88813610002398,172.88813610002398,172.88813610002398,172.88813610002398,33,43,58,59,58,64,None,None,,,[],[],[],[],[],[],[],0.2,1,175.4089498000685,175.4089498000685,175.4089498000685,175.4089498000685,175.4089498000685,175.4089498000685,175.4089498000685,175.4089498000685,0.005883400095626712,175.4089498000685,58,[0.08888888888888889],[-0.2972222222222222],[1],[0],[0],[7.609366700053215],['tijiao_random_2'],183.03334530000575,183.03334530000575,183.03334530000575,183.03334530000575,7.9907407407407405,2.867365499958396,185.9182839000132,187.86367130000144,,,,,,,,,,,,,,,,,,,,,281,m,18,2023-04-05_15h08.18.386,RL,2022.2.4,60.1210115977128,
1,-0.3,-0.225,0,6,6,6,,,,,,,,,,None,187.86367130000144,187.86367130000144,187.86367130000144,187.86367130000144,187.86367130000144,187.86367130000144,r,1.2979637999087572,189.19443150004372,189.19443150004372,189.19443150004372,189.19443150004372,189.19443150004372,189.19443150004372,189.49283570004627,189.49283570004627,190.90553500014357,190.90553500014357,190.90553500014357,190.90553500014357,190.90553500014357,190.90553500014357,190.90553500014357,190.90553500014357,190.90553500014357,190.90553500014357,190.90553500014357,190.90553500014357,190.90553500014357,190.90553500014357,190.90553500014357,190.90553500014357,190.90553500014357,20,41,67,65,20,62,None,None,,,[],[],[],[],[],[],[],-0.6,1,193.42550000012852,193.42550000012852,193.42550000012852,193.42550000012852,193.42550000012852,193.42550000012852,193.42550000012852,193.42550000012852,0.007081400137394667,193.42550000012852,20,[0.014814814814814815],[-0.29907407407407405],[1],[0],[0],[6.031020799884573],['tijiao_random_2'],199.46986529999413,199.46986529999413,199.46986529999413,199.46986529999413,8.99074074074074,2.7691515998449177,202.25693560019135,203.90360930003226,,,,,,,,,,,,,,,,,,,,,281,m,18,2023-04-05_15h08.18.386,RL,2022.2.4,60.1210115977128,
0,0.3,0.225,0,7,7,7,,,,,,,,,,None,203.90360930003226,203.90360930003226,203.90360930003226,203.90360930003226,203.90360930003226,203.90360930003226,f,1.2062410998623818,205.1341300001368,205.1341300001368,205.1341300001368,205.1341300001368,205.1341300001368,205.1341300001368,205.43297330010682,205.43297330010682,207.04499380011111,207.04499380011111,207.04499380011111,207.04499380011111,207.04499380011111,207.04499380011111,207.04499380011111,207.04499380011111,207.04499380011111,207.04499380011111,207.04499380011111,207.04499380011111,207.04499380011111,207.04499380011111,207.04499380011111,207.04499380011111,207.04499380011111,22,45,74,66,45,72,None,None,70,70,[0.07407407407407407],[-0.2574074074074074],[1],[0],[0],[5.7909343999344856],['tijiao'],0.2,0,,,,,,,,,,,,[],[],[],[],[],[],[],215.36800190014765,215.36800190014765,215.36800190014765,215.36800190014765,6.981481481481481,2.5106961999554187,217.8976763000246,219.51097630010918,,,,,,209.5597288000863,209.5597288000863,209.5597288000863,209.5597288000863,209.5597288000863,209.5597288000863,209.5597288000863,209.5597288000863,0.006855499930679798,209.5597288000863,,,,,,281,m,18,2023-04-05_15h08.18.386,RL,2022.2.4,60.1210115977128,
1,-0.3,-0.225,0,8,8,8,,,,,,,,,,None,219.51097630010918,219.51097630010918,219.51097630010918,219.51097630010918,219.51097630010918,219.51097630010918,f,0.733269700082019,220.2759126999881,220.2759126999881,220.2759126999881,220.2759126999881,220.2759126999881,220.2759126999881,220.57499550003558,220.57499550003558,221.45580640016124,221.45580640016124,221.45580640016124,221.45580640016124,221.45580640016124,221.45580640016124,221.45580640016124,221.45580640016124,221.45580640016124,221.45580640016124,221.45580640016124,221.45580640016124,221.45580640016124,221.45580640016124,221.45580640016124,221.45580640016124,221.45580640016124,29,47,67,58,47,67,4.0,4.203138699987903,,,[],[],[],[],[],[],[],0.6,2,,,,,,,,,,,,[],[],[],[],[],[],[],,,,,None,None,228.19649560004473,229.84922900004312,223.96509200008586,223.96509200008586,223.96509200008586,223.96509200008586,223.96509200008586,,,,,,,,,,,,,,,,281,m,18,2023-04-05_15h08.18.386,RL,2022.2.4,60.1210115977128,
0,0.3,0.225,0,9,9,9,,,,,,,,,,None,229.84922900004312,229.84922900004312,229.84922900004312,229.84922900004312,229.84922900004312,229.84922900004312,i,1.187302199890837,231.0632803000044,231.0632803000044,231.0632803000044,231.0632803000044,231.0632803000044,231.0632803000044,231.3621267999988,231.3621267999988,232.77501830016263,232.77501830016263,232.77501830016263,232.77501830016263,232.77501830016263,232.77501830016263,232.77501830016263,232.77501830016263,232.77501830016263,232.77501830016263,232.77501830016263,232.77501830016263,232.77501830016263,232.77501830016263,232.77501830016263,232.77501830016263,232.77501830016263,25,50,67,61,67,72,5.0,3.389580100076273,,,[],[],[],[],[],[],[],0.6,2,,,,,,,,,,,,[],[],[],[],[],[],[],,,,,None,None,238.70022690016776,240.7032368001528,235.28392050019465,235.28392050019465,235.28392050019465,235.28392050019465,235.28392050019465,,,,,,,,,,,,,,,,281,m,18,2023-04-05_15h08.18.386,RL,2022.2.4,60.1210115977128,
1,-0.3,-0.225,0,10,10,10,,,,,,,,,,None,240.7032368001528,240.7032368001528,240.7032368001528,240.7032368001528,240.7032368001528,240.7032368001528,i,1.0052072999533266,241.734396800166,241.734396800166,241.734396800166,241.734396800166,241.734396800166,241.734396800166,242.032787400065,242.032787400065,243.345818300033,243.345818300033,243.345818300033,243.345818300033,243.345818300033,243.345818300033,243.345818300033,243.345818300033,243.345818300033,243.345818300033,243.345818300033,243.345818300033,243.345818300033,243.345818300033,243.345818300033,243.345818300033,243.345818300033,32,55,54,64,54,74,4.0,2.658450399991125,,,[],[],[],[],[],[],[],-0.6,2,,,,,,,,,,,,[],[],[],[],[],[],[],,,,,None,None,248.53940290003084,250.4100560999941,245.85536250006407,245.85536250006407,245.85536250006407,245.85536250006407,245.85536250006407,,,,,,,,,,,,,,,,281,m,18,2023-04-05_15h08.18.386,RL,2022.2.4,60.1210115977128,
0,0.3,0.225,0,11,11,11,,,,,,,,,,None,250.4100560999941,250.4100560999941,250.4100560999941,250.4100560999941,250.4100560999941,250.4100560999941,r,0.7910529999062419,251.22679400001653,251.22679400001653,251.22679400001653,251.22679400001653,251.22679400001653,251.22679400001653,251.52371089998633,251.52371089998633,253.35229169996455,253.35229169996455,253.35229169996455,253.35229169996455,253.35229169996455,253.35229169996455,253.35229169996455,253.35229169996455,253.35229169996455,253.35229169996455,253.35229169996455,253.35229169996455,253.35229169996455,253.35229169996455,253.35229169996455,253.35229169996455,253.35229169996455,23,53,52,59,23,72,1.0,4.254764799959958,,,[],[],[],[],[],[],[],-0.2,3,,,,,,,,,,,,[],[],[],[],[],[],[],,,,,None,None,260.14221239998005,261.77861450007185,255.86136910016648,255.86136910016648,255.86136910016648,255.86136910016648,255.86136910016648,,,,,,,,,,,,,,,,281,m,18,2023-04-05_15h08.18.386,RL,2022.2.4,60.1210115977128,
1,-0.3,-0.225,0,12,12,12,,,,,,,,,,None,261.77861450007185,261.77861450007185,261.77861450007185,261.77861450007185,261.77861450007185,261.77861450007185,i,0.8127842000685632,262.6113436999731,262.6113436999731,262.6113436999731,262.6113436999731,262.6113436999731,262.6113436999731,262.90962260006927,262.90962260006927,264.45510130003095,264.45510130003095,264.45510130003095,264.45510130003095,264.45510130003095,264.45510130003095,264.45510130003095,264.45510130003095,264.45510130003095,264.45510130003095,264.45510130003095,264.45510130003095,264.45510130003095,264.45510130003095,264.45510130003095,264.45510130003095,264.45510130003095,18,53,63,59,63,55,None,None,30,30,[0.10740740740740741],[-0.27870370370370373],[1],[0],[0],[6.4714585999026895],['tijiao'],0.6,0,,,,,,,,,,,,[],[],[],[],[],[],[],273.46052350010723,273.46052350010723,273.46052350010723,273.46052350010723,8.027777777777777,3.1943271001800895,276.67069709999487,278.4837349001318,,,,,,266.9661666001193,266.9661666001193,266.9661666001193,266.9661666001193,266.9661666001193,266.9661666001193,266.9661666001193,266.9661666001193,0.006997999968007207,266.9661666001193,,,,,,281,m,18,2023-04-05_15h08.18.386,RL,2022.2.4,60.1210115977128,
0,0.3,0.225,0,13,13,13,,,,,,,,,,None,278.4837349001318,278.4837349001318,278.4837349001318,278.4837349001318,278.4837349001318,278.4837349001318,i,0.8106827000156045,279.31597460014746,279.31597460014746,279.31597460014746,279.31597460014746,279.31597460014746,279.31597460014746,279.6141035000328,279.6141035000328,281.142729600193,281.142729600193,281.142729600193,281.142729600193,281.142729600193,281.142729600193,281.142729600193,281.142729600193,281.142729600193,281.142729600193,281.142729600193,281.142729600193,281.142729600193,281.142729600193,281.142729600193,281.142729600193,281.142729600193,20,61,48,71,48,74,3.0,2.941702499985695,,,[],[],[],[],[],[],[],0.6,3,,,,,,,,,,,,[],[],[],[],[],[],[],,,,,None,None,286.62237590015866,288.3229269001167,283.65168930008076,283.65168930008076,283.65168930008076,283.65168930008076,283.65168930008076,,,,,,,,,,,,,,,,281,m,18,2023-04-05_15h08.18.386,RL,2022.2.4,60.1210115977128,
1,-0.3,-0.225,0,14,14,14,,,,,,,,,,None,288.3229269001167,288.3229269001167,288.3229269001167,288.3229269001167,288.3229269001167,288.3229269001167,r,0.7886551001574844,289.13981770002283,289.13981770002283,289.13981770002283,289.13981770002283,289.13981770002283,289.13981770002283,289.43687870004214,289.43687870004214,290.9327972000465,290.9327972000465,290.9496113001369,290.9496113001369,290.9496113001369,290.9496113001369,290.9496113001369,290.9496113001369,290.9496113001369,290.9496113001369,290.9496113001369,290.9496113001369,290.9496113001369,290.9496113001369,290.9496113001369,290.9496113001369,290.9496113001369,4,57,58,64,4,58,1.0,2.6252210999373347,,,[],[],[],[],[],[],[],-0.6,3,,,,,,,,,,,,[],[],[],[],[],[],[],,,,,None,None,296.1122449999675,297.8141148001887,293.45855120010674,293.45855120010674,293.45855120010674,293.45855120010674,293.45855120010674,,,,,,,,,,,,,,,,281,m,18,2023-04-05_15h08.18.386,RL,2022.2.4,60.1210115977128,
0,0.3,0.225,0,15,15,15,,,,,,,,,,None,297.8141148001887,297.8141148001887,297.8141148001887,297.8141148001887,297.8141148001887,297.8141148001887,i,0.8840699000284076,298.7295658001676,298.7295658001676,298.7295658001676,298.7295658001676,298.7295658001676,298.7295658001676,299.02768880012445,299.02768880012445,299.87516340008005,299.87516340008005,299.89178010006435,299.89178010006435,299.89178010006435,299.89178010006435,299.89178010006435,299.89178010006435,299.89178010006435,299.89178010006435,299.89178010006435,299.89178010006435,299.89178010006435,299.89178010006435,299.89178010006435,299.89178010006435,299.89178010006435,13,60,55,67,55,78,None,None,80,80,[0.012037037037037037],[-0.29259259259259257],[1],[0],[0],[5.492008799919859],['tijiao'],0.2,0,,,,,,,,,,,,[],[],[],[],[],[],[],307.9154723000247,307.9154723000247,307.9154723000247,307.9154723000247,8.027777777777777,2.427757899975404,310.36192589998245,311.908936599968,,,,,,302.4017925001681,302.4017925001681,302.4017925001681,302.4017925001681,302.4017925001681,302.4017925001681,302.4017925001681,302.4017925001681,0.00619739992544055,302.4017925001681,,,,,,281,m,18,2023-04-05_15h08.18.386,RL,2022.2.4,60.1210115977128,
1,-0.3,-0.225,0,16,16,16,,,,,,,,,,None,311.908936599968,311.908936599968,311.908936599968,311.908936599968,311.908936599968,311.908936599968,i,0.45366170001216233,312.39350940007716,312.39350940007716,312.39350940007716,312.39350940007716,312.39350940007716,312.39350940007716,312.6900738000404,312.6900738000404,313.9035191000439,313.9035191000439,313.9035191000439,313.9035191000439,313.9035191000439,313.9035191000439,313.9035191000439,313.9035191000439,313.9035191000439,313.9035191000439,313.9035191000439,313.9035191000439,313.9035191000439,313.9035191000439,313.9035191000439,313.9035191000439,313.9035191000439,12,52,46,60,46,80,None,None,20,20,[0.01574074074074074],[-0.3074074074074074],[1],[0],[0],[7.951136899879202],['tijiao'],-0.2,0,,,,,,,,,,,,[],[],[],[],[],[],[],324.3864190999884,324.3864190999884,324.3864190999884,324.3864190999884,9.0,3.895385199924931,328.2962226001546,330.0261309000198,,,,,,316.41518780007027,316.41518780007027,316.41518780007027,316.41518780007027,316.41518780007027,316.41518780007027,316.41518780007027,316.41518780007027,0.006901300046592951,316.41518780007027,,,,,,281,m,18,2023-04-05_15h08.18.386,RL,2022.2.4,60.1210115977128,
0,0.3,0.225,0,17,17,17,,,,,,,,,,None,330.0261309000198,330.0261309000198,330.0261309000198,330.0261309000198,330.0261309000198,330.0261309000198,None,,,,,,,,,,,,,,,,,,,,,,,,,,,10,48,46,74,0,**,None,None,,,[],[],[],[],[],[],[],0.6,3,,,,,,,,,,,,[],[],[],[],[],[],[],,,,,None,None,337.57160779996775,339.18446859996766,,,,,,,,,,,,,,,,331.56406340003014,337.57160779996775,,,,281,m,18,2023-04-05_15h08.18.386,RL,2022.2.4,60.1210115977128,
1,-0.3,-0.225,0,18,18,18,,,,,,,,,,None,339.18446859996766,339.18446859996766,339.18446859996766,339.18446859996766,339.18446859996766,339.18446859996766,j,0.6627290998585522,339.8683189000003,339.8683189000003,339.8683189000003,339.8683189000003,339.8683189000003,339.8683189000003,340.1653851000592,340.1653851000592,342.0598383001052,342.0598383001052,342.0598383001052,342.0598383001052,342.0598383001052,342.0598383001052,342.0598383001052,342.0598383001052,342.0598383001052,342.0598383001052,342.0598383001052,342.0598383001052,342.0598383001052,342.0598383001052,342.0598383001052,342.0598383001052,342.0598383001052,14,46,46,66,66,62,None,None,,,[],[],[],[],[],[],[],-0.6,1,344.58109920006245,344.58109920006245,344.58109920006245,344.58109920006245,344.58109920006245,344.58109920006245,344.58109920006245,344.58109920006245,0.006887099938467145,344.58109920006245,50,[0.07037037037037037],[-0.28703703703703703],[1],[0],[0],[6.41232470003888],['tijiao_random_2'],351.00672970013693,351.00672970013693,351.00672970013693,351.00672970013693,5.935185185185185,9.217202899977565,360.2424783001188,362.0553904999979,,,,,,,,,,,,,,,,,,,,,281,m,18,2023-04-05_15h08.18.386,RL,2022.2.4,60.1210115977128,
0,0.3,0.225,0,19,19,19,,,,,,,,,,None,362.0553904999979,362.0553904999979,362.0553904999979,362.0553904999979,362.0553904999979,362.0553904999979,r,0.4443087000399828,362.5256546000019,362.5256546000019,362.5256546000019,362.5256546000019,362.5256546000019,362.5256546000019,362.8202434000559,362.8202434000559,364.1499489999842,364.1499489999842,364.1499489999842,364.1499489999842,364.1499489999842,364.1499489999842,364.1499489999842,364.1499489999842,364.1499489999842,364.1499489999842,364.1499489999842,364.1499489999842,364.1499489999842,364.1499489999842,364.1499489999842,364.1499489999842,364.1499489999842,18,49,40,64,18,78,1.0,2.8914284999482334,,,[],[],[],[],[],[],[],0.2,3,,,,,,,,,,,,[],[],[],[],[],[],[],,,,,None,None,369.577035699971,371.4796073001344,366.6590877000708,366.6590877000708,366.6590877000708,366.6590877000708,366.6590877000708,,,,,,,,,,,,,,,,281,m,18,2023-04-05_15h08.18.386,RL,2022.2.4,60.1210115977128,
1,-0.3,-0.225,0,20,20,20,,,,,,,,,,None,371.4796073001344,371.4796073001344,371.4796073001344,371.4796073001344,371.4796073001344,371.4796073001344,i,0.7733780001290143,372.27762460010126,372.27762460010126,372.27762460010126,372.27762460010126,372.27762460010126,372.27762460010126,372.5768081001006,372.5768081001006,373.57412680005655,373.57412680005655,373.57412680005655,373.57412680005655,373.57412680005655,373.57412680005655,373.57412680005655,373.57412680005655,373.57412680005655,373.57412680005655,373.57412680005655,373.57412680005655,373.57412680005655,373.57412680005655,373.57412680005655,373.57412680005655,373.57412680005655,17,55,41,66,41,61,None,None,30,30,[-0.05555555555555555],[-0.2898148148148148],[1],[0],[0],[7.269753200002015],['tijiao'],-0.6,0,,,,,,,,,,,,[],[],[],[],[],[],[],383.37555720005184,383.37555720005184,383.37555720005184,383.37555720005184,7.981481481481482,3.891215299954638,387.2855001001153,389.28110060002655,,,,,,376.0851076999679,376.0851076999679,376.0851076999679,376.0851076999679,376.0851076999679,376.0851076999679,376.0851076999679,376.0851076999679,0.006703400053083897,376.0851076999679,,,,,,281,m,18,2023-04-05_15h08.18.386,RL,2022.2.4,60.1210115977128,
0,0.3,0.225,0,21,21,21,,,,,,,,,,None,389.28110060002655,389.28110060002655,389.28110060002655,389.28110060002655,389.28110060002655,389.28110060002655,i,0.5463976000901312,389.84690790018067,389.84690790018067,389.84690790018067,389.84690790018067,389.84690790018067,389.84690790018067,390.1457766001113,390.1457766001113,390.992871100083,390.992871100083,390.992871100083,390.992871100083,390.992871100083,390.992871100083,390.992871100083,390.992871100083,390.992871100083,390.992871100083,390.992871100083,390.992871100083,390.992871100083,390.992871100083,390.992871100083,390.992871100083,390.992871100083,17,55,48,66,48,19,5.0,1.927483499981463,,,[],[],[],[],[],[],[],0.6,3,,,,,,,,,,,,[],[],[],[],[],[],[],,,,,None,None,395.4569254000671,397.44213290000334,393.50246089999564,393.50246089999564,393.50246089999564,393.50246089999564,393.50246089999564,,,,,,,,,,,,,,,,281,m,18,2023-04-05_15h08.18.386,RL,2022.2.4,60.1210115977128,
1,-0.3,-0.225,0,22,22,22,,,,,,,,,,None,397.44213290000334,397.44213290000334,397.44213290000334,397.44213290000334,397.44213290000334,397.44213290000334,f,0.7649461000692099,398.240508900024,398.240508900024,398.240508900024,398.240508900024,398.240508900024,398.240508900024,398.5395198999904,398.5395198999904,399.8688235001173,399.8688235001173,399.8688235001173,399.8688235001173,399.8688235001173,399.8688235001173,399.8688235001173,399.8688235001173,399.8688235001173,399.8688235001173,399.8688235001173,399.8688235001173,399.8688235001173,399.8688235001173,399.8688235001173,399.8688235001173,399.8688235001173,12,61,47,81,61,77,4.0,5.152135499985889,,,[],[],[],[],[],[],[],0.6,2,,,,,,,,,,,,[],[],[],[],[],[],[],,,,,None,None,407.55603600014,409.54244790016674,402.3779823000077,402.3779823000077,402.3779823000077,402.3779823000077,402.3779823000077,,,,,,,,,,,,,,,,281,m,18,2023-04-05_15h08.18.386,RL,2022.2.4,60.1210115977128,
0,0.3,0.225,0,23,23,23,,,,,,,,,,None,409.54244790016674,409.54244790016674,409.54244790016674,409.54244790016674,409.54244790016674,409.54244790016674,j,0.5094153999816626,410.07461220002733,410.07461220002733,410.07461220002733,410.07461220002733,410.07461220002733,410.07461220002733,410.3738285000436,410.3738285000436,412.30198630015366,412.30198630015366,412.30198630015366,412.30198630015366,412.30198630015366,412.30198630015366,412.30198630015366,412.30198630015366,412.30198630015366,412.30198630015366,412.30198630015366,412.30198630015366,412.30198630015366,412.30198630015366,412.30198630015366,412.30198630015366,412.30198630015366,16,60,51,62,62,73,4.0,2.8747427999041975,,,[],[],[],[],[],[],[],0.2,3,,,,,,,,,,,,[],[],[],[],[],[],[],,,,,None,None,417.7133916001767,419.5982545001898,414.81099739996716,414.81099739996716,414.81099739996716,414.81099739996716,414.81099739996716,,,,,,,,,,,,,,,,281,m,18,2023-04-05_15h08.18.386,RL,2022.2.4,60.1210115977128,
1,-0.3,-0.225,0,24,24,24,,,,,,,,,,None,419.5982545001898,419.5982545001898,419.5982545001898,419.5982545001898,419.5982545001898,419.5982545001898,f,0.7698653999250382,420.39762290008366,420.39762290008366,420.39762290008366,420.39762290008366,420.39762290008366,420.39762290008366,420.69564620009623,420.69564620009623,422.0916478000581,422.0916478000581,422.0916478000581,422.0916478000581,422.0916478000581,422.0916478000581,422.0916478000581,422.0916478000581,422.0916478000581,422.0916478000581,422.0916478000581,422.0916478000581,422.0916478000581,422.0916478000581,422.0916478000581,422.0916478000581,422.0916478000581,19,44,34,60,44,67,3.0,2.59230550006032,,,[],[],[],[],[],[],[],0.6,2,,,,,,,,,,,,[],[],[],[],[],[],[],,,,,None,None,427.21935870009474,429.1053304001689,424.60043960018083,424.60043960018083,424.60043960018083,424.60043960018083,424.60043960018083,,,,,,,,,,,,,,,,281,m,18,2023-04-05_15h08.18.386,RL,2022.2.4,60.1210115977128,
0,0.3,0.225,0,25,25,25,,,,,,,,,,None,429.1053304001689,429.1053304001689,429.1053304001689,429.1053304001689,429.1053304001689,429.1053304001689,r,0.6801059998106211,429.8063877001405,429.8063877001405,429.8063877001405,429.8063877001405,429.8063877001405,429.8063877001405,430.1033094001468,430.1033094001468,431.56597410002723,431.56597410002723,431.56597410002723,431.56597410002723,431.56597410002723,431.56597410002723,431.56597410002723,431.56597410002723,431.56597410002723,431.56597410002723,431.56597410002723,431.56597410002723,431.56597410002723,431.56597410002723,431.56597410002723,431.56597410002723,431.56597410002723,7,58,38,69,7,78,None,None,5,5,[0.019444444444444445],[-0.29444444444444445],[1],[0],[0],[8.799774599960074],['tijiao'],0.2,0,,,,,,,,,,,,[],[],[],[],[],[],[],442.89822780014947,442.89822780014947,442.89822780014947,442.89822780014947,8.99074074074074,2.7758077001199126,445.69272379996255,447.3223290001042,,,,,,434.0762976000551,434.0762976000551,434.0762976000551,434.0762976000551,434.0762976000551,434.0762976000551,434.0762976000551,434.0762976000551,0.006236599991098046,434.0762976000551,,,,,,281,m,18,2023-04-05_15h08.18.386,RL,2022.2.4,60.1210115977128,
1,-0.3,-0.225,0,26,26,26,,,,,,,,,,None,447.3223290001042,447.3223290001042,447.3223290001042,447.3223290001042,447.3223290001042,447.3223290001042,r,0.5132281000260264,447.8556594999973,447.8556594999973,447.8556594999973,447.8556594999973,447.8556594999973,447.8556594999973,448.15408930019476,448.15408930019476,449.03475950006396,449.03475950006396,449.03475950006396,449.03475950006396,449.03475950006396,449.03475950006396,449.03475950006396,449.03475950006396,449.03475950006396,449.03475950006396,449.03475950006396,449.03475950006396,449.03475950006396,449.03475950006396,449.03475950006396,449.03475950006396,449.03475950006396,11,57,52,70,11,19,None,None,9,9,[0.11481481481481481],[-0.287962962962963],[1],[0],[0],[4.362563200062141],['tijiao'],0.2,0,,,,,,,,,,,,[],[],[],[],[],[],[],455.92784420005046,455.92784420005046,455.92784420005046,455.92784420005046,9.037037037037036,2.0789624000899494,458.0258504000958,459.7883790000342,,,,,,451.5447977001313,451.5447977001313,451.5447977001313,451.5447977001313,451.5447977001313,451.5447977001313,451.5447977001313,451.5447977001313,0.005744199967011809,451.5447977001313,,,,,,281,m,18,2023-04-05_15h08.18.386,RL,2022.2.4,60.1210115977128,
0,0.3,0.225,0,27,27,27,,,,,,,,,,None,459.7883790000342,459.7883790000342,459.7883790000342,459.7883790000342,459.7883790000342,459.7883790000342,r,0.5729923001490533,460.3898944000248,460.3898944000248,460.3898944000248,460.3898944000248,460.3898944000248,460.3898944000248,460.68637730018236,460.68637730018236,462.5144725001883,462.5144725001883,462.53148950007744,462.53148950007744,462.53148950007744,462.53148950007744,462.53148950007744,462.53148950007744,462.53148950007744,462.53148950007744,462.53148950007744,462.53148950007744,462.53148950007744,462.53148950007744,462.53148950007744,462.53148950007744,462.53148950007744,20,53,50,66,20,66,None,None,,,[],[],[],[],[],[],[],-0.2,1,465.05087250005454,465.05087250005454,465.05087250005454,465.05087250005454,465.05087250005454,465.05087250005454,465.05087250005454,465.05087250005454,0.006274099927395582,465.05087250005454,80,[0.11203703703703703],[-0.2777777777777778],[1],[0],[0],[4.884350500069559],['tijiao_random_2'],469.9494460001588,469.9494460001588,469.9494460001588,469.9494460001588,7.953703703703704,2.103093500016257,472.07067200005986,473.8337552000303,,,,,,,,,,,,,,,,,,,,,281,m,18,2023-04-05_15h08.18.386,RL,2022.2.4,60.1210115977128,
1,-0.3,-0.225,0,28,28,28,,,,,,,,,,None,473.8337552000303,473.8337552000303,473.8337552000303,473.8337552000303,473.8337552000303,473.8337552000303,f,0.39609669987112284,474.2508257001173,474.2508257001173,474.2508257001173,474.2508257001173,474.2508257001173,474.2508257001173,474.54836979997344,474.54836979997344,476.0277021001093,476.0277021001093,476.0277021001093,476.0277021001093,476.0277021001093,476.0277021001093,476.0277021001093,476.0277021001093,476.0277021001093,476.0277021001093,476.0277021001093,476.0277021001093,476.0277021001093,476.0277021001093,476.0277021001093,476.0277021001093,476.0277021001093,10,50,53,61,50,69,None,None,45,45,[0.09351851851851851],[-0.29259259259259257],[1],[0],[0],[6.104704600060359],['tijiao'],-0.2,0,,,,,,,,,,,,[],[],[],[],[],[],[],484.6687374000903,484.6687374000903,484.6687374000903,484.6687374000903,6.981481481481481,3.091159600066021,487.77773039997555,489.3745884001255,,,,,,478.5409192000516,478.5409192000516,478.5409192000516,478.5409192000516,478.5409192000516,478.5409192000516,478.5409192000516,478.5409192000516,0.008256500121206045,478.5409192000516,,,,,,281,m,18,2023-04-05_15h08.18.386,RL,2022.2.4,60.1210115977128,
0,0.3,0.225,0,29,29,29,,,,,,,,,,None,489.3745884001255,489.3745884001255,489.3745884001255,489.3745884001255,489.3745884001255,489.3745884001255,f,0.352861599996686,489.7577404000331,489.7577404000331,489.7577404000331,489.7577404000331,489.7577404000331,489.7577404000331,490.05616619996727,490.05616619996727,491.6351372001227,491.6351372001227,491.6517919001635,491.6517919001635,491.6517919001635,491.6517919001635,491.6517919001635,491.6517919001635,491.6517919001635,491.6517919001635,491.6517919001635,491.6517919001635,491.6517919001635,491.6517919001635,491.6517919001635,491.6517919001635,491.6517919001635,11,55,50,66,55,67,None,None,80,80,[0.11481481481481481],[-0.27314814814814814],[1],[0],[0],[4.112457799958065],['tijiao'],0.2,0,,,,,,,,,,,,[],[],[],[],[],[],[],498.2952873001341,498.2952873001341,498.2952873001341,498.2952873001341,8.916666666666668,2.6450652999337763,500.9586567999795,502.53867040015757,,,,,,494.16239539999515,494.16239539999515,494.16239539999515,494.16239539999515,494.16239539999515,494.16239539999515,494.16239539999515,494.16239539999515,0.006439900025725365,494.16239539999515,,,,,,281,m,18,2023-04-05_15h08.18.386,RL,2022.2.4,60.1210115977128,
1,-0.3,-0.225,0,30,30,30,,,,,,,,,,None,502.53867040015757,502.53867040015757,502.53867040015757,502.53867040015757,502.53867040015757,502.53867040015757,f,0.5684560998342931,503.1387100000866,503.1387100000866,503.1387100000866,503.1387100000866,503.1387100000866,503.1387100000866,503.43631849996746,503.43631849996746,504.38357800012454,504.38357800012454,504.38357800012454,504.38357800012454,504.38357800012454,504.38357800012454,504.38357800012454,504.38357800012454,504.38357800012454,504.38357800012454,504.38357800012454,504.38357800012454,504.38357800012454,504.38357800012454,504.38357800012454,504.38357800012454,504.38357800012454,14,54,51,64,54,78,None,None,90,90,[0.02962962962962963],[-0.28425925925925927],[1],[0],[0],[5.558815500000492],['tijiao'],0.6,0,,,,,,,,,,,,[],[],[],[],[],[],[],512.4746725000441,512.4746725000441,512.4746725000441,512.4746725000441,4.953703703703704,1.8802247000858188,514.3718758001924,516.0350761001464,,,,,,506.89421910000965,506.89421910000965,506.89421910000965,506.89421910000965,506.89421910000965,506.89421910000965,506.89421910000965,506.89421910000965,0.006168700056150556,506.89421910000965,,,,,,281,m,18,2023-04-05_15h08.18.386,RL,2022.2.4,60.1210115977128,
0,0.3,0.225,0,31,31,31,,,,,,,,,,None,516.0350761001464,516.0350761001464,516.0350761001464,516.0350761001464,516.0350761001464,516.0350761001464,f,0.5908234000671655,516.6502889001276,516.6502889001276,516.6502889001276,516.6502889001276,516.6502889001276,516.6502889001276,516.949308300158,516.949308300158,518.5949786000419,518.5949786000419,518.5949786000419,518.5949786000419,518.5949786000419,518.5949786000419,518.5949786000419,518.5949786000419,518.5949786000419,518.5949786000419,518.5949786000419,518.5949786000419,518.5949786000419,518.5949786000419,518.5949786000419,518.5949786000419,518.5949786000419,16,48,59,67,48,78,None,None,50,50,[0.06018518518518518],[-0.2740740740740741],[1],[0],[0],[4.726649600081146],['tijiao'],0.2,0,,,,,,,,,,,,[],[],[],[],[],[],[],525.8535305000842,525.8535305000842,525.8535305000842,525.8535305000842,8.99074074074074,2.428547800052911,528.3005805001594,530.2793604000472,,,,,,521.1064856001176,521.1064856001176,521.1064856001176,521.1064856001176,521.1064856001176,521.1064856001176,521.1064856001176,521.1064856001176,0.006770699983462691,521.1064856001176,,,,,,281,m,18,2023-04-05_15h08.18.386,RL,2022.2.4,60.1210115977128,
1,-0.3,-0.225,0,32,32,32,,,,,,,,,,None,530.2793604000472,530.2793604000472,530.2793604000472,530.2793604000472,530.2793604000472,530.2793604000472,i,0.44928960013203323,530.762151800096,530.762151800096,530.762151800096,530.762151800096,530.762151800096,530.762151800096,531.0608477001078,531.0608477001078,532.8562992000952,532.8562992000952,532.8562992000952,532.8562992000952,532.8562992000952,532.8562992000952,532.8562992000952,532.8562992000952,532.8562992000952,532.8562992000952,532.8562992000952,532.8562992000952,532.8562992000952,532.8562992000952,532.8562992000952,532.8562992000952,532.8562992000952,11,47,53,67,53,78,3.0,3.356458499794826,,,[],[],[],[],[],[],[],0.6,3,,,,,,,,,,,,[],[],[],[],[],[],[],,,,,None,None,538.7472781001125,540.7344059001189,535.3649973999709,535.3649973999709,535.3649973999709,535.3649973999709,535.3649973999709,,,,,,,,,,,,,,,,281,m,18,2023-04-05_15h08.18.386,RL,2022.2.4,60.1210115977128,
0,0.3,0.225,0,33,33,33,,,,,,,,,,None,540.7344059001189,540.7344059001189,540.7344059001189,540.7344059001189,540.7344059001189,540.7344059001189,i,0.8556696001905948,541.6168311999645,541.6168311999645,541.6168311999645,541.6168311999645,541.6168311999645,541.6168311999645,541.9147565001622,541.9147565001622,543.1776833999902,543.1776833999902,543.1776833999902,543.1776833999902,543.1776833999902,543.1776833999902,543.1776833999902,543.1776833999902,543.1776833999902,543.1776833999902,543.1776833999902,543.1776833999902,543.1776833999902,543.1776833999902,543.1776833999902,543.1776833999902,543.1776833999902,14,52,49,72,49,80,None,None,,,[],[],[],[],[],[],[],0.6,1,545.6978852001484,545.6978852001484,545.6978852001484,545.6978852001484,545.6978852001484,545.6978852001484,545.6978852001484,545.6978852001484,0.007105999859049916,545.6978852001484,80,[-0.025925925925925925],[-0.2833333333333333],[1],[0],[0],[7.326773799955845],['tijiao_random_2'],553.0379689000547,553.0379689000547,553.0379689000547,553.0379689000547,8.027777777777777,4.864449599990621,557.9197562001646,559.4998286000919,,,,,,,,,,,,,,,,,,,,,281,m,18,2023-04-05_15h08.18.386,RL,2022.2.4,60.1210115977128,
1,-0.3,-0.225,0,34,34,34,,,,,,,,,,None,559.4998286000919,559.4998286000919,559.4998286000919,559.4998286000919,559.4998286000919,559.4998286000919,j,0.4851043000817299,560.0190752001945,560.0190752001945,560.0190752001945,560.0190752001945,560.0190752001945,560.0190752001945,560.3142119001132,560.3142119001132,561.1787694001105,561.1787694001105,561.1787694001105,561.1787694001105,561.1787694001105,561.1787694001105,561.1787694001105,561.1787694001105,561.1787694001105,561.1787694001105,561.1787694001105,561.1787694001105,561.1787694001105,561.1787694001105,561.1787694001105,561.1787694001105,561.1787694001105,24,51,49,70,70,62,5.0,1.1295141000300646,,,[],[],[],[],[],[],[],-0.6,3,,,,,,,,,,,,[],[],[],[],[],[],[],,,,,None,None,564.8426618000958,566.4311190000735,563.6879547999706,563.6879547999706,563.6879547999706,563.6879547999706,563.6879547999706,,,,,,,,,,,,,,,,281,m,18,2023-04-05_15h08.18.386,RL,2022.2.4,60.1210115977128,
0,0.3,0.225,0,35,35,35,,,,,,,,,,None,566.4311190000735,566.4311190000735,566.4311190000735,566.4311190000735,566.4311190000735,566.4311190000735,j,0.5939949001185596,567.0479560999665,567.0479560999665,567.0479560999665,567.0479560999665,567.0479560999665,567.0479560999665,567.3454309999943,567.3454309999943,568.7747313000727,568.7747313000727,568.7747313000727,568.7747313000727,568.7747313000727,568.7747313000727,568.7747313000727,568.7747313000727,568.7747313000727,568.7747313000727,568.7747313000727,568.7747313000727,568.7747313000727,568.7747313000727,568.7747313000727,568.7747313000727,568.7747313000727,26,57,41,76,76,74,None,None,78,78,[0.08611111111111111],[-0.2861111111111111],[1],[0],[0],[8.368888400029391],['tijiao'],-0.6,0,,,,,,,,,,,,[],[],[],[],[],[],[],579.6746287001297,579.6746287001297,579.6746287001297,579.6746287001297,9.0,2.443373400019482,582.1371669000946,583.9001080000307,,,,,,571.2862629001029,571.2862629001029,571.2862629001029,571.2862629001029,571.2862629001029,571.2862629001029,571.2862629001029,571.2862629001029,0.006530799902975559,571.2862629001029,,,,,,281,m,18,2023-04-05_15h08.18.386,RL,2022.2.4,60.1210115977128,
1,-0.3,-0.225,0,36,36,36,,,,,,,,,,None,583.9001080000307,583.9001080000307,583.9001080000307,583.9001080000307,583.9001080000307,583.9001080000307,j,0.4695742002222687,584.4010460001882,584.4010460001882,584.4010460001882,584.4010460001882,584.4010460001882,584.4010460001882,584.6979599001352,584.6979599001352,586.160232400056,586.160232400056,586.1772264000028,586.1772264000028,586.1772264000028,586.1772264000028,586.1772264000028,586.1772264000028,586.1772264000028,586.1772264000028,586.1772264000028,586.1772264000028,586.1772264000028,586.1772264000028,586.1772264000028,586.1772264000028,586.1772264000028,25,55,49,81,81,84,None,None,85,85,[0.027777777777777776],[-0.30092592592592593],[1],[0],[0],[5.0428776000626385],['tijiao'],-0.2,0,,,,,,,,,,,,[],[],[],[],[],[],[],593.7524612001143,593.7524612001143,593.7524612001143,593.7524612001143,8.944444444444445,1.8454907999839634,595.6170783000998,597.6122702001594,,,,,,588.6881767001469,588.6881767001469,588.6881767001469,588.6881767001469,588.6881767001469,588.6881767001469,588.6881767001469,588.6881767001469,0.006348400143906474,588.6881767001469,,,,,,281,m,18,2023-04-05_15h08.18.386,RL,2022.2.4,60.1210115977128,
0,0.3,0.225,0,37,37,37,,,,,,,,,,None,597.6122702001594,597.6122702001594,597.6122702001594,597.6122702001594,597.6122702001594,597.6122702001594,j,0.6369435999076813,598.280429400038,598.280429400038,598.280429400038,598.280429400038,598.280429400038,598.280429400038,598.5768721001223,598.5768721001223,599.5073319000658,599.5073319000658,599.5073319000658,599.5073319000658,599.5073319000658,599.5073319000658,599.5073319000658,599.5073319000658,599.5073319000658,599.5073319000658,599.5073319000658,599.5073319000658,599.5073319000658,599.5073319000658,599.5073319000658,599.5073319000658,599.5073319000658,19,54,49,73,73,79,None,None,,,[],[],[],[],[],[],[],-0.2,1,602.0264793999959,602.0264793999959,602.0264793999959,602.0264793999959,602.0264793999959,602.0264793999959,602.0264793999959,602.0264793999959,0.00675729988142848,602.0264793999959,75,[0.053703703703703705],[-0.29259259259259257],[1],[0],[0],[9.006909499876201],['tijiao_random_2'],611.0490109000821,611.0490109000821,611.0490109000821,611.0490109000821,7.9907407407407405,5.759386100107804,616.8256662001368,618.4888874001335,,,,,,,,,,,,,,,,,,,,,281,m,18,2023-04-05_15h08.18.386,RL,2022.2.4,60.1210115977128,
1,-0.3,-0.225,0,38,38,38,,,,,,,,,,None,618.4888874001335,618.4888874001335,618.4888874001335,618.4888874001335,618.4888874001335,618.4888874001335,f,0.8821705998852849,619.4035756001249,619.4035756001249,619.4035756001249,619.4035756001249,619.4035756001249,619.4035756001249,619.7022429001518,619.7022429001518,620.733032300137,620.733032300137,620.733032300137,620.733032300137,620.733032300137,620.733032300137,620.733032300137,620.733032300137,620.733032300137,620.733032300137,620.733032300137,620.733032300137,620.733032300137,620.733032300137,620.733032300137,620.733032300137,620.733032300137,18,54,47,83,54,33,5.0,1.9608740000985563,,,[],[],[],[],[],[],[],0.2,2,,,,,,,,,,,,[],[],[],[],[],[],[],,,,,None,None,625.2305875001475,627.2314218000975,623.2420918999705,623.2420918999705,623.2420918999705,623.2420918999705,623.2420918999705,,,,,,,,,,,,,,,,281,m,18,2023-04-05_15h08.18.386,RL,2022.2.4,60.1210115977128,
0,0.3,0.225,0,39,39,39,,,,,,,,,,None,627.2314218000975,627.2314218000975,627.2314218000975,627.2314218000975,627.2314218000975,627.2314218000975,i,0.6571989001240581,627.9136230000295,627.9136230000295,627.9136230000295,627.9136230000295,627.9136230000295,627.9136230000295,628.2122102000285,628.2122102000285,629.9740192000754,629.9740192000754,629.9740192000754,629.9740192000754,629.9740192000754,629.9740192000754,629.9740192000754,629.9740192000754,629.9740192000754,629.9740192000754,629.9740192000754,629.9740192000754,629.9740192000754,629.9740192000754,629.9740192000754,629.9740192000754,629.9740192000754,24,45,49,81,49,40,None,None,,,[],[],[],[],[],[],[],-0.6,1,632.494468400022,632.494468400022,632.494468400022,632.494468400022,632.494468400022,632.494468400022,632.494468400022,632.494468400022,0.005930699873715639,632.494468400022,50,[0.05092592592592592],[-0.26944444444444443],[1],[0],[0],[9.022675799904391],['tijiao_random_2'],641.5297829001211,641.5297829001211,641.5297829001211,641.5297829001211,4.027777777777779,1.7723254000302404,643.3204048001207,645.0659730001353,,,,,,,,,,,,,,,,,,,,,281,m,18,2023-04-05_15h08.18.386,RL,2022.2.4,60.1210115977128,
1,-0.3,-0.225,0,40,40,40,,,,,,,,,,None,645.0659730001353,645.0659730001353,645.0659730001353,645.0659730001353,645.0659730001353,645.0659730001353,i,1.0626957002095878,646.1487961001694,646.1487961001694,646.1487961001694,646.1487961001694,646.1487961001694,646.1487961001694,646.4462248000782,646.4462248000782,648.3240948000457,648.3240948000457,648.3240948000457,648.3240948000457,648.3240948000457,648.3240948000457,648.3240948000457,648.3240948000457,648.3240948000457,648.3240948000457,648.3240948000457,648.3240948000457,648.3240948000457,648.3240948000457,648.3240948000457,648.3240948000457,648.3240948000457,26,46,52,81,52,88,3.0,4.968733000103384,,,[],[],[],[],[],[],[],-0.2,2,,,,,,,,,,,,[],[],[],[],[],[],[],,,,,None,None,655.8304381000344,657.8313947001006,650.8331253000069,650.8331253000069,650.8331253000069,650.8331253000069,650.8331253000069,,,,,,,,,,,,,,,,281,m,18,2023-04-05_15h08.18.386,RL,2022.2.4,60.1210115977128,
0,0.3,0.225,0,41,41,41,,,,,,,,,,None,657.8313947001006,657.8313947001006,657.8313947001006,657.8313947001006,657.8313947001006,657.8313947001006,r,0.38224209984764457,658.2311076000333,658.2311076000333,658.2311076000333,658.2311076000333,658.2311076000333,658.2311076000333,658.5296928000171,658.5296928000171,660.4576843001414,660.4576843001414,660.4576843001414,660.4576843001414,660.4576843001414,660.4576843001414,660.4576843001414,660.4576843001414,660.4576843001414,660.4576843001414,660.4576843001414,660.4576843001414,660.4576843001414,660.4576843001414,660.4576843001414,660.4576843001414,660.4576843001414,27,52,47,73,27,81,1.0,1.8606495000422,,,[],[],[],[],[],[],[],-0.6,3,,,,,,,,,,,,[],[],[],[],[],[],[],,,,,None,None,664.8538820999674,666.7402022001334,662.9670761001762,662.9670761001762,662.9670761001762,662.9670761001762,662.9670761001762,,,,,,,,,,,,,,,,281,m,18,2023-04-05_15h08.18.386,RL,2022.2.4,60.1210115977128,
1,-0.3,-0.225,0,42,42,42,,,,,,,,,,None,666.7402022001334,666.7402022001334,666.7402022001334,666.7402022001334,666.7402022001334,666.7402022001334,r,0.741005799965933,667.5060803000815,667.5060803000815,667.5060803000815,667.5060803000815,667.5060803000815,667.5060803000815,667.8042180000339,667.8042180000339,668.7020401000045,668.7020401000045,668.7020401000045,668.7020401000045,668.7020401000045,668.7020401000045,668.7020401000045,668.7020401000045,668.7020401000045,668.7020401000045,668.7020401000045,668.7020401000045,668.7020401000045,668.7020401000045,668.7020401000045,668.7020401000045,668.7020401000045,28,51,57,74,28,50,None,None,,,[],[],[],[],[],[],[],0.6,1,671.2175837000832,671.2175837000832,671.2175837000832,671.2175837000832,671.2175837000832,671.2175837000832,671.2175837000832,671.2175837000832,0.006893000099807978,671.2175837000832,70,[0.012037037037037037],[-0.275],[1],[0],[0],[9.192840799922124],['tijiao_random_2'],680.4256623000838,680.4256623000838,680.4256623000838,680.4256623000838,8.037037037037038,2.120413600001484,682.5632180999964,684.3923780000769,,,,,,,,,,,,,,,,,,,,,281,m,18,2023-04-05_15h08.18.386,RL,2022.2.4,60.1210115977128,
0,0.3,0.225,0,43,43,43,,,,,,,,,,None,684.3923780000769,684.3923780000769,684.3923780000769,684.3923780000769,684.3923780000769,684.3923780000769,j,0.3446756999474019,684.7595271000173,684.7595271000173,684.7595271000173,684.7595271000173,684.7595271000173,684.7595271000173,685.0571989000309,685.0571989000309,686.0381416999735,686.0381416999735,686.0381416999735,686.0381416999735,686.0381416999735,686.0381416999735,686.0381416999735,686.0381416999735,686.0381416999735,686.0381416999735,686.0381416999735,686.0381416999735,686.0381416999735,686.0381416999735,686.0381416999735,686.0381416999735,686.0381416999735,24,57,48,74,74,41,6.0,2.2104254998266697,,,[],[],[],[],[],[],[],0.2,3,,,,,,,,,,,,[],[],[],[],[],[],[],,,,,None,None,690.7835939000361,692.4371555000544,688.5469833000097,688.5469833000097,688.5469833000097,688.5469833000097,688.5469833000097,,,,,,,,,,,,,,,,281,m,18,2023-04-05_15h08.18.386,RL,2022.2.4,60.1210115977128,
1,-0.3,-0.225,0,44,44,44,,,,,,,,,,None,692.4371555000544,692.4371555000544,692.4371555000544,692.4371555000544,692.4371555000544,692.4371555000544,i,0.8533183999825269,693.3187718000263,693.3187718000263,693.3187718000263,693.3187718000263,693.3187718000263,693.3187718000263,693.6170897001866,693.6170897001866,695.1632399000227,695.1632399000227,695.1632399000227,695.1632399000227,695.1632399000227,695.1632399000227,695.1632399000227,695.1632399000227,695.1632399000227,695.1632399000227,695.1632399000227,695.1632399000227,695.1632399000227,695.1632399000227,695.1632399000227,695.1632399000227,695.1632399000227,18,57,54,68,54,65,None,None,55,55,[0.10648148148148148],[-0.26851851851851855],[1],[0],[0],[6.853928300086409],['tijiao'],0.6,0,,,,,,,,,,,,[],[],[],[],[],[],[],704.5512981000356,704.5512981000356,704.5512981000356,704.5512981000356,8.99074074074074,1.661718400195241,706.2316509000957,707.9942240000237,,,,,,697.6747237001546,697.6747237001546,697.6747237001546,697.6747237001546,697.6747237001546,697.6747237001546,697.6747237001546,697.6747237001546,0.007513399934396148,697.6747237001546,,,,,,281,m,18,2023-04-05_15h08.18.386,RL,2022.2.4,60.1210115977128,
0,0.3,0.225,0,45,45,45,,,,,,,,,,None,707.9942240000237,707.9942240000237,707.9942240000237,707.9942240000237,707.9942240000237,707.9942240000237,i,0.32496270001865923,708.344950000057,708.344950000057,708.344950000057,708.344950000057,708.344950000057,708.344950000057,708.6433747999836,708.6433747999836,710.3385705000255,710.3385705000255,710.3385705000255,710.3385705000255,710.3385705000255,710.3385705000255,710.3385705000255,710.3385705000255,710.3385705000255,710.3385705000255,710.3385705000255,710.3385705000255,710.3385705000255,710.3385705000255,710.3385705000255,710.3385705000255,710.3385705000255,19,49,55,70,55,69,4.0,4.1715891000349075,,,[],[],[],[],[],[],[],0.6,2,,,,,,,,,,,,[],[],[],[],[],[],[],,,,,None,None,717.0453423999716,718.7817385001108,712.8475097999908,712.8475097999908,712.8475097999908,712.8475097999908,712.8475097999908,,,,,,,,,,,,,,,,281,m,18,2023-04-05_15h08.18.386,RL,2022.2.4,60.1210115977128,
1,-0.3,-0.225,0,46,46,46,,,,,,,,,,None,718.7817385001108,718.7817385001108,718.7817385001108,718.7817385001108,718.7817385001108,718.7817385001108,j,0.9429804000537843,719.7470305999741,719.7470305999741,719.7470305999741,719.7470305999741,719.7470305999741,719.7470305999741,720.0454559000209,720.0454559000209,720.8927667001262,720.8927667001262,720.8927667001262,720.8927667001262,720.8927667001262,720.8927667001262,720.8927667001262,720.8927667001262,720.8927667001262,720.8927667001262,720.8927667001262,720.8927667001262,720.8927667001262,720.8927667001262,720.8927667001262,720.8927667001262,720.8927667001262,29,47,49,69,69,59,5.0,3.9383589001372457,,,[],[],[],[],[],[],[],0.6,2,,,,,,,,,,,,[],[],[],[],[],[],[],,,,,None,None,727.3671724000014,729.003678200068,723.4021930000745,723.4021930000745,723.4021930000745,723.4021930000745,723.4021930000745,,,,,,,,,,,,,,,,281,m,18,2023-04-05_15h08.18.386,RL,2022.2.4,60.1210115977128,
0,0.3,0.225,0,47,47,47,,,,,,,,,,None,729.003678200068,729.003678200068,729.003678200068,729.003678200068,729.003678200068,729.003678200068,i,0.7775717000477016,729.8025579999667,729.8025579999667,729.8025579999667,729.8025579999667,729.8025579999667,729.8025579999667,730.1009166000877,730.1009166000877,731.8293679000344,731.8293679000344,731.8293679000344,731.8293679000344,731.8293679000344,731.8293679000344,731.8293679000344,731.8293679000344,731.8293679000344,731.8293679000344,731.8293679000344,731.8293679000344,731.8293679000344,731.8293679000344,731.8293679000344,731.8293679000344,731.8293679000344,31,50,68,66,68,66,None,None,70,70,[0.06666666666666667],[-0.31203703703703706],[1],[0],[0],[3.728512499947101],['tijiao'],0.6,0,,,,,,,,,,,,[],[],[],[],[],[],[],738.0917099001817,738.0917099001817,738.0917099001817,738.0917099001817,9.0,2.294936199905351,740.4050425000023,742.1345594001468,,,,,,734.3427240999881,734.3427240999881,734.3427240999881,734.3427240999881,734.3427240999881,734.3427240999881,734.3427240999881,734.3427240999881,0.008359599858522415,734.3427240999881,,,,,,281,m,18,2023-04-05_15h08.18.386,RL,2022.2.4,60.1210115977128,
1,-0.3,-0.225,0,48,48,48,,,,,,,,,,None,742.1345594001468,742.1345594001468,742.1345594001468,742.1345594001468,742.1345594001468,742.1345594001468,i,0.5369144999422133,742.7017993000336,742.7017993000336,742.7017993000336,742.7017993000336,742.7017993000336,742.7017993000336,742.9994103000499,742.9994103000499,744.8771963000763,744.8771963000763,744.8771963000763,744.8771963000763,744.8771963000763,744.8771963000763,744.8771963000763,744.8771963000763,744.8771963000763,744.8771963000763,744.8771963000763,744.8771963000763,744.8771963000763,744.8771963000763,744.8771963000763,744.8771963000763,744.8771963000763,22,42,70,63,70,64,None,None,,,[],[],[],[],[],[],[],0.2,1,747.3968689001631,747.3968689001631,747.3968689001631,747.3968689001631,747.3968689001631,747.3968689001631,747.3968689001631,747.3968689001631,0.006670600036159158,747.3968689001631,85,[0.09907407407407408],[-0.2916666666666667],[1],[0],[0],[6.396974599920213],['tijiao_random_2'],753.806098600151,753.806098600151,753.806098600151,753.806098600151,8.981481481481481,1.9381081000901759,755.7631122001912,757.4097774000838,,,,,,,,,,,,,,,,,,,,,281,m,18,2023-04-05_15h08.18.386,RL,2022.2.4,60.1210115977128,
0,0.3,0.225,0,49,49,49,,,,,,,,,,None,757.4097774000838,757.4097774000838,757.4097774000838,757.4097774000838,757.4097774000838,757.4097774000838,i,0.5490186000242829,757.9930527000688,757.9930527000688,757.9930527000688,757.9930527000688,757.9930527000688,757.9930527000688,758.2910035999957,758.2910035999957,759.8367594000883,759.8367594000883,759.8367594000883,759.8367594000883,759.8367594000883,759.8367594000883,759.8367594000883,759.8367594000883,759.8367594000883,759.8367594000883,759.8367594000883,759.8367594000883,759.8367594000883,759.8367594000883,759.8367594000883,759.8367594000883,759.8367594000883,32,52,76,70,76,45,None,None,90,90,[0.10462962962962963],[-0.2953703703703704],[1],[0],[0],[6.805472300155088],['tijiao'],-0.2,0,,,,,,,,,,,,[],[],[],[],[],[],[],769.1753136001062,769.1753136001062,769.1753136001062,769.1753136001062,8.046296296296296,2.4924732998479158,771.6864236001857,773.5988945001736,,,,,,762.3466478001792,762.3466478001792,762.3466478001792,762.3466478001792,762.3466478001792,762.3466478001792,762.3466478001792,762.3466478001792,0.006785199977457523,762.3466478001792,,,,,,281,m,18,2023-04-05_15h08.18.386,RL,2022.2.4,60.1210115977128,
1,-0.3,-0.225,0,50,50,50,,,,,,,,,,None,773.5988945001736,773.5988945001736,773.5988945001736,773.5988945001736,773.5988945001736,773.5988945001736,i,0.3225006000138819,773.9506596000865,773.9506596000865,773.9506596000865,773.9506596000865,773.9506596000865,773.9506596000865,774.2475568000227,774.2475568000227,775.6935825000983,775.6935825000983,775.6935825000983,775.6935825000983,775.6935825000983,775.6935825000983,775.6935825000983,775.6935825000983,775.6935825000983,775.6935825000983,775.6935825000983,775.6935825000983,775.6935825000983,775.6935825000983,775.6935825000983,775.6935825000983,775.6935825000983,20,45,67,76,67,60,None,None,70,70,[0.06111111111111111],[-0.2824074074074074],[1],[0],[0],[5.407684399979189],['tijiao'],-0.2,0,,,,,,,,,,,,[],[],[],[],[],[],[],783.6349679999985,783.6349679999985,783.6349679999985,783.6349679999985,8.972222222222223,2.8925113999284804,786.5458848001435,788.5251295999624,,,,,,778.2056380000431,778.2056380000431,778.2056380000431,778.2056380000431,778.2056380000431,778.2056380000431,778.2056380000431,778.2056380000431,0.007698999950662255,778.2056380000431,,,,,,281,m,18,2023-04-05_15h08.18.386,RL,2022.2.4,60.1210115977128,
0,0.3,0.225,0,51,51,51,,,,,,,,,,None,788.5251295999624,788.5251295999624,788.5251295999624,788.5251295999624,788.5251295999624,788.5251295999624,i,0.6678504999727011,789.2256153000053,789.2256153000053,789.2256153000053,789.2256153000053,789.2256153000053,789.2256153000053,789.5225170000922,789.5225170000922,790.5530585001688,790.5530585001688,790.5530585001688,790.5530585001688,790.5530585001688,790.5530585001688,790.5530585001688,790.5530585001688,790.5530585001688,790.5530585001688,790.5530585001688,790.5530585001688,790.5530585001688,790.5530585001688,790.5530585001688,790.5530585001688,790.5530585001688,24,45,70,70,70,63,None,None,,,[],[],[],[],[],[],[],0.6,1,793.0729694000911,793.0729694000911,793.0729694000911,793.0729694000911,793.0729694000911,793.0729694000911,793.0729694000911,793.0729694000911,0.00697270012460649,793.0729694000911,50,[0.011111111111111112],[-0.28425925925925927],[1],[0],[0],[7.3272673999890685],['tijiao_random_2'],800.4122962001711,800.4122962001711,800.4122962001711,800.4122962001711,8.898148148148147,3.1517582000233233,803.5828601999674,805.3123039000202,,,,,,,,,,,,,,,,,,,,,281,m,18,2023-04-05_15h08.18.386,RL,2022.2.4,60.1210115977128,
1,-0.3,-0.225,0,52,52,52,,,,,,,,,,None,805.3123039000202,805.3123039000202,805.3123039000202,805.3123039000202,805.3123039000202,805.3123039000202,j,0.5229903999716043,805.8621400999837,805.8621400999837,805.8621400999837,805.8621400999837,805.8621400999837,805.8621400999837,806.1603873001877,806.1603873001877,807.0242910000961,807.0242910000961,807.0242910000961,807.0242910000961,807.0242910000961,807.0242910000961,807.0242910000961,807.0242910000961,807.0242910000961,807.0242910000961,807.0242910000961,807.0242910000961,807.0242910000961,807.0242910000961,807.0242910000961,807.0242910000961,807.0242910000961,31,46,63,58,58,61,None,None,,,[],[],[],[],[],[],[],0.2,1,809.5444365001749,809.5444365001749,809.5444365001749,809.5444365001749,809.5444365001749,809.5444365001749,809.5444365001749,809.5444365001749,0.007177799940109253,809.5444365001749,72,[0.1361111111111111],[-0.29444444444444445],[1],[0],[0],[9.188628600211814],['tijiao_random_2'],818.7471951001789,818.7471951001789,818.7471951001789,818.7471951001789,8.037037037037038,1.7379858999047428,820.5032606001478,822.315984700108,,,,,,,,,,,,,,,,,,,,,281,m,18,2023-04-05_15h08.18.386,RL,2022.2.4,60.1210115977128,
0,0.3,0.225,0,53,53,53,,,,,,,,,,None,822.315984700108,822.315984700108,822.315984700108,822.315984700108,822.315984700108,822.315984700108,i,0.2544812001287937,822.6011187001131,822.6011187001131,822.6011187001131,822.6011187001131,822.6011187001131,822.6011187001131,822.8977763000876,822.8977763000876,824.909234700026,824.909234700026,824.909234700026,824.909234700026,824.909234700026,824.909234700026,824.909234700026,824.909234700026,824.909234700026,824.909234700026,824.909234700026,824.909234700026,824.909234700026,824.909234700026,824.909234700026,824.909234700026,824.909234700026,22,47,62,72,62,31,6.0,1.9609116001520306,,,[],[],[],[],[],[],[],-0.2,2,,,,,,,,,,,,[],[],[],[],[],[],[],,,,,None,None,829.4056006001774,831.1749329001177,827.4184582000598,827.4184582000598,827.4184582000598,827.4184582000598,827.4184582000598,,,,,,,,,,,,,,,,281,m,18,2023-04-05_15h08.18.386,RL,2022.2.4,60.1210115977128,
1,-0.3,-0.225,0,54,54,54,,,,,,,,,,None,831.1749329001177,831.1749329001177,831.1749329001177,831.1749329001177,831.1749329001177,831.1749329001177,r,1.1224105001892895,832.323842599988,832.323842599988,832.323842599988,832.323842599988,832.323842599988,832.323842599988,832.6213917999994,832.6213917999994,834.3835244001821,834.3835244001821,834.3835244001821,834.3835244001821,834.3835244001821,834.3835244001821,834.3835244001821,834.3835244001821,834.3835244001821,834.3835244001821,834.3835244001821,834.3835244001821,834.3835244001821,834.3835244001821,834.3835244001821,834.3835244001821,834.3835244001821,27,60,57,66,27,63,1.0,2.0602659001015127,,,[],[],[],[],[],[],[],0.2,3,,,,,,,,,,,,[],[],[],[],[],[],[],,,,,None,None,838.9797792001627,840.8821533999871,836.8921457000542,836.8921457000542,836.8921457000542,836.8921457000542,836.8921457000542,,,,,,,,,,,,,,,,281,m,18,2023-04-05_15h08.18.386,RL,2022.2.4,60.1210115977128,
0,0.3,0.225,0,55,55,55,,,,,,,,,,None,840.8821533999871,840.8821533999871,840.8821533999871,840.8821533999871,840.8821533999871,840.8821533999871,f,0.48279160005040467,841.3993275000248,841.3993275000248,841.3993275000248,841.3993275000248,841.3993275000248,841.3993275000248,841.696523200022,841.696523200022,842.8268208999652,842.8268208999652,842.8268208999652,842.8268208999652,842.8268208999652,842.8268208999652,842.8268208999652,842.8268208999652,842.8268208999652,842.8268208999652,842.8268208999652,842.8268208999652,842.8268208999652,842.8268208999652,842.8268208999652,842.8268208999652,842.8268208999652,21,58,66,67,58,33,None,None,83,83,[0.020370370370370372],[-0.30462962962962964],[1],[0],[0],[8.31664719991386],['tijiao'],0.6,0,,,,,,,,,,,,[],[],[],[],[],[],[],853.67568760016,853.67568760016,853.67568760016,853.67568760016,8.101851851851853,2.2123885999899358,855.90683360002,857.7689644000493,,,,,,845.3384404000826,845.3384404000826,845.3384404000826,845.3384404000826,845.3384404000826,845.3384404000826,845.3384404000826,845.3384404000826,0.007353699998930097,845.3384404000826,,,,,,281,m,18,2023-04-05_15h08.18.386,RL,2022.2.4,60.1210115977128,
1,-0.3,-0.225,0,56,56,56,,,,,,,,,,None,857.7689644000493,857.7689644000493,857.7689644000493,857.7689644000493,857.7689644000493,857.7689644000493,f,0.34699030010960996,858.1372702000663,858.1372702000663,858.1372702000663,858.1372702000663,858.1372702000663,858.1372702000663,858.4343793001026,858.4343793001026,859.4150541001,859.4150541001,859.4150541001,859.4150541001,859.4150541001,859.4150541001,859.4150541001,859.4150541001,859.4150541001,859.4150541001,859.4150541001,859.4150541001,859.4150541001,859.4150541001,859.4150541001,859.4150541001,859.4150541001,19,52,68,64,52,61,3.0,3.091202300041914,,,[],[],[],[],[],[],[],0.2,2,,,,,,,,,,,,[],[],[],[],[],[],[],,,,,None,None,865.0421906001866,866.9608581000939,861.9242567000911,861.9242567000911,861.9242567000911,861.9242567000911,861.9242567000911,,,,,,,,,,,,,,,,281,m,18,2023-04-05_15h08.18.386,RL,2022.2.4,60.1210115977128,
0,0.3,0.225,0,57,57,57,,,,,,,,,,None,866.9608581000939,866.9608581000939,866.9608581000939,866.9608581000939,866.9608581000939,866.9608581000939,i,0.5923234999645501,867.5779885000084,867.5779885000084,867.5779885000084,867.5779885000084,867.5779885000084,867.5779885000084,867.8752665000502,867.8752665000502,869.0549572000746,869.0549572000746,869.0549572000746,869.0549572000746,869.0549572000746,869.0549572000746,869.0549572000746,869.0549572000746,869.0549572000746,869.0549572000746,869.0549572000746,869.0549572000746,869.0549572000746,869.0549572000746,869.0549572000746,869.0549572000746,869.0549572000746,24,56,74,65,74,59,None,None,95,95,[0.046296296296296294],[-0.28425925925925927],[1],[0],[0],[6.28919030004181],['tijiao'],0.2,0,,,,,,,,,,,,[],[],[],[],[],[],[],877.8770387000404,877.8770387000404,877.8770387000404,877.8770387000404,9.0,2.5439871000126004,880.4396811001934,882.4186828001402,,,,,,871.5666029001586,871.5666029001586,871.5666029001586,871.5666029001586,871.5666029001586,871.5666029001586,871.5666029001586,871.5666029001586,0.007173899793997407,871.5666029001586,,,,,,281,m,18,2023-04-05_15h08.18.386,RL,2022.2.4,60.1210115977128,
1,-0.3,-0.225,0,58,58,58,,,,,,,,,,None,882.4186828001402,882.4186828001402,882.4186828001402,882.4186828001402,882.4186828001402,882.4186828001402,i,1.116135299904272,883.5658525000326,883.5658525000326,883.5658525000326,883.5658525000326,883.5658525000326,883.5658525000326,883.865093300119,883.865093300119,885.7432693000883,885.7432693000883,885.7432693000883,885.7432693000883,885.7432693000883,885.7432693000883,885.7432693000883,885.7432693000883,885.7432693000883,885.7432693000883,885.7432693000883,885.7432693000883,885.7432693000883,885.7432693000883,885.7432693000883,885.7432693000883,885.7432693000883,12,54,67,69,67,68,None,None,76,76,[0.06759259259259259],[-0.287962962962963],[1],[0],[0],[4.675049300072715],['tijiao'],-0.2,0,,,,,,,,,,,,[],[],[],[],[],[],[],892.9515601000749,892.9515601000749,892.9515601000749,892.9515601000749,7.037037037037037,4.47285609995015,897.443164500175,899.2223096999805,,,,,,888.2566305999644,888.2566305999644,888.2566305999644,888.2566305999644,888.2566305999644,888.2566305999644,888.2566305999644,888.2566305999644,0.008672300027683377,888.2566305999644,,,,,,281,m,18,2023-04-05_15h08.18.386,RL,2022.2.4,60.1210115977128,
0,0.3,0.225,0,59,59,59,,,,,,,,,,None,899.2223096999805,899.2223096999805,899.2223096999805,899.2223096999805,899.2223096999805,899.2223096999805,i,0.3091529000084847,899.5549843001645,899.5549843001645,899.5549843001645,899.5549843001645,899.5549843001645,899.5549843001645,899.8542216999922,899.8542216999922,901.2008744999766,901.2008744999766,901.2008744999766,901.2008744999766,901.2008744999766,901.2008744999766,901.2008744999766,901.2008744999766,901.2008744999766,901.2008744999766,901.2008744999766,901.2008744999766,901.2008744999766,901.2008744999766,901.2008744999766,901.2008744999766,901.2008744999766,20,55,67,66,67,62,None,None,50,50,[-0.024074074074074074],[-0.3074074074074074],[1],[0],[0],[6.438531900057569],['tijiao'],0.6,0,,,,,,,,,,,,[],[],[],[],[],[],[],910.1693143001758,910.1693143001758,910.1693143001758,910.1693143001758,5.037037037037036,1.7488857000134885,911.9369812000077,913.7494483001065,,,,,,903.7121475001331,903.7121475001331,903.7121475001331,903.7121475001331,903.7121475001331,903.7121475001331,903.7121475001331,903.7121475001331,0.0066443998366594315,903.7121475001331,,,,,,281,m,18,2023-04-05_15h08.18.386,RL,2022.2.4,60.1210115977128,
1,-0.3,-0.225,0,60,60,60,,,,,,,,,,None,913.7494483001065,913.7494483001065,913.7494483001065,913.7494483001065,913.7494483001065,913.7494483001065,i,0.6952575000468642,914.4660637001507,914.4660637001507,914.4660637001507,914.4660637001507,914.4660637001507,914.4660637001507,914.76373840007,914.76373840007,916.4924554000609,916.4924554000609,916.4924554000609,916.4924554000609,916.4924554000609,916.4924554000609,916.4924554000609,916.4924554000609,916.4924554000609,916.4924554000609,916.4924554000609,916.4924554000609,916.4924554000609,916.4924554000609,916.4924554000609,916.4924554000609,916.4924554000609,11,63,72,63,72,63,5.0,4.004968399880454,,,[],[],[],[],[],[],[],-0.6,2,,,,,,,,,,,,[],[],[],[],[],[],[],,,,,None,None,923.0321029999759,924.6700320001692,919.0015531000681,919.0015531000681,919.0015531000681,919.0015531000681,919.0015531000681,,,,,,,,,,,,,,,,281,m,18,2023-04-05_15h08.18.386,RL,2022.2.4,60.1210115977128,
0,0.3,0.225,0,61,61,61,,,,,,,,,,None,924.6700320001692,924.6700320001692,924.6700320001692,924.6700320001692,924.6700320001692,924.6700320001692,f,0.8853404999244958,925.5876705001574,925.5876705001574,925.5876705001574,925.5876705001574,925.5876705001574,925.5876705001574,925.8838216001168,925.8838216001168,926.8638061000966,926.8638061000966,926.8638061000966,926.8638061000966,926.8638061000966,926.8638061000966,926.8638061000966,926.8638061000966,926.8638061000966,926.8638061000966,926.8638061000966,926.8638061000966,926.8638061000966,926.8638061000966,926.8638061000966,926.8638061000966,926.8638061000966,17,67,62,70,67,56,None,None,93,93,[0.04351851851851852],[-0.2722222222222222],[1],[0],[0],[5.822477500187233],['tijiao'],0.6,0,,,,,,,,,,,,[],[],[],[],[],[],[],935.2202385000419,935.2202385000419,935.2202385000419,935.2202385000419,5.037037037037036,1.8798382999375463,937.1186045999639,938.797868900001,,,,,,929.3767056001816,929.3767056001816,929.3767056001816,929.3767056001816,929.3767056001816,929.3767056001816,929.3767056001816,929.3767056001816,0.007945399964228272,929.3767056001816,,,,,,281,m,18,2023-04-05_15h08.18.386,RL,2022.2.4,60.1210115977128,
1,-0.3,-0.225,0,62,62,62,,,,,,,,,,None,938.797868900001,938.797868900001,938.797868900001,938.797868900001,938.797868900001,938.797868900001,f,0.7963137999176979,939.6148473001085,939.6148473001085,939.6148473001085,939.6148473001085,939.6148473001085,939.6148473001085,939.9117843999993,939.9117843999993,941.8235462000594,941.8235462000594,941.8235462000594,941.8235462000594,941.8235462000594,941.8235462000594,941.8235462000594,941.8235462000594,941.8235462000594,941.8235462000594,941.8235462000594,941.8235462000594,941.8235462000594,941.8235462000594,941.8235462000594,941.8235462000594,941.8235462000594,13,66,70,69,66,48,5.0,4.686432899907231,,,[],[],[],[],[],[],[],0.6,2,,,,,,,,,,,,[],[],[],[],[],[],[],,,,,None,None,949.0457727001049,950.9317057000007,944.3326562000439,944.3326562000439,944.3326562000439,944.3326562000439,944.3326562000439,,,,,,,,,,,,,,,,281,m,18,2023-04-05_15h08.18.386,RL,2022.2.4,60.1210115977128,
0,0.3,0.225,0,63,63,63,,,,,,,,,,None,950.9317057000007,950.9317057000007,950.9317057000007,950.9317057000007,950.9317057000007,950.9317057000007,r,0.7681911999825388,951.7321154000238,951.7321154000238,951.7321154000238,951.7321154000238,951.7321154000238,951.7321154000238,952.0288480001036,952.0288480001036,953.7906282001641,953.7906282001641,953.7906282001641,953.7906282001641,953.7906282001641,953.7906282001641,953.7906282001641,953.7906282001641,953.7906282001641,953.7906282001641,953.7906282001641,953.7906282001641,953.7906282001641,953.7906282001641,953.7906282001641,953.7906282001641,953.7906282001641,19,63,69,69,19,64,1.0,1.4950785001274198,,,[],[],[],[],[],[],[],-0.2,2,,,,,,,,,,,,[],[],[],[],[],[],[],,,,,None,None,957.8232804001309,959.3919595000334,956.2998620001599,956.2998620001599,956.2998620001599,956.2998620001599,956.2998620001599,,,,,,,,,,,,,,,,281,m,18,2023-04-05_15h08.18.386,RL,2022.2.4,60.1210115977128,
1,-0.3,-0.225,0,64,64,64,,,,,,,,,,None,959.3919595000334,959.3919595000334,959.3919595000334,959.3919595000334,959.3919595000334,959.3919595000334,i,0.6404339000582695,960.0595589000732,960.0595589000732,960.0595589000732,960.0595589000732,960.0595589000732,960.0595589000732,960.3560983000789,960.3560983000789,961.4533717001323,961.4533717001323,961.4533717001323,961.4533717001323,961.4533717001323,961.4533717001323,961.4533717001323,961.4533717001323,961.4533717001323,961.4533717001323,961.4533717001323,961.4533717001323,961.4533717001323,961.4533717001323,961.4533717001323,961.4533717001323,961.4533717001323,17,54,67,68,67,57,None,None,20,20,[-0.10462962962962963],[-0.26944444444444443],[1],[0],[0],[5.20866660005413],['tijiao'],0.2,0,,,,,,,,,,,,[],[],[],[],[],[],[],969.1941735001747,969.1941735001747,969.1941735001747,969.1941735001747,7.074074074074074,6.0346495998092,975.2478791000322,977.0265614001546,,,,,,963.9652150000911,963.9652150000911,963.9652150000911,963.9652150000911,963.9652150000911,963.9652150000911,963.9652150000911,963.9652150000911,0.007357200141996145,963.9652150000911,,,,,,281,m,18,2023-04-05_15h08.18.386,RL,2022.2.4,60.1210115977128,
0,0.3,0.225,0,65,65,65,,,,,,,,,,None,977.0265614001546,977.0265614001546,977.0265614001546,977.0265614001546,977.0265614001546,977.0265614001546,i,0.40689159999601543,977.4614189001732,977.4614189001732,977.4614189001732,977.4614189001732,977.4614189001732,977.4614189001732,977.7584400000051,977.7584400000051,979.6865646000952,979.6865646000952,979.7032469999976,979.7032469999976,979.7032469999976,979.7032469999976,979.7032469999976,979.7032469999976,979.7032469999976,979.7032469999976,979.7032469999976,979.7032469999976,979.7032469999976,979.7032469999976,979.7032469999976,979.7032469999976,979.7032469999976,12,63,64,69,64,58,None,None,70,70,[0.10925925925925926],[-0.2916666666666667],[1],[0],[0],[4.5104441998992115],['tijiao'],-0.2,0,,,,,,,,,,,,[],[],[],[],[],[],[],986.7466137001757,986.7466137001757,986.7466137001757,986.7466137001757,7.861111111111111,2.1948645000811666,988.9601376999635,990.8394973999821,,,,,,982.2156182001345,982.2156182001345,982.2156182001345,982.2156182001345,982.2156182001345,982.2156182001345,982.2156182001345,982.2156182001345,0.007709800032898784,982.2156182001345,,,,,,281,m,18,2023-04-05_15h08.18.386,RL,2022.2.4,60.1210115977128,
1,-0.3,-0.225,0,66,66,66,,,,,,,,,,None,990.8394973999821,990.8394973999821,990.8394973999821,990.8394973999821,990.8394973999821,990.8394973999821,i,0.43197829998098314,991.2886561001651,991.2886561001651,991.2886561001651,991.2886561001651,991.2886561001651,991.2886561001651,991.5873448001221,991.5873448001221,992.7345944000408,992.7345944000408,992.7345944000408,992.7345944000408,992.7345944000408,992.7345944000408,992.7345944000408,992.7345944000408,992.7345944000408,992.7345944000408,992.7345944000408,992.7345944000408,992.7345944000408,992.7345944000408,992.7345944000408,992.7345944000408,992.7345944000408,27,71,65,66,65,65,3.0,4.7029766999185085,,,[],[],[],[],[],[],[],0.2,3,,,,,,,,,,,,[],[],[],[],[],[],[],,,,,None,None,999.9744092000183,1001.8755942999851,995.2436019000597,995.2436019000597,995.2436019000597,995.2436019000597,995.2436019000597,,,,,,,,,,,,,,,,281,m,18,2023-04-05_15h08.18.386,RL,2022.2.4,60.1210115977128,
0,0.3,0.225,0,67,67,67,,,,,,,,,,None,1001.8755942999851,1001.8755942999851,1001.8755942999851,1001.8755942999851,1001.8755942999851,1001.8755942999851,j,0.4669197998009622,1002.3751319001894,1002.3751319001894,1002.3751319001894,1002.3751319001894,1002.3751319001894,1002.3751319001894,1002.6740470000077,1002.6740470000077,1004.2863885001279,1004.2863885001279,1004.2863885001279,1004.2863885001279,1004.2863885001279,1004.2863885001279,1004.2863885001279,1004.2863885001279,1004.2863885001279,1004.2863885001279,1004.2863885001279,1004.2863885001279,1004.2863885001279,1004.2863885001279,1004.2863885001279,1004.2863885001279,1004.2863885001279,22,71,64,68,68,68,3.0,1.6115259998477995,,,[],[],[],[],[],[],[],0.6,3,,,,,,,,,,,,[],[],[],[],[],[],[],,,,,None,None,1008.436058399966,1010.037075900007,1006.7952164001763,1006.7952164001763,1006.7952164001763,1006.7952164001763,1006.7952164001763,,,,,,,,,,,,,,,,281,m,18,2023-04-05_15h08.18.386,RL,2022.2.4,60.1210115977128,
1,-0.3,-0.225,0,68,68,68,,,,,,,,,,None,1010.037075900007,1010.037075900007,1010.037075900007,1010.037075900007,1010.037075900007,1010.037075900007,r,0.5544233000837266,1010.6209671001416,1010.6209671001416,1010.6209671001416,1010.6209671001416,1010.6209671001416,1010.6209671001416,1010.9183275999967,1010.9183275999967,1012.3641698001884,1012.3641698001884,1012.380632400047,1012.380632400047,1012.380632400047,1012.380632400047,1012.380632400047,1012.380632400047,1012.380632400047,1012.380632400047,1012.380632400047,1012.380632400047,1012.380632400047,1012.380632400047,1012.380632400047,1012.380632400047,1012.380632400047,17,64,62,66,17,63,None,None,90,90,[0.022222222222222223],[-0.2851851851851852],[1],[0],[0],[2.9974316000007093],['tijiao'],-0.2,0,,,,,,,,,,,,[],[],[],[],[],[],[],1017.9114063000306,1017.9114063000306,1017.9114063000306,1017.9114063000306,7.018518518518519,2.9593827999196947,1020.889675399987,1022.7355712000281,,,,,,1014.8932205000892,1014.8932205000892,1014.8932205000892,1014.8932205000892,1014.8932205000892,1014.8932205000892,1014.8932205000892,1014.8932205000892,0.007825700100511312,1014.8932205000892,,,,,,281,m,18,2023-04-05_15h08.18.386,RL,2022.2.4,60.1210115977128,
0,0.3,0.225,0,69,69,69,,,,,,,,,,None,1022.7355712000281,1022.7355712000281,1022.7355712000281,1022.7355712000281,1022.7355712000281,1022.7355712000281,r,0.3161756999325007,1023.0867793001235,1023.0867793001235,1023.0867793001235,1023.0867793001235,1023.0867793001235,1023.0867793001235,1023.3839141000062,1023.3839141000062,1024.7968782000244,1024.7968782000244,1024.7968782000244,1024.7968782000244,1024.7968782000244,1024.7968782000244,1024.7968782000244,1024.7968782000244,1024.7968782000244,1024.7968782000244,1024.7968782000244,1024.7968782000244,1024.7968782000244,1024.7968782000244,1024.7968782000244,1024.7968782000244,1024.7968782000244,20,57,65,58,20,51,1.0,2.3093393000308424,,,[],[],[],[],[],[],[],-0.2,2,,,,,,,,,,,,[],[],[],[],[],[],[],,,,,None,None,1029.6413889999967,1031.2954584001563,1027.306247800123,1027.306247800123,1027.306247800123,1027.306247800123,1027.306247800123,,,,,,,,,,,,,,,,281,m,18,2023-04-05_15h08.18.386,RL,2022.2.4,60.1210115977128,
1,-0.3,-0.225,0,70,70,70,,,,,,,,,,None,1031.2954584001563,1031.2954584001563,1031.2954584001563,1031.2954584001563,1031.2954584001563,1031.2954584001563,j,0.933851599926129,1032.2607456000987,1032.2607456000987,1032.2607456000987,1032.2607456000987,1032.2607456000987,1032.2607456000987,1032.5591261000372,1032.5591261000372,1033.972023300128,1033.972023300128,1033.972023300128,1033.972023300128,1033.972023300128,1033.972023300128,1033.972023300128,1033.972023300128,1033.972023300128,1033.972023300128,1033.972023300128,1033.972023300128,1033.972023300128,1033.972023300128,1033.972023300128,1033.972023300128,1033.972023300128,19,57,63,58,58,56,None,None,,,[],[],[],[],[],[],[],-0.2,1,1036.4922417001799,1036.4922417001799,1036.4922417001799,1036.4922417001799,1036.4922417001799,1036.4922417001799,1036.4922417001799,1036.4922417001799,0.0070553000550717115,1036.4922417001799,80,[-0.06111111111111111],[-0.2740740740740741],[1],[0],[0],[6.562059599906206],['tijiao_random_2'],1043.0669867000543,1043.0669867000543,1043.0669867000543,1043.0669867000543,8.064814814814815,2.8859255998395383,1045.9713827001397,1047.5181337001268,,,,,,,,,,,,,,,,,,,,,281,m,18,2023-04-05_15h08.18.386,RL,2022.2.4,60.1210115977128,
0,0.3,0.225,0,71,71,71,,,,,,,,,,None,1047.5181337001268,1047.5181337001268,1047.5181337001268,1047.5181337001268,1047.5181337001268,1047.5181337001268,f,0.353443699888885,1047.904350799974,1047.904350799974,1047.904350799974,1047.904350799974,1047.904350799974,1047.904350799974,1048.1998489000835,1048.1998489000835,1049.0639404000249,1049.0639404000249,1049.0639404000249,1049.0639404000249,1049.0639404000249,1049.0639404000249,1049.0639404000249,1049.0639404000249,1049.0639404000249,1049.0639404000249,1049.0639404000249,1049.0639404000249,1049.0639404000249,1049.0639404000249,1049.0639404000249,1049.0639404000249,1049.0639404000249,17,66,68,59,66,53,None,None,85,85,[0.11296296296296296],[-0.2657407407407407],[1],[0],[0],[5.65778740006499],['tijiao'],-0.2,0,,,,,,,,,,,,[],[],[],[],[],[],[],1057.2561123000924,1057.2561123000924,1057.2561123000924,1057.2561123000924,6.027777777777778,4.037450199946761,1061.312991200015,1063.1420493000187,,,,,,1051.5762587999925,1051.5762587999925,1051.5762587999925,1051.5762587999925,1051.5762587999925,1051.5762587999925,1051.5762587999925,1051.5762587999925,0.007400699891149998,1051.5762587999925,,,,,,281,m,18,2023-04-05_15h08.18.386,RL,2022.2.4,60.1210115977128,
1,-0.3,-0.225,0,72,72,72,,,,,,,,,,None,1063.1420493000187,1063.1420493000187,1063.1420493000187,1063.1420493000187,1063.1420493000187,1063.1420493000187,f,0.24235919979400933,1063.408274400048,1063.408274400048,1063.408274400048,1063.408274400048,1063.408274400048,1063.408274400048,1063.7070053999778,1063.7070053999778,1064.887273899978,1064.887273899978,1064.887273899978,1064.887273899978,1064.887273899978,1064.887273899978,1064.887273899978,1064.887273899978,1064.887273899978,1064.887273899978,1064.887273899978,1064.887273899978,1064.887273899978,1064.887273899978,1064.887273899978,1064.887273899978,1064.887273899978,10,69,62,57,69,67,4.0,2.194752500159666,,,[],[],[],[],[],[],[],0.6,2,,,,,,,,,,,,[],[],[],[],[],[],[],,,,,None,None,1069.6151004000567,1071.4360188001301,1067.396323800087,1067.396323800087,1067.396323800087,1067.396323800087,1067.396323800087,,,,,,,,,,,,,,,,281,m,18,2023-04-05_15h08.18.386,RL,2022.2.4,60.1210115977128,
0,0.3,0.225,0,73,73,73,,,,,,,,,,None,1071.4360188001301,1071.4360188001301,1071.4360188001301,1071.4360188001301,1071.4360188001301,1071.4360188001301,i,0.4375259999651462,1071.903138200054,1071.903138200054,1071.903138200054,1071.903138200054,1071.903138200054,1071.903138200054,1072.2010507001542,1072.2010507001542,1073.6964826001786,1073.6964826001786,1073.6964826001786,1073.6964826001786,1073.6964826001786,1073.6964826001786,1073.6964826001786,1073.6964826001786,1073.6964826001786,1073.6964826001786,1073.6964826001786,1073.6964826001786,1073.6964826001786,1073.6964826001786,1073.6964826001786,1073.6964826001786,1073.6964826001786,9,66,65,69,65,58,None,None,,,[],[],[],[],[],[],[],0.6,1,1076.215078300098,1076.215078300098,1076.215078300098,1076.215078300098,1076.215078300098,1076.215078300098,1076.215078300098,1076.215078300098,0.0066148999612778425,1076.215078300098,30,[0.05462962962962963],[-0.2962962962962963],[1],[0],[0],[4.337532999925315],['tijiao_random_2'],1080.5656961000059,1080.5656961000059,1080.5656961000059,1080.5656961000059,7.027777777777778,3.7982395999133587,1084.3830695000943,1086.0630571001675,,,,,,,,,,,,,,,,,,,,,281,m,18,2023-04-05_15h08.18.386,RL,2022.2.4,60.1210115977128,
1,-0.3,-0.225,0,74,74,74,,,,,,,,,,None,1086.0630571001675,1086.0630571001675,1086.0630571001675,1086.0630571001675,1086.0630571001675,1086.0630571001675,i,0.36405880004167557,1086.4483921001665,1086.4483921001665,1086.4483921001665,1086.4483921001665,1086.4483921001665,1086.4483921001665,1086.7446942001116,1086.7446942001116,1088.2735931000207,1088.2735931000207,1088.2735931000207,1088.2735931000207,1088.2735931000207,1088.2735931000207,1088.2735931000207,1088.2735931000207,1088.2735931000207,1088.2735931000207,1088.2735931000207,1088.2735931000207,1088.2735931000207,1088.2735931000207,1088.2735931000207,1088.2735931000207,1088.2735931000207,0,78,61,61,61,61,None,None,60,60,[0.008333333333333333],[-0.32037037037037036],[1],[0],[0],[5.391857099952176],['tijiao'],-0.6,0,,,,,,,,,,,,[],[],[],[],[],[],[],1096.1968794001732,1096.1968794001732,1096.1968794001732,1096.1968794001732,7.944444444444445,5.936066900147125,1102.1513584000058,1104.063269900158,,,,,,1090.7842487001326,1090.7842487001326,1090.7842487001326,1090.7842487001326,1090.7842487001326,1090.7842487001326,1090.7842487001326,1090.7842487001326,0.006511199986562133,1090.7842487001326,,,,,,281,m,18,2023-04-05_15h08.18.386,RL,2022.2.4,60.1210115977128,
0,0.3,0.225,0,75,75,75,,,,,,,,,,q,1162.8711814000271,1162.8711814000271,1162.8711814000271,1162.8711814000271,1162.8711814000271,1162.8711814000271,r,0.7925497000105679,1163.6847083000466,1163.6847083000466,1163.6847083000466,1163.6847083000466,1163.6847083000466,1163.6847083000466,1163.9839482000098,1163.9839482000098,1165.5459007001482,1165.5459007001482,1165.5459007001482,1165.5459007001482,1165.5459007001482,1165.5459007001482,1165.5459007001482,1165.5459007001482,1165.5459007001482,1165.5459007001482,1165.5459007001482,1165.5459007001482,1165.5459007001482,1165.5459007001482,1165.5459007001482,1165.5459007001482,1165.5459007001482,9,71,68,67,9,59,None,None,10,10,[0.04537037037037037],[-0.27870370370370373],[1],[0],[0],[4.344786199973896],['tijiao'],0.2,0,,,,,,,,,,,,[],[],[],[],[],[],[],1172.4219570001587,1172.4219570001587,1172.4219570001587,1172.4219570001587,7.9259259259259265,2.4449861999601126,1174.8861838001758,1176.8319443000946,,,,,,1168.057059600018,1168.057059600018,1168.057059600018,1168.057059600018,1168.057059600018,1168.057059600018,1168.057059600018,1168.057059600018,0.006490600062534213,1168.057059600018,,,1104.063269900158,1104.063269900158,58.775994499912485,281,m,18,2023-04-05_15h08.18.386,RL,2022.2.4,60.1210115977128,
1,-0.3,-0.225,0,76,76,76,,,,,,,,,,None,1176.8319443000946,1176.8319443000946,1176.8319443000946,1176.8319443000946,1176.8319443000946,1176.8319443000946,j,0.3364804000593722,1177.1982937001158,1177.1982937001158,1177.1982937001158,1177.1982937001158,1177.1982937001158,1177.1982937001158,1177.4970780001022,1177.4970780001022,1178.7270806999877,1178.7270806999877,1178.7270806999877,1178.7270806999877,1178.7270806999877,1178.7270806999877,1178.7270806999877,1178.7270806999877,1178.7270806999877,1178.7270806999877,1178.7270806999877,1178.7270806999877,1178.7270806999877,1178.7270806999877,1178.7270806999877,1178.7270806999877,1178.7270806999877,8,67,63,63,63,60,None,None,,,[],[],[],[],[],[],[],0.6,1,1181.2481822001282,1181.2481822001282,1181.2481822001282,1181.2481822001282,1181.2481822001282,1181.2481822001282,1181.2481822001282,1181.2481822001282,0.0073490000795573,1181.2481822001282,63,[0.08425925925925926],[-0.2972222222222222],[1],[0],[0],[3.686226800084114],['tijiao_random_2'],1184.9462042001542,1184.9462042001542,1184.9462042001542,1184.9462042001542,10.0,1.954717099899426,1186.9198811000679,1188.4999576001428,,,,,,,,,,,,,,,,,,,,,281,m,18,2023-04-05_15h08.18.386,RL,2022.2.4,60.1210115977128,
0,0.3,0.225,0,77,77,77,,,,,,,,,,None,1188.4999576001428,1188.4999576001428,1188.4999576001428,1188.4999576001428,1188.4999576001428,1188.4999576001428,i,0.4887117000762373,1189.0176598001271,1189.0176598001271,1189.0176598001271,1189.0176598001271,1189.0176598001271,1189.0176598001271,1189.3148405000102,1189.3148405000102,1190.195588100003,1190.195588100003,1190.195588100003,1190.195588100003,1190.195588100003,1190.195588100003,1190.195588100003,1190.195588100003,1190.195588100003,1190.195588100003,1190.195588100003,1190.195588100003,1190.195588100003,1190.195588100003,1190.195588100003,1190.195588100003,1190.195588100003,8,74,64,67,64,56,None,None,,,[],[],[],[],[],[],[],0.6,1,1192.7157672999892,1192.7157672999892,1192.7157672999892,1192.7157672999892,1192.7157672999892,1192.7157672999892,1192.7157672999892,1192.7157672999892,0.007403800031170249,1192.7157672999892,70,[0.13148148148148148],[-0.287962962962963],[1],[0],[0],[6.030864599859342],['tijiao_random_2'],1198.7590903001837,1198.7590903001837,1198.7590903001837,1198.7590903001837,6.074074074074074,2.569704999914393,1201.3473929001484,1202.9269439000636,,,,,,,,,,,,,,,,,,,,,281,m,18,2023-04-05_15h08.18.386,RL,2022.2.4,60.1210115977128,
1,-0.3,-0.225,0,78,78,78,,,,,,,,,,None,1202.9269439000636,1202.9269439000636,1202.9269439000636,1202.9269439000636,1202.9269439000636,1202.9269439000636,j,0.36513859988190234,1203.3109635000583,1203.3109635000583,1203.3109635000583,1203.3109635000583,1203.3109635000583,1203.3109635000583,1203.6089805001393,1203.6089805001393,1204.7226311999839,1204.7226311999839,1204.7226311999839,1204.7226311999839,1204.7226311999839,1204.7226311999839,1204.7226311999839,1204.7226311999839,1204.7226311999839,1204.7226311999839,1204.7226311999839,1204.7226311999839,1204.7226311999839,1204.7226311999839,1204.7226311999839,1204.7226311999839,1204.7226311999839,7,62,59,78,78,72,5.0,2.176917799981311,,,[],[],[],[],[],[],[],0.2,3,,,,,,,,,,,,[],[],[],[],[],[],[],,,,,None,None,1209.4375448999926,1211.2877044000197,1207.2315142001025,1207.2315142001025,1207.2315142001025,1207.2315142001025,1207.2315142001025,,,,,,,,,,,,,,,,281,m,18,2023-04-05_15h08.18.386,RL,2022.2.4,60.1210115977128,
0,0.3,0.225,0,79,79,79,,,,,,,,,,None,1211.2877044000197,1211.2877044000197,1211.2877044000197,1211.2877044000197,1211.2877044000197,1211.2877044000197,f,0.3931756999809295,1211.7043125999626,1211.7043125999626,1211.7043125999626,1211.7043125999626,1211.7043125999626,1211.7043125999626,1212.002902300097,1212.002902300097,1212.9169138001744,1212.9169138001744,1212.9169138001744,1212.9169138001744,1212.9169138001744,1212.9169138001744,1212.9169138001744,1212.9169138001744,1212.9169138001744,1212.9169138001744,1212.9169138001744,1212.9169138001744,1212.9169138001744,1212.9169138001744,1212.9169138001744,1212.9169138001744,1212.9169138001744,11,63,56,73,63,59,None,None,80,80,[-0.03611111111111111],[-0.29907407407407405],[1],[0],[0],[5.658326900098473],['tijiao'],-0.2,0,,,,,,,,,,,,[],[],[],[],[],[],[],1221.1079442000482,1221.1079442000482,1221.1079442000482,1221.1079442000482,8.87037037037037,1.9614434000104666,1223.0879051000811,1224.6681847001892,,,,,,1215.4280173999723,1215.4280173999723,1215.4280173999723,1215.4280173999723,1215.4280173999723,1215.4280173999723,1215.4280173999723,1215.4280173999723,0.006571500096470118,1215.4280173999723,,,,,,281,m,18,2023-04-05_15h08.18.386,RL,2022.2.4,60.1210115977128,
1,-0.3,-0.225,0,80,80,80,,,,,,,,,,None,1224.6681847001892,1224.6681847001892,1224.6681847001892,1224.6681847001892,1224.6681847001892,1224.6681847001892,f,0.24088700022548437,1224.9362918001134,1224.9362918001134,1224.9362918001134,1224.9362918001134,1224.9362918001134,1224.9362918001134,1225.2331904000603,1225.2331904000603,1226.629285100149,1226.629285100149,1226.629285100149,1226.629285100149,1226.629285100149,1226.629285100149,1226.629285100149,1226.629285100149,1226.629285100149,1226.629285100149,1226.629285100149,1226.629285100149,1226.629285100149,1226.629285100149,1226.629285100149,1226.629285100149,1226.629285100149,14,59,57,80,59,51,4.0,3.8558769000228494,,,[],[],[],[],[],[],[],0.2,2,,,,,,,,,,,,[],[],[],[],[],[],[],,,,,None,None,1233.0220066001639,1235.0066565000452,1229.1383261000738,1229.1383261000738,1229.1383261000738,1229.1383261000738,1229.1383261000738,,,,,,,,,,,,,,,,281,m,18,2023-04-05_15h08.18.386,RL,2022.2.4,60.1210115977128,
0,0.3,0.225,0,81,81,81,,,,,,,,,,None,1235.0066565000452,1235.0066565000452,1235.0066565000452,1235.0066565000452,1235.0066565000452,1235.0066565000452,r,0.2743186999578029,1235.3074316000566,1235.3074316000566,1235.3074316000566,1235.3074316000566,1235.3074316000566,1235.3074316000566,1235.6051533999853,1235.6051533999853,1236.5192734000739,1236.5192734000739,1236.5192734000739,1236.5192734000739,1236.5192734000739,1236.5192734000739,1236.5192734000739,1236.5192734000739,1236.5192734000739,1236.5192734000739,1236.5192734000739,1236.5192734000739,1236.5192734000739,1236.5192734000739,1236.5192734000739,1236.5192734000739,1236.5192734000739,21,62,66,72,21,60,None,None,,,[],[],[],[],[],[],[],0.2,1,1239.0381472001318,1239.0381472001318,1239.0381472001318,1239.0381472001318,1239.0381472001318,1239.0381472001318,1239.0381472001318,1239.0381472001318,0.006378100020810962,1239.0381472001318,70,[-0.08425925925925926],[-0.26944444444444443],[1],[0],[0],[3.6549696000292897],['tijiao_random_2'],1242.705213200068,1242.705213200068,1242.705213200068,1242.705213200068,8.027777777777777,2.6862320001237094,1245.410465199966,1247.3392194001935,,,,,,,,,,,,,,,,,,,,,281,m,18,2023-04-05_15h08.18.386,RL,2022.2.4,60.1210115977128,
1,-0.3,-0.225,0,82,82,82,,,,,,,,,,None,1247.3392194001935,1247.3392194001935,1247.3392194001935,1247.3392194001935,1247.3392194001935,1247.3392194001935,i,0.48198779998347163,1247.8404316001106,1247.8404316001106,1247.8404316001106,1247.8404316001106,1247.8404316001106,1247.8404316001106,1248.137596100103,1248.137596100103,1250.0321955000982,1250.0321955000982,1250.049144800054,1250.049144800054,1250.049144800054,1250.049144800054,1250.049144800054,1250.049144800054,1250.049144800054,1250.049144800054,1250.049144800054,1250.049144800054,1250.049144800054,1250.049144800054,1250.049144800054,1250.049144800054,1250.049144800054,23,64,54,71,54,54,None,None,60,60,[-0.025925925925925925],[-0.2824074074074074],[1],[0],[0],[6.272836400195956],['tijiao'],0.2,0,,,,,,,,,,,,[],[],[],[],[],[],[],1258.85317090014,1258.85317090014,1258.85317090014,1258.85317090014,8.027777777777777,2.062593499897048,1260.9346605001483,1262.8970829001628,,,,,,1252.5605113999918,1252.5605113999918,1252.5605113999918,1252.5605113999918,1252.5605113999918,1252.5605113999918,1252.5605113999918,1252.5605113999918,0.007037599803879857,1252.5605113999918,,,,,,281,m,18,2023-04-05_15h08.18.386,RL,2022.2.4,60.1210115977128,
0,0.3,0.225,0,83,83,83,,,,,,,,,,None,1262.8970829001628,1262.8970829001628,1262.8970829001628,1262.8970829001628,1262.8970829001628,1262.8970829001628,i,0.23144859983585775,1263.1497919000685,1263.1497919000685,1263.1497919000685,1263.1497919000685,1263.1497919000685,1263.1497919000685,1263.4458976001479,1263.4458976001479,1265.0414613999892,1265.0414613999892,1265.0414613999892,1265.0414613999892,1265.0414613999892,1265.0414613999892,1265.0414613999892,1265.0414613999892,1265.0414613999892,1265.0414613999892,1265.0414613999892,1265.0414613999892,1265.0414613999892,1265.0414613999892,1265.0414613999892,1265.0414613999892,1265.0414613999892,22,48,57,59,57,60,3.0,1.9774054000154138,,,[],[],[],[],[],[],[],0.6,2,,,,,,,,,,,,[],[],[],[],[],[],[],,,,,None,None,1269.5541944999713,1271.523173399968,1267.5501692001708,1267.5501692001708,1267.5501692001708,1267.5501692001708,1267.5501692001708,,,,,,,,,,,,,,,,281,m,18,2023-04-05_15h08.18.386,RL,2022.2.4,60.1210115977128,
1,-0.3,-0.225,0,84,84,84,,,,,,,,,,None,1271.523173399968,1271.523173399968,1271.523173399968,1271.523173399968,1271.523173399968,1271.523173399968,j,0.5738226999528706,1272.123818299966,1272.123818299966,1272.123818299966,1272.123818299966,1272.123818299966,1272.123818299966,1272.4210022999905,1272.4210022999905,1273.917051000055,1273.917051000055,1273.933785600122,1273.933785600122,1273.933785600122,1273.933785600122,1273.933785600122,1273.933785600122,1273.933785600122,1273.933785600122,1273.933785600122,1273.933785600122,1273.933785600122,1273.933785600122,1273.933785600122,1273.933785600122,1273.933785600122,25,57,56,69,69,61,None,None,70,70,[0.026851851851851852],[-0.25],[1],[0],[0],[5.226030699908733],['tijiao'],-0.2,0,,,,,,,,,,,,[],[],[],[],[],[],[],1281.6909354999661,1281.6909354999661,1281.6909354999661,1281.6909354999661,7.796296296296296,1.7133917999453843,1283.423378400039,1284.9698723000474,,,,,,1276.4452337999828,1276.4452337999828,1276.4452337999828,1276.4452337999828,1276.4452337999828,1276.4452337999828,1276.4452337999828,1276.4452337999828,0.006362800020724535,1276.4452337999828,,,,,,281,m,18,2023-04-05_15h08.18.386,RL,2022.2.4,60.1210115977128,
0,0.3,0.225,0,85,85,85,,,,,,,,,,None,1284.9698723000474,1284.9698723000474,1284.9698723000474,1284.9698723000474,1284.9698723000474,1284.9698723000474,j,0.25678439997136593,1285.2548883000854,1285.2548883000854,1285.2548883000854,1285.2548883000854,1285.2548883000854,1285.2548883000854,1285.5521800999995,1285.5521800999995,1287.4634805000387,1287.4634805000387,1287.4634805000387,1287.4634805000387,1287.4634805000387,1287.4634805000387,1287.4634805000387,1287.4634805000387,1287.4634805000387,1287.4634805000387,1287.4634805000387,1287.4634805000387,1287.4634805000387,1287.4634805000387,1287.4634805000387,1287.4634805000387,1287.4634805000387,32,54,66,69,69,67,6.0,2.3763197001535445,,,[],[],[],[],[],[],[],-0.6,3,,,,,,,,,,,,[],[],[],[],[],[],[],,,,,None,None,1292.3751770001836,1293.9291247001383,1289.9720749000553,1289.9720749000553,1289.9720749000553,1289.9720749000553,1289.9720749000553,,,,,,,,,,,,,,,,281,m,18,2023-04-05_15h08.18.386,RL,2022.2.4,60.1210115977128,
1,-0.3,-0.225,0,86,86,86,,,,,,,,,,None,1293.9291247001383,1293.9291247001383,1293.9291247001383,1293.9291247001383,1293.9291247001383,1293.9291247001383,i,0.5703749000094831,1294.5276852999814,1294.5276852999814,1294.5276852999814,1294.5276852999814,1294.5276852999814,1294.5276852999814,1294.8269591999706,1294.8269591999706,1296.4889130000956,1296.4889130000956,1296.4889130000956,1296.4889130000956,1296.4889130000956,1296.4889130000956,1296.4889130000956,1296.4889130000956,1296.4889130000956,1296.4889130000956,1296.4889130000956,1296.4889130000956,1296.4889130000956,1296.4889130000956,1296.4889130000956,1296.4889130000956,1296.4889130000956,19,55,63,68,63,63,None,None,,,[],[],[],[],[],[],[],-0.2,1,1299.0091970001813,1299.0091970001813,1299.0091970001813,1299.0091970001813,1299.0091970001813,1299.0091970001813,1299.0091970001813,1299.0091970001813,0.006974699907004833,1299.0091970001813,50,[0.019444444444444445],[-0.2796296296296296],[1],[0],[0],[4.019265100127086],['tijiao_random_2'],1303.04028690001,1303.04028690001,1303.04028690001,1303.04028690001,8.046296296296296,2.1051714001223445,1305.1640447000973,1306.8935408999678,,,,,,,,,,,,,,,,,,,,,281,m,18,2023-04-05_15h08.18.386,RL,2022.2.4,60.1210115977128,
0,0.3,0.225,0,87,87,87,,,,,,,,,,None,1306.8935408999678,1306.8935408999678,1306.8935408999678,1306.8935408999678,1306.8935408999678,1306.8935408999678,f,0.24102229997515678,1307.1620130001102,1307.1620130001102,1307.1620130001102,1307.1620130001102,1307.1620130001102,1307.1620130001102,1307.4590865001082,1307.4590865001082,1308.6889798999764,1308.6889798999764,1308.7056828001514,1308.7056828001514,1308.7056828001514,1308.7056828001514,1308.7056828001514,1308.7056828001514,1308.7056828001514,1308.7056828001514,1308.7056828001514,1308.7056828001514,1308.7056828001514,1308.7056828001514,1308.7056828001514,1308.7056828001514,1308.7056828001514,16,54,71,74,54,57,None,None,,,[],[],[],[],[],[],[],-0.6,1,1311.2269375000615,1311.2269375000615,1311.2269375000615,1311.2269375000615,1311.2269375000615,1311.2269375000615,1311.2269375000615,1311.2269375000615,0.006844700081273913,1311.2269375000615,10,[-0.030555555555555555],[-0.30185185185185187],[1],[0],[0],[4.450068400008604],['tijiao_random_2'],1315.6902673000004,1315.6902673000004,1315.6902673000004,1315.6902673000004,9.00925925925926,2.203838200075552,1317.9128056999762,1319.4427895001136,,,,,,,,,,,,,,,,,,,,,281,m,18,2023-04-05_15h08.18.386,RL,2022.2.4,60.1210115977128,
1,-0.3,-0.225,0,88,88,88,,,,,,,,,,None,1319.4427895001136,1319.4427895001136,1319.4427895001136,1319.4427895001136,1319.4427895001136,1319.4427895001136,i,0.5156306000426412,1319.9928018001374,1319.9928018001374,1319.9928018001374,1319.9928018001374,1319.9928018001374,1319.9928018001374,1320.2905143001117,1320.2905143001117,1321.4542835000902,1321.4542835000902,1321.4542835000902,1321.4542835000902,1321.4542835000902,1321.4542835000902,1321.4542835000902,1321.4542835000902,1321.4542835000902,1321.4542835000902,1321.4542835000902,1321.4542835000902,1321.4542835000902,1321.4542835000902,1321.4542835000902,1321.4542835000902,1321.4542835000902,31,48,74,65,74,59,6.0,1.445456000044942,,,[],[],[],[],[],[],[],0.2,3,,,,,,,,,,,,[],[],[],[],[],[],[],,,,,None,None,1325.4349826001562,1327.1715516000986,1323.9628958001267,1323.9628958001267,1323.9628958001267,1323.9628958001267,1323.9628958001267,,,,,,,,,,,,,,,,281,m,18,2023-04-05_15h08.18.386,RL,2022.2.4,60.1210115977128,
