bandit0,black_x_pos_random,black_y_pos_random,trials.thisRepN,trials.thisTrialN,trials.thisN,trials.thisIndex,instru_img1.started,instru_resp.started,instru_resp.keys,instru_resp.rt,instru_img2.started,instru_resp2.started,instru_resp2.keys,instru_resp2.rt,fixbefore_2.started,rest_response.keys,red.started,green.started,yellow.started,blue.started,choose_bandit.started,Fixation.started,choose_bandit.keys,choose_bandit.rt,black.started,red_2.started,green_2.started,yellow_2.started,blue_2.started,fixation_2.started,docs.started,wait_playerB.started,docs.stopped,wait_playerB.stopped,black.stopped,red_2.stopped,green_2.stopped,yellow_2.stopped,blue_2.stopped,fixation_2.stopped,black_com.started,reward_sub.started,palyerb.started,reward__sub.started,compare.started,red_compare.started,green_com.started,yellow_com.started,blue_com.started,rewardyellow,rewardred,rewardblue,rewardgreen,subchoose,playerb,slider.response,slider.rt,expectself.started,expect_self_black.started,expect_self.started,expect_self_red.started,expect_self_green.started,expect_self_yellow.started,expect_self_blue.started,tijiao.started,tijiao_click.started,check.started,expectself.text,value_expect_self,tijiao_click.x,tijiao_click.y,tijiao_click.leftButton,tijiao_click.midButton,tijiao_click.rightButton,tijiao_click.time,tijiao_click.clicked_name,random_whicharm,whether_ask,expect_random_3.text,tijiao_random.x,tijiao_random.y,tijiao_random.leftButton,tijiao_random.midButton,tijiao_random.rightButton,tijiao_random.time,tijiao_random.clicked_name,slider_2.started,image_7.started,confi.started,notconfi.started,slider_2.response,slider_2.rt,intertrialfix.started,intertrialfix.stopped,image_3.started,slider.started,text.started,image_4.started,image_5.started,jiantou_random.started,expect_red.started,expect_green.started,expect_yellow.started,expect_blue.started,expect_random_2.started,expect_random_3.started,tijiao_random_2.started,tijiao_random.started,check_2.started,rest_image.started,rest_response.started,rest_response.rt,bigx.started,bigx.stopped,participant,Gender,Age,date,expName,psychopyVersion,frameRate,
,,,,,,,34.40630395000335,34.40630395000335,space,25.502820551992045,,,,,,,,,,,,,,,,,,,,,,,,,,,,,,,,,,,,,,,,,,,,,,,,,,,,,,,,,,,,,,,,,,,,,,,,,,,,,,,,,,,,,,,,,,,,,,,,,,,,,,,,,282,f,23,2023-04-05_15h08.08.937,RL,2022.2.4,59.8594826185611,
,,,,,,,,,,,59.96017882900196,59.96017882900196,s,42.99341366298904,,,,,,,,,,,,,,,,,,,,,,,,,,,,,,,,,,,,,,,,,,,,,,,,,,,,,,,,,,,,,,,,,,,,,,,,,,,,,,,,,,,,,,,,,,,,,,,,,,,,,282,f,23,2023-04-05_15h08.08.937,RL,2022.2.4,59.8594826185611,
1,-0.3,-0.225,0,0,0,0,,,,,,,,,102.98623963700084,None,104.03627934399992,104.03627934399992,104.03627934399992,104.03627934399992,104.03627934399992,104.03627934399992,r,0.8239814880071208,104.93465164699592,104.93465164699592,104.93465164699592,104.93465164699592,104.93465164699592,104.93465164699592,105.18642959599674,105.18642959599674,106.2009356339986,106.2009356339986,106.26306446599483,106.26306446599483,106.26306446599483,106.26306446599483,106.26306446599483,106.26306446599483,106.26306446599483,106.26306446599483,106.26306446599483,106.26306446599483,106.26306446599483,106.26306446599483,106.26306446599483,106.26306446599483,106.26306446599483,69,33,41,51,69,30,None,None,108.80646292099846,108.80646292099846,108.80646292099846,108.80646292099846,108.80646292099846,108.80646292099846,108.80646292099846,108.80646292099846,0.01281996100442484,108.80646292099846,60,60,[0.0525],[-0.29375],[1],[0],[0],[5.875104024002212],['tijiao'],0.6,0,,[],[],[],[],[],[],[],114.90285374299856,114.90285374299856,114.90285374299856,114.90285374299856,8.0,2.4155593420000514,117.32053772799554,119.23256179899909,,,,,,,,,,,,,,,,,,,,,282,f,23,2023-04-05_15h08.08.937,RL,2022.2.4,59.8594826185611,
0,0.3,0.225,0,1,1,1,,,,,,,,,,None,119.23256179899909,119.23256179899909,119.23256179899909,119.23256179899909,119.23256179899909,119.23256179899909,i,0.5022046209924156,119.77631751500303,119.77631751500303,119.77631751500303,119.77631751500303,119.77631751500303,119.77631751500303,120.04475068699685,120.04475068699685,120.881989194997,120.881989194997,120.92681443699985,120.92681443699985,120.92681443699985,120.92681443699985,120.92681443699985,120.92681443699985,120.92681443699985,120.92681443699985,120.92681443699985,120.92681443699985,120.92681443699985,120.92681443699985,120.92681443699985,120.92681443699985,120.92681443699985,58,33,38,52,38,67,None,None,123.4535600879899,123.4535600879899,123.4535600879899,123.4535600879899,123.4535600879899,123.4535600879899,123.4535600879899,123.4535600879899,0.010309061006410047,123.4535600879899,55,55,[0.07125],[-0.29125],[1],[0],[0],[3.849785010999767],['tijiao'],0.6,0,,[],[],[],[],[],[],[],127.33208274000208,127.33208274000208,127.33208274000208,127.33208274000208,7.025,2.507765468006255,129.85936589399353,131.75434701799531,,,,,,,,,,,,,,,,,,,,,282,f,23,2023-04-05_15h08.08.937,RL,2022.2.4,59.8594826185611,
1,-0.3,-0.225,0,2,2,2,,,,,,,,,,None,131.75434701799531,131.75434701799531,131.75434701799531,131.75434701799531,131.75434701799531,131.75434701799531,f,0.5840814920084085,132.3802713729965,132.3802713729965,132.3802713729965,132.3802713729965,132.3802713729965,132.3802713729965,132.65198194299592,132.65198194299592,134.1286808379955,134.1286808379955,134.1707963779918,134.1707963779918,134.1707963779918,134.1707963779918,134.1707963779918,134.1707963779918,134.1707963779918,134.1707963779918,134.1707963779918,134.1707963779918,134.1707963779918,134.1707963779918,134.1707963779918,134.1707963779918,134.1707963779918,54,36,38,52,36,66,2.0,2.5894256079918705,,,,,,,,,,,,,[],[],[],[],[],[],[],0.2,3,,[],[],[],[],[],[],[],,,,,None,None,139.32208882000123,141.1426907540008,136.68021856699488,136.68021856699488,136.68021856699488,136.68021856699488,136.68021856699488,,,,,,,,,,,,,,,,282,f,23,2023-04-05_15h08.08.937,RL,2022.2.4,59.8594826185611,
0,0.3,0.225,0,3,3,3,,,,,,,,,,None,141.1426907540008,141.1426907540008,141.1426907540008,141.1426907540008,141.1426907540008,141.1426907540008,i,0.8321709599986207,142.01675515799434,142.01675515799434,142.01675515799434,142.01675515799434,142.01675515799434,142.01675515799434,142.28476650000084,142.28476650000084,143.41385895699204,143.41385895699204,143.459399415995,143.459399415995,143.459399415995,143.459399415995,143.459399415995,143.459399415995,143.459399415995,143.459399415995,143.459399415995,143.459399415995,143.459399415995,143.459399415995,143.459399415995,143.459399415995,143.459399415995,58,34,29,53,29,60,2.0,2.6414067709993105,,,,,,,,,,,,,[],[],[],[],[],[],[],-0.6,2,,[],[],[],[],[],[],[],,,,,None,None,148.64997806499014,150.42944758899102,145.96523761599383,145.96523761599383,145.96523761599383,145.96523761599383,145.96523761599383,,,,,,,,,,,,,,,,282,f,23,2023-04-05_15h08.08.937,RL,2022.2.4,59.8594826185611,
1,-0.3,-0.225,0,4,4,4,,,,,,,,,,None,150.42944758899102,150.42944758899102,150.42944758899102,150.42944758899102,150.42944758899102,150.42944758899102,r,0.49082276699482463,150.9720264189964,150.9720264189964,150.9720264189964,150.9720264189964,150.9720264189964,150.9720264189964,151.23948845799896,151.23948845799896,153.1548866219964,153.1548866219964,153.19672226499824,153.19672226499824,153.19672226499824,153.19672226499824,153.19672226499824,153.19672226499824,153.19672226499824,153.19672226499824,153.19672226499824,153.19672226499824,153.19672226499824,153.19672226499824,153.19672226499824,153.19672226499824,153.19672226499824,51,29,42,49,51,56,3.0,2.706042019999586,,,,,,,,,,,,,[],[],[],[],[],[],[],0.2,3,,[],[],[],[],[],[],[],,,,,None,None,158.455689918992,160.10093784399214,155.70501761398918,155.70501761398918,155.70501761398918,155.70501761398918,155.70501761398918,,,,,,,,,,,,,,,,282,f,23,2023-04-05_15h08.08.937,RL,2022.2.4,59.8594826185611,
0,0.3,0.225,0,5,5,5,,,,,,,,,,None,160.10093784399214,160.10093784399214,160.10093784399214,160.10093784399214,160.10093784399214,160.10093784399214,i,0.5882381499977782,160.72570563798945,160.72570563798945,160.72570563798945,160.72570563798945,160.72570563798945,160.72570563798945,160.99385367899959,160.99385367899959,162.56846956998925,162.56846956998925,162.6102508329932,162.6102508329932,162.6102508329932,162.6102508329932,162.6102508329932,162.6102508329932,162.6102508329932,162.6102508329932,162.6102508329932,162.6102508329932,162.6102508329932,162.6102508329932,162.6102508329932,162.6102508329932,162.6102508329932,50,38,47,45,47,33,None,None,165.13021953200223,165.13021953200223,165.13021953200223,165.13021953200223,165.13021953200223,165.13021953200223,165.13021953200223,165.13021953200223,0.008564686999307014,165.13021953200223,78,78,[0.10375],[-0.285],[1],[0],[0],[3.375549278993276],['tijiao'],-0.6,0,,[],[],[],[],[],[],[],168.5387652979989,168.5387652979989,168.5387652979989,168.5387652979989,6.012499999999999,1.911444572993787,170.46574783499818,172.35756474899244,,,,,,,,,,,,,,,,,,,,,282,f,23,2023-04-05_15h08.08.937,RL,2022.2.4,59.8594826185611,
1,-0.3,-0.225,0,6,6,6,,,,,,,,,,None,172.35756474899244,172.35756474899244,172.35756474899244,172.35756474899244,172.35756474899244,172.35756474899244,j,0.6921960699983174,173.1016632009996,173.1016632009996,173.1016632009996,173.1016632009996,173.1016632009996,173.1016632009996,173.3737539970025,173.3737539970025,175.33435945499514,175.33435945499514,175.3754024559894,175.3754024559894,175.3754024559894,175.3754024559894,175.3754024559894,175.3754024559894,175.3754024559894,175.3754024559894,175.3754024559894,175.3754024559894,175.3754024559894,175.3754024559894,175.3754024559894,175.3754024559894,175.3754024559894,46,43,43,51,51,63,3.0,1.9659588759968756,,,,,,,,,,,,,[],[],[],[],[],[],[],0.2,2,,[],[],[],[],[],[],[],,,,,None,None,179.88241258799098,181.77812311598973,177.87473118699563,177.87473118699563,177.87473118699563,177.87473118699563,177.87473118699563,,,,,,,,,,,,,,,,282,f,23,2023-04-05_15h08.08.937,RL,2022.2.4,59.8594826185611,
0,0.3,0.225,0,7,7,7,,,,,,,,,,None,181.77812311598973,181.77812311598973,181.77812311598973,181.77812311598973,181.77812311598973,181.77812311598973,f,0.43191346000821795,182.2526881340018,182.2526881340018,182.2526881340018,182.2526881340018,182.2526881340018,182.2526881340018,182.5206918999902,182.5206918999902,183.8422208589909,183.8422208589909,183.88261647499166,183.88261647499166,183.88261647499166,183.88261647499166,183.88261647499166,183.88261647499166,183.88261647499166,183.88261647499166,183.88261647499166,183.88261647499166,183.88261647499166,183.88261647499166,183.88261647499166,183.88261647499166,183.88261647499166,58,43,46,53,43,58,2.0,1.6913634929951513,,,,,,,,,,,,,[],[],[],[],[],[],[],-0.6,3,,[],[],[],[],[],[],[],,,,,None,None,188.11908547699568,190.09799203499279,186.38502669399895,186.38502669399895,186.38502669399895,186.38502669399895,186.38502669399895,,,,,,,,,,,,,,,,282,f,23,2023-04-05_15h08.08.937,RL,2022.2.4,59.8594826185611,
1,-0.3,-0.225,0,8,8,8,,,,,,,,,,None,190.09799203499279,190.09799203499279,190.09799203499279,190.09799203499279,190.09799203499279,190.09799203499279,r,0.4846985720068915,190.62064827399445,190.62064827399445,190.62064827399445,190.62064827399445,190.62064827399445,190.62064827399445,190.89200900899596,190.89200900899596,191.7743770590023,191.7743770590023,191.81469598200056,191.81469598200056,191.81469598200056,191.81469598200056,191.81469598200056,191.81469598200056,191.81469598200056,191.81469598200056,191.81469598200056,191.81469598200056,191.81469598200056,191.81469598200056,191.81469598200056,191.81469598200056,191.81469598200056,53,30,44,64,53,28,None,None,194.34034718299517,194.34034718299517,194.34034718299517,194.34034718299517,194.34034718299517,194.34034718299517,194.34034718299517,194.34034718299517,0.008700106001924723,194.34034718299517,47,47,[0.05875],[-0.2975],[1],[0],[0],[3.637843624004745],['tijiao'],0.2,0,,[],[],[],[],[],[],[],198.01297417999012,198.01297417999012,198.01297417999012,198.01297417999012,5.975,2.5139792389963986,200.54495920200134,202.42239020799752,,,,,,,,,,,,,,,,,,,,,282,f,23,2023-04-05_15h08.08.937,RL,2022.2.4,59.8594826185611,
0,0.3,0.225,0,9,9,9,,,,,,,,,,None,202.42239020799752,202.42239020799752,202.42239020799752,202.42239020799752,202.42239020799752,202.42239020799752,i,0.4867268390080426,202.95985306199873,202.95985306199873,202.95985306199873,202.95985306199873,202.95985306199873,202.95985306199873,203.230323167998,203.230323167998,204.64217633700173,204.64217633700173,204.66634183299902,204.66634183299902,204.66634183299902,204.66634183299902,204.66634183299902,204.66634183299902,204.66634183299902,204.66634183299902,204.66634183299902,204.66634183299902,204.66634183299902,204.66634183299902,204.66634183299902,204.66634183299902,204.66634183299902,51,31,45,54,45,72,2.0,1.35160323700984,,,,,,,,,,,,,[],[],[],[],[],[],[],-0.2,3,,[],[],[],[],[],[],[],,,,,None,None,208.56539598199015,210.24134356700233,207.16928046000248,207.16928046000248,207.16928046000248,207.16928046000248,207.16928046000248,,,,,,,,,,,,,,,,282,f,23,2023-04-05_15h08.08.937,RL,2022.2.4,59.8594826185611,
1,-0.3,-0.225,0,10,10,10,,,,,,,,,,None,210.24134356700233,210.24134356700233,210.24134356700233,210.24134356700233,210.24134356700233,210.24134356700233,r,0.574113438007771,210.86233156699745,210.86233156699745,210.86233156699745,210.86233156699745,210.86233156699745,210.86233156699745,211.13627222499053,211.13627222499053,212.20073364800191,212.20073364800191,212.24188639599015,212.24188639599015,212.24188639599015,212.24188639599015,212.24188639599015,212.24188639599015,212.24188639599015,212.24188639599015,212.24188639599015,212.24188639599015,212.24188639599015,212.24188639599015,212.24188639599015,212.24188639599015,212.24188639599015,53,42,51,56,53,64,3.0,1.6011340699915309,,,,,,,,,,,,,[],[],[],[],[],[],[],-0.2,3,,[],[],[],[],[],[],[],,,,,None,None,216.39719214900106,218.1291390510014,214.75163924199296,214.75163924199296,214.75163924199296,214.75163924199296,214.75163924199296,,,,,,,,,,,,,,,,282,f,23,2023-04-05_15h08.08.937,RL,2022.2.4,59.8594826185611,
0,0.3,0.225,0,11,11,11,,,,,,,,,,None,218.1291390510014,218.1291390510014,218.1291390510014,218.1291390510014,218.1291390510014,218.1291390510014,j,0.5690612159960438,218.7480802529899,218.7480802529899,218.7480802529899,218.7480802529899,218.7480802529899,218.7480802529899,219.0204203059984,219.0204203059984,220.0847539769893,220.0847539769893,220.10872635499982,220.10872635499982,220.10872635499982,220.10872635499982,220.10872635499982,220.10872635499982,220.10872635499982,220.10872635499982,220.10872635499982,220.10872635499982,220.10872635499982,220.10872635499982,220.10872635499982,220.10872635499982,220.10872635499982,50,30,45,59,59,64,2.0,1.3068631409987574,,,,,,,,,,,,,[],[],[],[],[],[],[],-0.2,2,,[],[],[],[],[],[],[],,,,,None,None,223.95641252599307,225.59923914200044,222.6051523329952,222.6051523329952,222.6051523329952,222.6051523329952,222.6051523329952,,,,,,,,,,,,,,,,282,f,23,2023-04-05_15h08.08.937,RL,2022.2.4,59.8594826185611,
1,-0.3,-0.225,0,12,12,12,,,,,,,,,,None,225.59923914200044,225.59923914200044,225.59923914200044,225.59923914200044,225.59923914200044,225.59923914200044,r,0.39103553599852603,226.03492967400234,226.03492967400234,226.03492967400234,226.03492967400234,226.03492967400234,226.03492967400234,226.30819886599784,226.30819886599784,227.2619912509981,227.2619912509981,227.30045340499782,227.30045340499782,227.30045340499782,227.30045340499782,227.30045340499782,227.30045340499782,227.30045340499782,227.30045340499782,227.30045340499782,227.30045340499782,227.30045340499782,227.30045340499782,227.30045340499782,227.30045340499782,227.30045340499782,51,40,53,60,51,66,1.0,2.8670484169997508,,,,,,,,,,,,,[],[],[],[],[],[],[],0.6,3,,[],[],[],[],[],[],[],,,,,None,None,232.7207996569923,234.25513332599076,229.81171959500352,229.81171959500352,229.81171959500352,229.81171959500352,229.81171959500352,,,,,,,,,,,,,,,,282,f,23,2023-04-05_15h08.08.937,RL,2022.2.4,59.8594826185611,
0,0.3,0.225,0,13,13,13,,,,,,,,,,None,234.25513332599076,234.25513332599076,234.25513332599076,234.25513332599076,234.25513332599076,234.25513332599076,f,0.5478692180040525,234.84407290199306,234.84407290199306,234.84407290199306,234.84407290199306,234.84407290199306,234.84407290199306,235.11252723100188,235.11252723100188,236.9204246599984,236.9204246599984,236.9416412999999,236.9416412999999,236.9416412999999,236.9416412999999,236.9416412999999,236.9416412999999,236.9416412999999,236.9416412999999,236.9416412999999,236.9416412999999,236.9416412999999,236.9416412999999,236.9416412999999,236.9416412999999,236.9416412999999,45,40,52,65,40,78,None,None,239.46071139498963,239.46071139498963,239.46071139498963,239.46071139498963,239.46071139498963,239.46071139498963,239.46071139498963,239.46071139498963,0.009339441996417008,239.46071139498963,45,45,[0.1375],[-0.27],[1],[0],[0],[3.8125977799936663],['tijiao'],0.6,0,,[],[],[],[],[],[],[],243.30393573599576,243.30393573599576,243.30393573599576,243.30393573599576,6.0249999999999995,1.2563687980000395,244.57929037699068,246.47597084999143,,,,,,,,,,,,,,,,,,,,,282,f,23,2023-04-05_15h08.08.937,RL,2022.2.4,59.8594826185611,
1,-0.3,-0.225,0,14,14,14,,,,,,,,,,None,246.47597084999143,246.47597084999143,246.47597084999143,246.47597084999143,246.47597084999143,246.47597084999143,r,0.6281354130042018,247.14999505400192,247.14999505400192,247.14999505400192,247.14999505400192,247.14999505400192,247.14999505400192,247.41989921499044,247.41989921499044,248.6059617449937,248.6059617449937,248.6437578969926,248.6437578969926,248.6437578969926,248.6437578969926,248.6437578969926,248.6437578969926,248.6437578969926,248.6437578969926,248.6437578969926,248.6437578969926,248.6437578969926,248.6437578969926,248.6437578969926,248.6437578969926,248.6437578969926,52,37,56,58,52,43,5.0,2.0828447620006045,,,,,,,,,,,,,[],[],[],[],[],[],[],0.2,3,,[],[],[],[],[],[],[],,,,,None,None,253.28320063299907,255.04625556500105,251.15645736300212,251.15645736300212,251.15645736300212,251.15645736300212,251.15645736300212,,,,,,,,,,,,,,,,282,f,23,2023-04-05_15h08.08.937,RL,2022.2.4,59.8594826185611,
0,0.3,0.225,0,15,15,15,,,,,,,,,,None,255.04625556500105,255.04625556500105,255.04625556500105,255.04625556500105,255.04625556500105,255.04625556500105,j,0.5231854159937939,255.6204105939978,255.6204105939978,255.6204105939978,255.6204105939978,255.6204105939978,255.6204105939978,255.88661136699375,255.88661136699375,257.61377666499175,257.61377666499175,257.65301284099405,257.65301284099405,257.65301284099405,257.65301284099405,257.65301284099405,257.65301284099405,257.65301284099405,257.65301284099405,257.65301284099405,257.65301284099405,257.65301284099405,257.65301284099405,257.65301284099405,257.65301284099405,257.65301284099405,46,45,60,64,64,69,4.0,2.5290733050060226,,,,,,,,,,,,,[],[],[],[],[],[],[],0.6,3,,[],[],[],[],[],[],[],,,,,None,None,262.73892474299646,264.5346177409956,260.1639612059953,260.1639612059953,260.1639612059953,260.1639612059953,260.1639612059953,,,,,,,,,,,,,,,,282,f,23,2023-04-05_15h08.08.937,RL,2022.2.4,59.8594826185611,
1,-0.3,-0.225,0,16,16,16,,,,,,,,,,None,264.5346177409956,264.5346177409956,264.5346177409956,264.5346177409956,264.5346177409956,264.5346177409956,i,0.4891714880068321,265.07109166999,265.07109166999,265.07109166999,265.07109166999,265.07109166999,265.07109166999,265.3438585589902,265.3438585589902,266.2734154899954,266.2734154899954,266.2974470999907,266.2974470999907,266.2974470999907,266.2974470999907,266.2974470999907,266.2974470999907,266.2974470999907,266.2974470999907,266.2974470999907,266.2974470999907,266.2974470999907,266.2974470999907,266.2974470999907,266.2974470999907,266.2974470999907,53,32,50,69,50,53,None,None,268.81150261899165,268.81150261899165,268.81150261899165,268.81150261899165,268.81150261899165,268.81150261899165,268.81150261899165,268.81150261899165,0.008479333002469502,268.81150261899165,65,65,[-0.0225],[-0.2775],[1],[0],[0],[4.8000707020109985],['tijiao'],-0.6,0,,[],[],[],[],[],[],[],273.6432489169965,273.6432489169965,273.6432489169965,273.6432489169965,6.0875,2.033231118999538,275.6943738229893,277.3906526770006,,,,,,,,,,,,,,,,,,,,,282,f,23,2023-04-05_15h08.08.937,RL,2022.2.4,59.8594826185611,
0,0.3,0.225,0,17,17,17,,,,,,,,,,None,277.3906526770006,277.3906526770006,277.3906526770006,277.3906526770006,277.3906526770006,277.3906526770006,i,0.5957899429922691,278.0236145300005,278.0236145300005,278.0236145300005,278.0236145300005,278.0236145300005,278.0236145300005,278.2993589169928,278.2993589169928,279.66989403199113,279.66989403199113,279.7090914869914,279.7090914869914,279.7090914869914,279.7090914869914,279.7090914869914,279.7090914869914,279.7090914869914,279.7090914869914,279.7090914869914,279.7090914869914,279.7090914869914,279.7090914869914,279.7090914869914,279.7090914869914,279.7090914869914,64,42,64,68,64,70,None,None,282.2361455549981,282.2361455549981,282.2361455549981,282.2361455549981,282.2361455549981,282.2361455549981,282.2361455549981,282.2361455549981,0.008289264995255508,282.2361455549981,60,60,[0.09],[-0.31625],[1],[0],[0],[3.207447573004174],['tijiao'],0.2,0,,[],[],[],[],[],[],[],285.47458461399947,285.47458461399947,285.47458461399947,285.47458461399947,6.1125,2.6952732270001434,288.1893491669907,290.09696183099004,,,,,,,,,,,,,,,,,,,,,282,f,23,2023-04-05_15h08.08.937,RL,2022.2.4,59.8594826185611,
1,-0.3,-0.225,0,18,18,18,,,,,,,,,,None,290.09696183099004,290.09696183099004,290.09696183099004,290.09696183099004,290.09696183099004,290.09696183099004,r,0.6461733050091425,290.78217541699996,290.78217541699996,290.78217541699996,290.78217541699996,290.78217541699996,290.78217541699996,291.05376584400074,291.05376584400074,292.62214000899985,292.62214000899985,292.66344683099305,292.66344683099305,292.66344683099305,292.66344683099305,292.66344683099305,292.66344683099305,292.66344683099305,292.66344683099305,292.66344683099305,292.66344683099305,292.66344683099305,292.66344683099305,292.66344683099305,292.66344683099305,292.66344683099305,71,44,55,60,71,66,5.0,1.8872282410011394,,,,,,,,,,,,,[],[],[],[],[],[],[],0.6,3,,[],[],[],[],[],[],[],,,,,None,None,297.10305578699626,298.63378489000024,295.17206254698976,295.17206254698976,295.17206254698976,295.17206254698976,295.17206254698976,,,,,,,,,,,,,,,,282,f,23,2023-04-05_15h08.08.937,RL,2022.2.4,59.8594826185611,
0,0.3,0.225,0,19,19,19,,,,,,,,,,None,298.63378489000024,298.63378489000024,298.63378489000024,298.63378489000024,298.63378489000024,298.63378489000024,r,1.0077625939884456,299.69375272899924,299.69375272899924,299.69375272899924,299.69375272899924,299.69375272899924,299.69375272899924,299.96243851300096,299.96243851300096,301.75315144199703,301.75315144199703,301.79534573499404,301.79534573499404,301.79534573499404,301.79534573499404,301.79534573499404,301.79534573499404,301.79534573499404,301.79534573499404,301.79534573499404,301.79534573499404,301.79534573499404,301.79534573499404,301.79534573499404,301.79534573499404,301.79534573499404,54,42,50,67,54,46,6.0,2.581791210002848,,,,,,,,,,,,,[],[],[],[],[],[],[],0.6,2,,[],[],[],[],[],[],[],,,,,None,None,306.92502891400363,308.83714696299285,304.29863670100167,304.29863670100167,304.29863670100167,304.29863670100167,304.29863670100167,,,,,,,,,,,,,,,,282,f,23,2023-04-05_15h08.08.937,RL,2022.2.4,59.8594826185611,
1,-0.3,-0.225,0,20,20,20,,,,,,,,,,None,308.83714696299285,308.83714696299285,308.83714696299285,308.83714696299285,308.83714696299285,308.83714696299285,r,1.373154547996819,310.2613461939909,310.2613461939909,310.2613461939909,310.2613461939909,310.2613461939909,310.2613461939909,310.54739045500173,310.54739045500173,312.222396622994,312.222396622994,312.222396622994,312.222396622994,312.222396622994,312.222396622994,312.222396622994,312.222396622994,312.222396622994,312.222396622994,312.222396622994,312.222396622994,312.222396622994,312.222396622994,312.222396622994,312.222396622994,312.222396622994,55,33,56,65,55,26,None,None,,,,,,,,,,,,,[],[],[],[],[],[],[],-0.2,1,30,[0.01625],[-0.28],[1],[0],[0],[5.37839232000988],['tijiao_random_2'],320.1486826509936,320.1486826509936,320.1486826509936,320.1486826509936,5.0625,2.1680523410032038,322.33772021599,324.1149712889892,,,,,,314.75781060400186,314.75781060400186,314.75781060400186,314.75781060400186,314.75781060400186,314.75781060400186,314.75781060400186,314.75781060400186,0.010320764995412901,314.75781060400186,,,,,,282,f,23,2023-04-05_15h08.08.937,RL,2022.2.4,59.8594826185611,
0,0.3,0.225,0,21,21,21,,,,,,,,,,None,324.1149712889892,324.1149712889892,324.1149712889892,324.1149712889892,324.1149712889892,324.1149712889892,f,1.1380265159968985,325.30534255898965,325.30534255898965,325.30534255898965,325.30534255898965,325.30534255898965,325.30534255898965,325.57261404600285,325.57261404600285,326.40818885399494,326.40818885399494,326.44611082499614,326.44611082499614,326.44611082499614,326.44611082499614,326.44611082499614,326.44611082499614,326.44611082499614,326.44611082499614,326.44611082499614,326.44611082499614,326.44611082499614,326.44611082499614,326.44611082499614,326.44611082499614,326.44611082499614,62,32,46,69,32,69,5.0,2.9128478380007436,,,,,,,,,,,,,[],[],[],[],[],[],[],0.6,2,,[],[],[],[],[],[],[],,,,,None,None,331.90377253499173,333.4655445399985,328.9506659759936,328.9506659759936,328.9506659759936,328.9506659759936,328.9506659759936,,,,,,,,,,,,,,,,282,f,23,2023-04-05_15h08.08.937,RL,2022.2.4,59.8594826185611,
1,-0.3,-0.225,0,22,22,22,,,,,,,,,,None,333.4655445399985,333.4655445399985,333.4655445399985,333.4655445399985,333.4655445399985,333.4655445399985,i,0.7947843220026698,334.3033921250026,334.3033921250026,334.3033921250026,334.3033921250026,334.3033921250026,334.3033921250026,334.5733694800001,334.5733694800001,335.7580053260026,335.7580053260026,335.7828931050026,335.7828931050026,335.7828931050026,335.7828931050026,335.7828931050026,335.7828931050026,335.7828931050026,335.7828931050026,335.7828931050026,335.7828931050026,335.7828931050026,335.7828931050026,335.7828931050026,335.7828931050026,335.7828931050026,58,42,53,56,53,72,2.0,1.9410733330005314,,,,,,,,,,,,,[],[],[],[],[],[],[],-0.2,3,,[],[],[],[],[],[],[],,,,,None,None,340.2720426619926,341.87077390299237,338.28582713099604,338.28582713099604,338.28582713099604,338.28582713099604,338.28582713099604,,,,,,,,,,,,,,,,282,f,23,2023-04-05_15h08.08.937,RL,2022.2.4,59.8594826185611,
0,0.3,0.225,0,23,23,23,,,,,,,,,,None,341.87077390299237,341.87077390299237,341.87077390299237,341.87077390299237,341.87077390299237,341.87077390299237,f,1.3329897000076016,343.24269455300237,343.24269455300237,343.24269455300237,343.24269455300237,343.24269455300237,343.24269455300237,343.51123460500094,343.51123460500094,344.5269237189932,344.5269237189932,344.56731669500005,344.56731669500005,344.56731669500005,344.56731669500005,344.56731669500005,344.56731669500005,344.56731669500005,344.56731669500005,344.56731669500005,344.56731669500005,344.56731669500005,344.56731669500005,344.56731669500005,344.56731669500005,344.56731669500005,59,44,52,65,44,70,2.0,1.300277180998819,,,,,,,,,,,,,[],[],[],[],[],[],[],0.6,3,,[],[],[],[],[],[],[],,,,,None,None,348.41037003499514,350.10778864299937,347.0667416340002,347.0667416340002,347.0667416340002,347.0667416340002,347.0667416340002,,,,,,,,,,,,,,,,282,f,23,2023-04-05_15h08.08.937,RL,2022.2.4,59.8594826185611,
1,-0.3,-0.225,0,24,24,24,,,,,,,,,,None,350.10778864299937,350.10778864299937,350.10778864299937,350.10778864299937,350.10778864299937,350.10778864299937,j,0.5724571989994729,350.7279752549948,350.7279752549948,350.7279752549948,350.7279752549948,350.7279752549948,350.7279752549948,350.9988888719963,350.9988888719963,352.4576564099989,352.4576564099989,352.49634426999546,352.49634426999546,352.49634426999546,352.49634426999546,352.49634426999546,352.49634426999546,352.49634426999546,352.49634426999546,352.49634426999546,352.49634426999546,352.49634426999546,352.49634426999546,352.49634426999546,352.49634426999546,352.49634426999546,60,46,57,67,67,69,None,None,,,,,,,,,,,,,[],[],[],[],[],[],[],0.6,1,78,[0.04875],[-0.305],[1],[0],[0],[5.4577742779947584],['tijiao_random_2'],360.51098712500243,360.51098712500243,360.51098712500243,360.51098712500243,7.2,1.88766303799639,362.4177736790007,364.21495283998956,,,,,,355.03668602299877,355.03668602299877,355.03668602299877,355.03668602299877,355.03668602299877,355.03668602299877,355.03668602299877,355.03668602299877,0.00994387301034294,355.03668602299877,,,,,,282,f,23,2023-04-05_15h08.08.937,RL,2022.2.4,59.8594826185611,
0,0.3,0.225,0,25,25,25,,,,,,,,,,None,364.21495283998956,364.21495283998956,364.21495283998956,364.21495283998956,364.21495283998956,364.21495283998956,j,1.2383844729920384,365.50085072100046,365.50085072100046,365.50085072100046,365.50085072100046,365.50085072100046,365.50085072100046,365.77354970799934,365.77354970799934,367.04534662399965,367.04534662399965,367.0839525839983,367.0839525839983,367.0839525839983,367.0839525839983,367.0839525839983,367.0839525839983,367.0839525839983,367.0839525839983,367.0839525839983,367.0839525839983,367.0839525839983,367.0839525839983,367.0839525839983,367.0839525839983,367.0839525839983,61,47,53,63,63,49,6.0,1.4414504960004706,,,,,,,,,,,,,[],[],[],[],[],[],[],-0.6,3,,[],[],[],[],[],[],[],,,,,None,None,371.07081031599955,373.01867277799465,369.5865914619935,369.5865914619935,369.5865914619935,369.5865914619935,369.5865914619935,,,,,,,,,,,,,,,,282,f,23,2023-04-05_15h08.08.937,RL,2022.2.4,59.8594826185611,
1,-0.3,-0.225,0,26,26,26,,,,,,,,,,None,373.01867277799465,373.01867277799465,373.01867277799465,373.01867277799465,373.01867277799465,373.01867277799465,f,0.6794974469958106,373.7373761039926,373.7373761039926,373.7373761039926,373.7373761039926,373.7373761039926,373.7373761039926,374.01278693799395,374.01278693799395,375.79425982899556,375.79425982899556,375.8192753559997,375.8192753559997,375.8192753559997,375.8192753559997,375.8192753559997,375.8192753559997,375.8192753559997,375.8192753559997,375.8192753559997,375.8192753559997,375.8192753559997,375.8192753559997,375.8192753559997,375.8192753559997,375.8192753559997,62,50,54,64,50,64,None,None,,,,,,,,,,,,,[],[],[],[],[],[],[],0.6,1,38,"[0.0725, 0.07625]","[-0.235, -0.28375]","[1, 1]","[0, 0]","[0, 0]","[4.849937072009197, 5.148638042999664]",['tijiao_random_2'],383.5076101250015,383.5076101250015,383.5076101250015,383.5076101250015,5.975,1.844096871005604,385.3728761579987,387.0416495929967,,,,,,378.34610896099184,378.34610896099184,378.34610896099184,378.34610896099184,378.34610896099184,378.34610896099184,378.34610896099184,378.34610896099184,0.010185332997934893,378.34610896099184,,,,,,282,f,23,2023-04-05_15h08.08.937,RL,2022.2.4,59.8594826185611,
0,0.3,0.225,0,27,27,27,,,,,,,,,,None,387.0416495929967,387.0416495929967,387.0416495929967,387.0416495929967,387.0416495929967,387.0416495929967,f,0.39015950899920426,387.48129984199477,387.48129984199477,387.48129984199477,387.48129984199477,387.48129984199477,387.48129984199477,387.74824817800254,387.74824817800254,389.1356078730023,389.1356078730023,389.1760189630004,389.1760189630004,389.1760189630004,389.1760189630004,389.1760189630004,389.1760189630004,389.1760189630004,389.1760189630004,389.1760189630004,389.1760189630004,389.1760189630004,389.1760189630004,389.1760189630004,389.1760189630004,389.1760189630004,57,39,56,71,39,67,None,None,,,,,,,,,,,,,[],[],[],[],[],[],[],0.6,1,47,[0.0275],[-0.265],[1],[0],[0],[5.385662398010027],['tijiao_random_2'],397.1125493790023,397.1125493790023,397.1125493790023,397.1125493790023,6.012499999999999,1.1868136919947574,398.3199166539998,400.28205990699644,,,,,,391.7100310160022,391.7100310160022,391.7100310160022,391.7100310160022,391.7100310160022,391.7100310160022,391.7100310160022,391.7100310160022,0.010030863006250001,391.7100310160022,,,,,,282,f,23,2023-04-05_15h08.08.937,RL,2022.2.4,59.8594826185611,
1,-0.3,-0.225,0,28,28,28,,,,,,,,,,None,400.28205990699644,400.28205990699644,400.28205990699644,400.28205990699644,400.28205990699644,400.28205990699644,j,0.6155754350038478,400.93843379399914,400.93843379399914,400.93843379399914,400.93843379399914,400.93843379399914,400.93843379399914,401.2072394989955,401.2072394989955,402.85645238799043,402.85645238799043,402.89823407199583,402.89823407199583,402.89823407199583,402.89823407199583,402.89823407199583,402.89823407199583,402.89823407199583,402.89823407199583,402.89823407199583,402.89823407199583,402.89823407199583,402.89823407199583,402.89823407199583,402.89823407199583,402.89823407199583,55,43,47,61,61,49,7.0,1.2831711510079913,,,,,,,,,,,,,[],[],[],[],[],[],[],0.6,3,,[],[],[],[],[],[],[],,,,,None,None,406.7223351589928,408.5193996279995,405.3960516179941,405.3960516179941,405.3960516179941,405.3960516179941,405.3960516179941,,,,,,,,,,,,,,,,282,f,23,2023-04-05_15h08.08.937,RL,2022.2.4,59.8594826185611,
0,0.3,0.225,0,29,29,29,,,,,,,,,,None,408.5193996279995,408.5193996279995,408.5193996279995,408.5193996279995,408.5193996279995,408.5193996279995,i,1.0455302689952077,409.6069920459995,409.6069920459995,409.6069920459995,409.6069920459995,409.6069920459995,409.6069920459995,409.8772270579939,409.8772270579939,411.41132493899204,411.41132493899204,411.4517087629938,411.4517087629938,411.4517087629938,411.4517087629938,411.4517087629938,411.4517087629938,411.4517087629938,411.4517087629938,411.4517087629938,411.4517087629938,411.4517087629938,411.4517087629938,411.4517087629938,411.4517087629938,411.4517087629938,56,45,47,61,47,63,2.0,1.5687314929964487,,,,,,,,,,,,,[],[],[],[],[],[],[],0.6,3,,[],[],[],[],[],[],[],,,,,None,None,415.5745285729936,417.3233310450014,413.96208007600217,413.96208007600217,413.96208007600217,413.96208007600217,413.96208007600217,,,,,,,,,,,,,,,,282,f,23,2023-04-05_15h08.08.937,RL,2022.2.4,59.8594826185611,
1,-0.3,-0.225,0,30,30,30,,,,,,,,,,None,417.3233310450014,417.3233310450014,417.3233310450014,417.3233310450014,417.3233310450014,417.3233310450014,f,0.6307014529884327,417.99246857399703,417.99246857399703,417.99246857399703,417.99246857399703,417.99246857399703,417.99246857399703,418.2621894170006,418.2621894170006,419.0970232279942,419.0970232279942,419.12186349400145,419.12186349400145,419.12186349400145,419.12186349400145,419.12186349400145,419.12186349400145,419.12186349400145,419.12186349400145,419.12186349400145,419.12186349400145,419.12186349400145,419.12186349400145,419.12186349400145,419.12186349400145,419.12186349400145,61,44,46,63,44,42,None,None,,,,,,,,,,,,,[],[],[],[],[],[],[],0.6,1,45,[0.06375],[-0.2775],[1],[0],[0],[3.894247253992944],['tijiao_random_2'],425.57068179600174,425.57068179600174,425.57068179600174,425.57068179600174,8.05,2.728579008995439,428.31532949399843,429.82945876399754,,,,,,421.657800297995,421.657800297995,421.657800297995,421.657800297995,421.657800297995,421.657800297995,421.657800297995,421.657800297995,0.010668447997886688,421.657800297995,,,,,,282,f,23,2023-04-05_15h08.08.937,RL,2022.2.4,59.8594826185611,
0,0.3,0.225,0,31,31,31,,,,,,,,,,None,429.82945876399754,429.82945876399754,429.82945876399754,429.82945876399754,429.82945876399754,429.82945876399754,i,1.405241563988966,431.2829524199915,431.2829524199915,431.2829524199915,431.2829524199915,431.2829524199915,431.2829524199915,431.55418737599393,431.55418737599393,432.6527275519911,432.6527275519911,432.69278402099735,432.69278402099735,432.69278402099735,432.69278402099735,432.69278402099735,432.69278402099735,432.69278402099735,432.69278402099735,432.69278402099735,432.69278402099735,432.69278402099735,432.69278402099735,432.69278402099735,432.69278402099735,432.69278402099735,54,47,52,70,52,37,7.0,1.008113260002574,,,,,,,,,,,,,[],[],[],[],[],[],[],-0.2,2,,[],[],[],[],[],[],[],,,,,None,None,436.2507450839912,438.2481986240018,435.1939446299948,435.1939446299948,435.1939446299948,435.1939446299948,435.1939446299948,,,,,,,,,,,,,,,,282,f,23,2023-04-05_15h08.08.937,RL,2022.2.4,59.8594826185611,
1,-0.3,-0.225,0,32,32,32,,,,,,,,,,None,438.2481986240018,438.2481986240018,438.2481986240018,438.2481986240018,438.2481986240018,438.2481986240018,f,0.6553565180074656,438.9409334929951,438.9409334929951,438.9409334929951,438.9409334929951,438.9409334929951,438.9409334929951,439.2116609989898,439.2116609989898,440.60488683999574,440.60488683999574,440.63248061899503,440.63248061899503,440.63248061899503,440.63248061899503,440.63248061899503,440.63248061899503,440.63248061899503,440.63248061899503,440.63248061899503,440.63248061899503,440.63248061899503,440.63248061899503,440.63248061899503,440.63248061899503,440.63248061899503,52,36,46,74,36,38,None,None,443.14767505199416,443.14767505199416,443.14767505199416,443.14767505199416,443.14767505199416,443.14767505199416,443.14767505199416,443.14767505199416,0.009202527013258077,443.14767505199416,70,70,[0.115],[-0.31125],[1],[0],[0],[8.724124437008868],['tijiao'],0.2,0,,[],[],[],[],[],[],[],451.89934361599444,451.89934361599444,451.89934361599444,451.89934361599444,8.85,2.0485659719997784,453.96715410100296,455.95788140699733,,,,,,,,,,,,,,,,,,,,,282,f,23,2023-04-05_15h08.08.937,RL,2022.2.4,59.8594826185611,
0,0.3,0.225,0,33,33,33,,,,,,,,,,None,455.95788140699733,455.95788140699733,455.95788140699733,455.95788140699733,455.95788140699733,455.95788140699733,i,0.4912706510076532,456.49323447298957,456.49323447298957,456.49323447298957,456.49323447298957,456.49323447298957,456.49323447298957,456.7638486689975,456.7638486689975,457.57929804299783,457.57929804299783,457.6202873549919,457.6202873549919,457.6202873549919,457.6202873549919,457.6202873549919,457.6202873549919,457.6202873549919,457.6202873549919,457.6202873549919,457.6202873549919,457.6202873549919,457.6202873549919,457.6202873549919,457.6202873549919,457.6202873549919,61,47,49,72,49,44,None,None,460.1493166919972,460.1493166919972,460.1493166919972,460.1493166919972,460.1493166919972,460.1493166919972,460.1493166919972,460.1493166919972,0.00879567299853079,460.1493166919972,66,66,[-0.01875],[-0.305],[1],[0],[0],[6.086757242010208],['tijiao'],0.2,0,,[],[],[],[],[],[],[],466.26695770600054,466.26695770600054,466.26695770600054,466.26695770600054,6.1375,1.809305871007382,468.0932776069967,469.6479029350012,,,,,,,,,,,,,,,,,,,,,282,f,23,2023-04-05_15h08.08.937,RL,2022.2.4,59.8594826185611,
1,-0.3,-0.225,0,34,34,34,,,,,,,,,,None,469.6479029350012,469.6479029350012,469.6479029350012,469.6479029350012,469.6479029350012,469.6479029350012,r,1.068383300997084,470.7554433399928,470.7554433399928,470.7554433399928,470.7554433399928,470.7554433399928,470.7554433399928,471.022768816998,471.022768816998,472.22730520200275,472.22730520200275,472.26528143999167,472.26528143999167,472.26528143999167,472.26528143999167,472.26528143999167,472.26528143999167,472.26528143999167,472.26528143999167,472.26528143999167,472.26528143999167,472.26528143999167,472.26528143999167,472.26528143999167,472.26528143999167,472.26528143999167,63,46,50,74,63,50,7.0,1.5968410330096958,,,,,,,,,,,,,[],[],[],[],[],[],[],0.6,2,,[],[],[],[],[],[],[],,,,,None,None,476.41414762000204,478.2021694559953,474.7673009209975,474.7673009209975,474.7673009209975,474.7673009209975,474.7673009209975,,,,,,,,,,,,,,,,282,f,23,2023-04-05_15h08.08.937,RL,2022.2.4,59.8594826185611,
0,0.3,0.225,0,35,35,35,,,,,,,,,,None,478.2021694559953,478.2021694559953,478.2021694559953,478.2021694559953,478.2021694559953,478.2021694559953,f,1.3728640140034258,479.6279981359985,479.6279981359985,479.6279981359985,479.6279981359985,479.6279981359985,479.6279981359985,479.8957723779895,479.8957723779895,480.84768327500205,480.84768327500205,480.8863292159949,480.8863292159949,480.8863292159949,480.8863292159949,480.8863292159949,480.8863292159949,480.8863292159949,480.8863292159949,480.8863292159949,480.8863292159949,480.8863292159949,480.8863292159949,480.8863292159949,480.8863292159949,480.8863292159949,65,41,57,62,41,55,3.0,2.711488173008547,,,,,,,,,,,,,[],[],[],[],[],[],[],-0.6,2,,[],[],[],[],[],[],[],,,,,None,None,486.1531336469925,487.97262724999746,483.3935914699978,483.3935914699978,483.3935914699978,483.3935914699978,483.3935914699978,,,,,,,,,,,,,,,,282,f,23,2023-04-05_15h08.08.937,RL,2022.2.4,59.8594826185611,
1,-0.3,-0.225,0,36,36,36,,,,,,,,,,None,487.97262724999746,487.97262724999746,487.97262724999746,487.97262724999746,487.97262724999746,487.97262724999746,i,0.6352151550090639,488.66015814799175,488.66015814799175,488.66015814799175,488.66015814799175,488.66015814799175,488.66015814799175,488.9304215739976,488.9304215739976,490.15636387999984,490.15636387999984,490.1945622420026,490.1945622420026,490.1945622420026,490.1945622420026,490.1945622420026,490.1945622420026,490.1945622420026,490.1945622420026,490.1945622420026,490.1945622420026,490.1945622420026,490.1945622420026,490.1945622420026,490.1945622420026,490.1945622420026,61,39,47,66,47,41,7.0,1.0645284850033931,,,,,,,,,,,,,[],[],[],[],[],[],[],0.2,3,,[],[],[],[],[],[],[],,,,,None,None,493.8122323659918,495.760907140997,492.70297300998936,492.70297300998936,492.70297300998936,492.70297300998936,492.70297300998936,,,,,,,,,,,,,,,,282,f,23,2023-04-05_15h08.08.937,RL,2022.2.4,59.8594826185611,
0,0.3,0.225,0,37,37,37,,,,,,,,,,None,495.760907140997,495.760907140997,495.760907140997,495.760907140997,495.760907140997,495.760907140997,i,1.0581778360065073,496.8686066559894,496.8686066559894,496.8686066559894,496.8686066559894,496.8686066559894,496.8686066559894,497.1500694449933,497.1500694449933,499.0449669239897,499.0449669239897,499.0705721139966,499.0705721139966,499.0705721139966,499.0705721139966,499.0705721139966,499.0705721139966,499.0705721139966,499.0705721139966,499.0705721139966,499.0705721139966,499.0705721139966,499.0705721139966,499.0705721139966,499.0705721139966,499.0705721139966,67,34,57,73,57,44,None,None,,,,,,,,,,,,,[],[],[],[],[],[],[],-0.6,1,33,[0.09],[-0.26125],[1],[0],[0],[3.1179393349884776],['tijiao_random_2'],504.7312953709916,504.7312953709916,504.7312953709916,504.7312953709916,8.7,1.8297344419988804,506.5772557570017,508.5000196100009,,,,,,501.5986881439894,501.5986881439894,501.5986881439894,501.5986881439894,501.5986881439894,501.5986881439894,501.5986881439894,501.5986881439894,0.010051700999611057,501.5986881439894,,,,,,282,f,23,2023-04-05_15h08.08.937,RL,2022.2.4,59.8594826185611,
1,-0.3,-0.225,0,38,38,38,,,,,,,,,,None,508.5000196100009,508.5000196100009,508.5000196100009,508.5000196100009,508.5000196100009,508.5000196100009,i,1.1364342550077708,509.6728751329938,509.6728751329938,509.6728751329938,509.6728751329938,509.6728751329938,509.6728751329938,509.94230726899696,509.94230726899696,510.83614875900093,510.83614875900093,510.87489759099844,510.87489759099844,510.87489759099844,510.87489759099844,510.87489759099844,510.87489759099844,510.87489759099844,510.87489759099844,510.87489759099844,510.87489759099844,510.87489759099844,510.87489759099844,510.87489759099844,510.87489759099844,510.87489759099844,72,38,58,65,58,56,7.0,0.8060897169925738,,,,,,,,,,,,,[],[],[],[],[],[],[],-0.6,2,,[],[],[],[],[],[],[],,,,,None,None,514.2177755089942,515.9524902789999,513.3689282279956,513.3689282279956,513.3689282279956,513.3689282279956,513.3689282279956,,,,,,,,,,,,,,,,282,f,23,2023-04-05_15h08.08.937,RL,2022.2.4,59.8594826185611,
0,0.3,0.225,0,39,39,39,,,,,,,,,,None,515.9524902789999,515.9524902789999,515.9524902789999,515.9524902789999,515.9524902789999,515.9524902789999,f,0.4572806890064385,516.4558814179909,516.4558814179909,516.4558814179909,516.4558814179909,516.4558814179909,516.4558814179909,516.7274395029963,516.7274395029963,517.840029361003,517.840029361003,517.888970629996,517.888970629996,517.888970629996,517.888970629996,517.888970629996,517.888970629996,517.888970629996,517.888970629996,517.888970629996,517.888970629996,517.888970629996,517.888970629996,517.888970629996,517.888970629996,517.888970629996,73,42,54,74,42,57,None,None,,,,,,,,,,,,,[],[],[],[],[],[],[],0.6,1,35,[0.10375],[-0.28],[1],[0],[0],[3.9920681929943385],['tijiao_random_2'],524.439543963992,524.439543963992,524.439543963992,524.439543963992,5.987500000000001,1.3076566759991692,525.7650676119956,527.4413308969961,,,,,,520.4300152060023,520.4300152060023,520.4300152060023,520.4300152060023,520.4300152060023,520.4300152060023,520.4300152060023,520.4300152060023,0.010060859000077471,520.4300152060023,,,,,,282,f,23,2023-04-05_15h08.08.937,RL,2022.2.4,59.8594826185611,
1,-0.3,-0.225,0,40,40,40,,,,,,,,,,None,527.4413308969961,527.4413308969961,527.4413308969961,527.4413308969961,527.4413308969961,527.4413308969961,i,0.7477941899996949,528.2337531469966,528.2337531469966,528.2337531469966,528.2337531469966,528.2337531469966,528.2337531469966,528.5019172419998,528.5019172419998,529.6510079250002,529.6510079250002,529.6758874399966,529.6758874399966,529.6758874399966,529.6758874399966,529.6758874399966,529.6758874399966,529.6758874399966,529.6758874399966,529.6758874399966,529.6758874399966,529.6758874399966,529.6758874399966,529.6758874399966,529.6758874399966,529.6758874399966,71,46,52,60,52,39,None,None,,,,,,,,,,,,,[],[],[],[],[],[],[],-0.6,1,45,[0.14375],[-0.2725],[1],[0],[0],[3.33654817599745],['tijiao_random_2'],535.5664366299898,535.5664366299898,535.5664366299898,535.5664366299898,7.574999999999999,1.2434494689950952,536.8336698979983,538.3639441819978,,,,,,532.2128904900019,532.2128904900019,532.2128904900019,532.2128904900019,532.2128904900019,532.2128904900019,532.2128904900019,532.2128904900019,0.01052154999342747,532.2128904900019,,,,,,282,f,23,2023-04-05_15h08.08.937,RL,2022.2.4,59.8594826185611,
0,0.3,0.225,0,41,41,41,,,,,,,,,,None,538.3639441819978,538.3639441819978,538.3639441819978,538.3639441819978,538.3639441819978,538.3639441819978,i,1.2351046950061573,539.6359693539998,539.6359693539998,539.6359693539998,539.6359693539998,539.6359693539998,539.6359693539998,539.9065692889999,539.9065692889999,541.0730459140032,541.0730459140032,541.1140476720029,541.1140476720029,541.1140476720029,541.1140476720029,541.1140476720029,541.1140476720029,541.1140476720029,541.1140476720029,541.1140476720029,541.1140476720029,541.1140476720029,541.1140476720029,541.1140476720029,541.1140476720029,541.1140476720029,75,35,40,64,40,48,3.0,2.333424010008457,,,,,,,,,,,,,[],[],[],[],[],[],[],0.6,3,,[],[],[],[],[],[],[],,,,,None,None,545.9849769659922,547.8849181359983,543.6098381159973,543.6098381159973,543.6098381159973,543.6098381159973,543.6098381159973,,,,,,,,,,,,,,,,282,f,23,2023-04-05_15h08.08.937,RL,2022.2.4,59.8594826185611,
1,-0.3,-0.225,0,42,42,42,,,,,,,,,,None,547.8849181359983,547.8849181359983,547.8849181359983,547.8849181359983,547.8849181359983,547.8849181359983,f,0.5118606629985152,548.4420168009965,548.4420168009965,548.4420168009965,548.4420168009965,548.4420168009965,548.4420168009965,548.710722592994,548.710722592994,549.7434826050012,549.7434826050012,549.7814410809951,549.7814410809951,549.7814410809951,549.7814410809951,549.7814410809951,549.7814410809951,549.7814410809951,549.7814410809951,549.7814410809951,549.7814410809951,549.7814410809951,549.7814410809951,549.7814410809951,549.7814410809951,549.7814410809951,75,39,46,64,39,46,None,None,,,,,,,,,,,,,[],[],[],[],[],[],[],0.2,1,45,[-0.00125],[-0.2775],[1],[0],[0],[4.04533932999766],['tijiao_random_2'],556.3716873099911,556.3716873099911,556.3716873099911,556.3716873099911,5.1125,2.1877511530037737,558.5766712649929,560.2078930330026,,,,,,552.3096877409989,552.3096877409989,552.3096877409989,552.3096877409989,552.3096877409989,552.3096877409989,552.3096877409989,552.3096877409989,0.00980066201009322,552.3096877409989,,,,,,282,f,23,2023-04-05_15h08.08.937,RL,2022.2.4,59.8594826185611,
0,0.3,0.225,0,43,43,43,,,,,,,,,,None,560.2078930330026,560.2078930330026,560.2078930330026,560.2078930330026,560.2078930330026,560.2078930330026,r,1.4330976560013369,561.6946170570009,561.6946170570009,561.6946170570009,561.6946170570009,561.6946170570009,561.6946170570009,561.9644329939911,561.9644329939911,563.2666960179922,563.2666960179922,563.2905312399962,563.2905312399962,563.2905312399962,563.2905312399962,563.2905312399962,563.2905312399962,563.2905312399962,563.2905312399962,563.2905312399962,563.2905312399962,563.2905312399962,563.2905312399962,563.2905312399962,563.2905312399962,563.2905312399962,84,27,52,51,84,51,7.0,1.5488843459897907,,,,,,,,,,,,,[],[],[],[],[],[],[],-0.6,3,,[],[],[],[],[],[],[],,,,,None,None,567.3961807719897,569.0615701060015,565.8033788659959,565.8033788659959,565.8033788659959,565.8033788659959,565.8033788659959,,,,,,,,,,,,,,,,282,f,23,2023-04-05_15h08.08.937,RL,2022.2.4,59.8594826185611,
1,-0.3,-0.225,0,44,44,44,,,,,,,,,,None,569.0615701060015,569.0615701060015,569.0615701060015,569.0615701060015,569.0615701060015,569.0615701060015,r,1.2398034469952108,570.3547457020031,570.3547457020031,570.3547457020031,570.3547457020031,570.3547457020031,570.3547457020031,570.6216338039958,570.6216338039958,571.8978576289956,571.8978576289956,571.9388962499943,571.9388962499943,571.9388962499943,571.9388962499943,571.9388962499943,571.9388962499943,571.9388962499943,571.9388962499943,571.9388962499943,571.9388962499943,571.9388962499943,571.9388962499943,571.9388962499943,571.9388962499943,571.9388962499943,86,40,47,50,86,51,7.0,0.8743676129961386,,,,,,,,,,,,,[],[],[],[],[],[],[],0.6,2,,[],[],[],[],[],[],[],,,,,None,None,575.3507009729947,577.1662465609988,574.4326969929971,574.4326969929971,574.4326969929971,574.4326969929971,574.4326969929971,,,,,,,,,,,,,,,,282,f,23,2023-04-05_15h08.08.937,RL,2022.2.4,59.8594826185611,
0,0.3,0.225,0,45,45,45,,,,,,,,,,None,577.1662465609988,577.1662465609988,577.1662465609988,577.1662465609988,577.1662465609988,577.1662465609988,r,0.560719272994902,577.7702235759934,577.7702235759934,577.7702235759934,577.7702235759934,577.7702235759934,577.7702235759934,578.0405163329997,578.0405163329997,579.1287237270008,579.1287237270008,579.169018953995,579.169018953995,579.169018953995,579.169018953995,579.169018953995,579.169018953995,579.169018953995,579.169018953995,579.169018953995,579.169018953995,579.169018953995,579.169018953995,579.169018953995,579.169018953995,579.169018953995,79,31,44,61,79,46,None,None,,,,,,,,,,,,,[],[],[],[],[],[],[],-0.6,1,80,[0.18],[-0.30875],[1],[0],[0],[3.432453648012597],['tijiao_random_2'],585.1603526789986,585.1603526789986,585.1603526789986,585.1603526789986,9.9625,1.9316186829964863,587.1111158169952,588.8374941770016,,,,,,581.7093158399948,581.7093158399948,581.7093158399948,581.7093158399948,581.7093158399948,581.7093158399948,581.7093158399948,581.7093158399948,0.010103837994392961,581.7093158399948,,,,,,282,f,23,2023-04-05_15h08.08.937,RL,2022.2.4,59.8594826185611,
1,-0.3,-0.225,0,46,46,46,,,,,,,,,,None,588.8374941770016,588.8374941770016,588.8374941770016,588.8374941770016,588.8374941770016,588.8374941770016,r,0.8847558059933363,589.774973512991,589.774973512991,589.774973512991,589.774973512991,589.774973512991,589.774973512991,590.0458907499997,590.0458907499997,591.749429108997,591.749429108997,591.7876522909937,591.7876522909937,591.7876522909937,591.7876522909937,591.7876522909937,591.7876522909937,591.7876522909937,591.7876522909937,591.7876522909937,591.7876522909937,591.7876522909937,591.7876522909937,591.7876522909937,591.7876522909937,591.7876522909937,77,15,37,62,77,55,None,None,594.3034282890003,594.3034282890003,594.3034282890003,594.3034282890003,594.3034282890003,594.3034282890003,594.3034282890003,594.3034282890003,0.00881285899959039,594.3034282890003,78,78,[0.0475],[-0.30625],[1],[0],[0],[5.615087846992537],['tijiao'],-0.2,0,,[],[],[],[],[],[],[],599.9520857609896,599.9520857609896,599.9520857609896,599.9520857609896,9.9625,1.7649890769971535,601.7362895370024,603.5615330529981,,,,,,,,,,,,,,,,,,,,,282,f,23,2023-04-05_15h08.08.937,RL,2022.2.4,59.8594826185611,
0,0.3,0.225,0,47,47,47,,,,,,,,,,None,603.5615330529981,603.5615330529981,603.5615330529981,603.5615330529981,603.5615330529981,603.5615330529981,r,0.47200077401066665,604.0874430230033,604.0874430230033,604.0874430230033,604.0874430230033,604.0874430230033,604.0874430230033,604.3523797139933,604.3523797139933,605.2942896419991,605.2942896419991,605.3320413070032,605.3320413070032,605.3320413070032,605.3320413070032,605.3320413070032,605.3320413070032,605.3320413070032,605.3320413070032,605.3320413070032,605.3320413070032,605.3320413070032,605.3320413070032,605.3320413070032,605.3320413070032,605.3320413070032,75,32,47,57,75,39,None,None,607.8480971440003,607.8480971440003,607.8480971440003,607.8480971440003,607.8480971440003,607.8480971440003,607.8480971440003,607.8480971440003,0.008984944986877963,607.8480971440003,80,80,[0.03375],[-0.29375],[1],[0],[0],[4.580445396000869],['tijiao'],0.6,0,,[],[],[],[],[],[],[],612.4621185509895,612.4621185509895,612.4621185509895,612.4621185509895,9.8625,1.2553507470001932,613.7354277309933,615.4337966500025,,,,,,,,,,,,,,,,,,,,,282,f,23,2023-04-05_15h08.08.937,RL,2022.2.4,59.8594826185611,
1,-0.3,-0.225,0,48,48,48,,,,,,,,,,None,615.4337966500025,615.4337966500025,615.4337966500025,615.4337966500025,615.4337966500025,615.4337966500025,r,0.6903797999984818,616.1759674979985,616.1759674979985,616.1759674979985,616.1759674979985,616.1759674979985,616.1759674979985,616.4436345479917,616.4436345479917,617.9682619950036,617.9682619950036,618.0066913920018,618.0066913920018,618.0066913920018,618.0066913920018,618.0066913920018,618.0066913920018,618.0066913920018,618.0066913920018,618.0066913920018,618.0066913920018,618.0066913920018,618.0066913920018,618.0066913920018,618.0066913920018,618.0066913920018,83,32,52,64,83,48,7.0,1.5151936769980239,,,,,,,,,,,,,[],[],[],[],[],[],[],0.6,3,,[],[],[],[],[],[],[],,,,,None,None,622.0727451470011,623.6374610109924,620.5134120489965,620.5134120489965,620.5134120489965,620.5134120489965,620.5134120489965,,,,,,,,,,,,,,,,282,f,23,2023-04-05_15h08.08.937,RL,2022.2.4,59.8594826185611,
0,0.3,0.225,0,49,49,49,,,,,,,,,,None,623.6374610109924,623.6374610109924,623.6374610109924,623.6374610109924,623.6374610109924,623.6374610109924,r,0.9538305689929985,624.6413583639951,624.6413583639951,624.6413583639951,624.6413583639951,624.6413583639951,624.6413583639951,624.9100760559959,624.9100760559959,626.617523242996,626.617523242996,626.6562668919942,626.6562668919942,626.6562668919942,626.6562668919942,626.6562668919942,626.6562668919942,626.6562668919942,626.6562668919942,626.6562668919942,626.6562668919942,626.6562668919942,626.6562668919942,626.6562668919942,626.6562668919942,626.6562668919942,73,31,39,63,73,49,None,None,,,,,,,,,,,,,[],[],[],[],[],[],[],-0.6,1,85,[0.05875],[-0.29],[1],[0],[0],[4.366880026005674],['tijiao_random_2'],633.5845880889974,633.5845880889974,633.5845880889974,633.5845880889974,10.025,2.635049712000182,636.2369823769986,637.9446631500032,,,,,,629.1982820709964,629.1982820709964,629.1982820709964,629.1982820709964,629.1982820709964,629.1982820709964,629.1982820709964,629.1982820709964,0.009930173997418024,629.1982820709964,,,,,,282,f,23,2023-04-05_15h08.08.937,RL,2022.2.4,59.8594826185611,
1,-0.3,-0.225,0,50,50,50,,,,,,,,,,None,637.9446631500032,637.9446631500032,637.9446631500032,637.9446631500032,637.9446631500032,637.9446631500032,r,0.38135843399504665,638.3776936069917,638.3776936069917,638.3776936069917,638.3776936069917,638.3776936069917,638.3776936069917,638.6508724570012,638.6508724570012,639.6219821249979,639.6219821249979,639.661780098002,639.661780098002,639.661780098002,639.661780098002,639.661780098002,639.661780098002,639.661780098002,639.661780098002,639.661780098002,639.661780098002,639.661780098002,639.661780098002,639.661780098002,639.661780098002,639.661780098002,74,22,47,53,74,45,7.0,1.5722988089983119,,,,,,,,,,,,,[],[],[],[],[],[],[],0.2,2,,[],[],[],[],[],[],[],,,,,None,None,643.7844980439986,645.431252786002,642.1662911829917,642.1662911829917,642.1662911829917,642.1662911829917,642.1662911829917,,,,,,,,,,,,,,,,282,f,23,2023-04-05_15h08.08.937,RL,2022.2.4,59.8594826185611,
0,0.3,0.225,0,51,51,51,,,,,,,,,,None,645.431252786002,645.431252786002,645.431252786002,645.431252786002,645.431252786002,645.431252786002,r,0.9572494620078942,646.4410119520035,646.4410119520035,646.4410119520035,646.4410119520035,646.4410119520035,646.4410119520035,646.7056589269923,646.7056589269923,647.5904899169982,647.5904899169982,647.63317215399,647.63317215399,647.63317215399,647.63317215399,647.63317215399,647.63317215399,647.63317215399,647.63317215399,647.63317215399,647.63317215399,647.63317215399,647.63317215399,647.63317215399,647.63317215399,647.63317215399,78,30,39,55,78,41,None,None,,,,,,,,,,,,,[],[],[],[],[],[],[],0.6,1,56,[0.035],[-0.30375],[1],[0],[0],[4.368227672006469],['tijiao_random_2'],654.5501380159985,654.5501380159985,654.5501380159985,654.5501380159985,9.0375,2.0503491179988487,656.622686688992,658.5867238369974,,,,,,650.1680162580014,650.1680162580014,650.1680162580014,650.1680162580014,650.1680162580014,650.1680162580014,650.1680162580014,650.1680162580014,0.009994859006837942,650.1680162580014,,,,,,282,f,23,2023-04-05_15h08.08.937,RL,2022.2.4,59.8594826185611,
1,-0.3,-0.225,0,52,52,52,,,,,,,,,,None,658.5867238369974,658.5867238369974,658.5867238369974,658.5867238369974,658.5867238369974,658.5867238369974,r,0.39574928100046236,659.023439822995,659.023439822995,659.023439822995,659.023439822995,659.023439822995,659.023439822995,659.2949313979916,659.2949313979916,661.2201034039899,661.2201034039899,661.2579397980007,661.2579397980007,661.2579397980007,661.2579397980007,661.2579397980007,661.2579397980007,661.2579397980007,661.2579397980007,661.2579397980007,661.2579397980007,661.2579397980007,661.2579397980007,661.2579397980007,661.2579397980007,661.2579397980007,70,41,44,57,70,47,None,None,,,,,,,,,,,,,[],[],[],[],[],[],[],-0.2,1,60,[0.06375],[-0.275],[1],[0],[0],[3.450312966000638],['tijiao_random_2'],667.2611309450003,667.2611309450003,667.2611309450003,667.2611309450003,8.225000000000001,1.5558055990113644,668.838110097,670.6096566350025,,,,,,663.7961028129939,663.7961028129939,663.7961028129939,663.7961028129939,663.7961028129939,663.7961028129939,663.7961028129939,663.7961028129939,0.010050589000456966,663.7961028129939,,,,,,282,f,23,2023-04-05_15h08.08.937,RL,2022.2.4,59.8594826185611,
0,0.3,0.225,0,53,53,53,,,,,,,,,,None,670.6096566350025,670.6096566350025,670.6096566350025,670.6096566350025,670.6096566350025,670.6096566350025,r,0.9871416259993566,671.6474798330019,671.6474798330019,671.6474798330019,671.6474798330019,671.6474798330019,671.6474798330019,671.9182319760002,671.9182319760002,673.0891933949897,673.0891933949897,673.1276543309941,673.1276543309941,673.1276543309941,673.1276543309941,673.1276543309941,673.1276543309941,673.1276543309941,673.1276543309941,673.1276543309941,673.1276543309941,673.1276543309941,673.1276543309941,673.1276543309941,673.1276543309941,673.1276543309941,69,32,37,56,69,44,None,None,,,,,,,,,,,,,[],[],[],[],[],[],[],0.2,1,50,[-0.0375],[-0.2875],[1],[0],[0],[4.564839047990972],['tijiao_random_2'],680.2472457169933,680.2472457169933,680.2472457169933,680.2472457169933,8.875,1.7329949909908464,682.0013140950032,683.5158365989919,,,,,,675.6679517290031,675.6679517290031,675.6679517290031,675.6679517290031,675.6679517290031,675.6679517290031,675.6679517290031,675.6679517290031,0.00985312499688007,675.6679517290031,,,,,,282,f,23,2023-04-05_15h08.08.937,RL,2022.2.4,59.8594826185611,
1,-0.3,-0.225,0,54,54,54,,,,,,,,,,None,683.5158365989919,683.5158365989919,683.5158365989919,683.5158365989919,683.5158365989919,683.5158365989919,r,0.40091863699490204,683.9585912969924,683.9585912969924,683.9585912969924,683.9585912969924,683.9585912969924,683.9585912969924,684.2420308080036,684.2420308080036,685.9767134529975,685.9767134529975,685.9988229540031,685.9988229540031,685.9988229540031,685.9988229540031,685.9988229540031,685.9988229540031,685.9988229540031,685.9988229540031,685.9988229540031,685.9988229540031,685.9988229540031,685.9988229540031,685.9988229540031,685.9988229540031,685.9988229540031,82,39,35,50,82,35,7.0,1.0217299600044498,,,,,,,,,,,,,[],[],[],[],[],[],[],0.6,2,,[],[],[],[],[],[],[],,,,,None,None,689.5712073659961,691.5533147730021,688.5066542229906,688.5066542229906,688.5066542229906,688.5066542229906,688.5066542229906,,,,,,,,,,,,,,,,282,f,23,2023-04-05_15h08.08.937,RL,2022.2.4,59.8594826185611,
0,0.3,0.225,0,55,55,55,,,,,,,,,,None,691.5533147730021,691.5533147730021,691.5533147730021,691.5533147730021,691.5533147730021,691.5533147730021,r,0.907467541997903,692.498998051,692.498998051,692.498998051,692.498998051,692.498998051,692.498998051,692.7774693769898,692.7774693769898,693.6141106369905,693.6141106369905,693.6377548320015,693.6377548320015,693.6377548320015,693.6377548320015,693.6377548320015,693.6377548320015,693.6377548320015,693.6377548320015,693.6377548320015,693.6377548320015,693.6377548320015,693.6377548320015,693.6377548320015,693.6377548320015,693.6377548320015,91,30,37,52,91,35,7.0,1.1755649489932694,,,,,,,,,,,,,[],[],[],[],[],[],[],0.2,2,,[],[],[],[],[],[],[],,,,,None,None,697.3573926719982,699.0721677980036,696.1380435979954,696.1380435979954,696.1380435979954,696.1380435979954,696.1380435979954,,,,,,,,,,,,,,,,282,f,23,2023-04-05_15h08.08.937,RL,2022.2.4,59.8594826185611,
1,-0.3,-0.225,0,56,56,56,,,,,,,,,,None,699.0721677980036,699.0721677980036,699.0721677980036,699.0721677980036,699.0721677980036,699.0721677980036,r,0.8159341839927947,699.9327225279994,699.9327225279994,699.9327225279994,699.9327225279994,699.9327225279994,699.9327225279994,700.2147968439967,700.2147968439967,702.102817469,702.102817469,702.1239177059906,702.1239177059906,702.1239177059906,702.1239177059906,702.1239177059906,702.1239177059906,702.1239177059906,702.1239177059906,702.1239177059906,702.1239177059906,702.1239177059906,702.1239177059906,702.1239177059906,702.1239177059906,702.1239177059906,84,30,38,55,84,41,7.0,1.141500609999639,,,,,,,,,,,,,[],[],[],[],[],[],[],-0.2,2,,[],[],[],[],[],[],[],,,,,None,None,705.81155828599,707.6775958579965,704.6236440529901,704.6236440529901,704.6236440529901,704.6236440529901,704.6236440529901,,,,,,,,,,,,,,,,282,f,23,2023-04-05_15h08.08.937,RL,2022.2.4,59.8594826185611,
0,0.3,0.225,0,57,57,57,,,,,,,,,,None,707.6775958579965,707.6775958579965,707.6775958579965,707.6775958579965,707.6775958579965,707.6775958579965,r,0.6948781069950201,708.4195771739905,708.4195771739905,708.4195771739905,708.4195771739905,708.4195771739905,708.4195771739905,708.7017814769933,708.7017814769933,710.3286378829944,710.3286378829944,710.3511980439944,710.3511980439944,710.3511980439944,710.3511980439944,710.3511980439944,710.3511980439944,710.3511980439944,710.3511980439944,710.3511980439944,710.3511980439944,710.3511980439944,710.3511980439944,710.3511980439944,710.3511980439944,710.3511980439944,83,30,40,55,83,36,7.0,1.0751676990039414,,,,,,,,,,,,,[],[],[],[],[],[],[],0.2,2,,[],[],[],[],[],[],[],,,,,None,None,713.9804912300024,715.7966514809959,712.8650807009981,712.8650807009981,712.8650807009981,712.8650807009981,712.8650807009981,,,,,,,,,,,,,,,,282,f,23,2023-04-05_15h08.08.937,RL,2022.2.4,59.8594826185611,
1,-0.3,-0.225,0,58,58,58,,,,,,,,,,None,715.7966514809959,715.7966514809959,715.7966514809959,715.7966514809959,715.7966514809959,715.7966514809959,r,0.6062130520003848,716.451318566993,716.451318566993,716.451318566993,716.451318566993,716.451318566993,716.451318566993,716.7242991590028,716.7242991590028,718.6717505199922,718.6717505199922,718.7139204449923,718.7139204449923,718.7139204449923,718.7139204449923,718.7139204449923,718.7139204449923,718.7139204449923,718.7139204449923,718.7139204449923,718.7139204449923,718.7139204449923,718.7139204449923,718.7139204449923,718.7139204449923,718.7139204449923,82,23,39,55,82,33,None,None,,,,,,,,,,,,,[],[],[],[],[],[],[],-0.6,1,89,[0.10625],[-0.29625],[1],[0],[0],[3.478770790010458],['tijiao_random_2'],724.7363239599945,724.7363239599945,724.7363239599945,724.7363239599945,11,1.1944324680080172,725.9464669220033,727.7705324089911,,,,,,721.239123086998,721.239123086998,721.239123086998,721.239123086998,721.239123086998,721.239123086998,721.239123086998,721.239123086998,0.009857141005340964,721.239123086998,,,,,,282,f,23,2023-04-05_15h08.08.937,RL,2022.2.4,59.8594826185611,
0,0.3,0.225,0,59,59,59,,,,,,,,,,None,727.7705324089911,727.7705324089911,727.7705324089911,727.7705324089911,727.7705324089911,727.7705324089911,r,0.781737757002702,728.5947933889984,728.5947933889984,728.5947933889984,728.5947933889984,728.5947933889984,728.5947933889984,728.863877662996,728.863877662996,730.2254329150019,730.2254329150019,730.2650383779983,730.2650383779983,730.2650383779983,730.2650383779983,730.2650383779983,730.2650383779983,730.2650383779983,730.2650383779983,730.2650383779983,730.2650383779983,730.2650383779983,730.2650383779983,730.2650383779983,730.2650383779983,730.2650383779983,80,34,44,48,80,33,None,None,732.7903088750027,732.7903088750027,732.7903088750027,732.7903088750027,732.7903088750027,732.7903088750027,732.7903088750027,732.7903088750027,0.009525430999929085,732.7903088750027,86,86,[-0.03],[-0.2675],[1],[0],[0],[5.175858902002801],['tijiao'],0.2,0,,[],[],[],[],[],[],[],737.9970931049902,737.9970931049902,737.9970931049902,737.9970931049902,10.9375,0.9866176689974964,739.0021236719913,740.7601804089936,,,,,,,,,,,,,,,,,,,,,282,f,23,2023-04-05_15h08.08.937,RL,2022.2.4,59.8594826185611,
1,-0.3,-0.225,0,60,60,60,,,,,,,,,,None,740.7601804089936,740.7601804089936,740.7601804089936,740.7601804089936,740.7601804089936,740.7601804089936,r,0.5703326799994102,741.3653164449934,741.3653164449934,741.3653164449934,741.3653164449934,741.3653164449934,741.3653164449934,741.634268060996,741.634268060996,742.9843700209894,742.9843700209894,743.0258711719944,743.0258711719944,743.0258711719944,743.0258711719944,743.0258711719944,743.0258711719944,743.0258711719944,743.0258711719944,743.0258711719944,743.0258711719944,743.0258711719944,743.0258711719944,743.0258711719944,743.0258711719944,743.0258711719944,80,27,40,55,80,36,7.0,0.9726928000018233,,,,,,,,,,,,,[],[],[],[],[],[],[],-0.2,2,,[],[],[],[],[],[],[],,,,,None,None,746.5524610599969,748.3304132359917,745.5359168519935,745.5359168519935,745.5359168519935,745.5359168519935,745.5359168519935,,,,,,,,,,,,,,,,282,f,23,2023-04-05_15h08.08.937,RL,2022.2.4,59.8594826185611,
0,0.3,0.225,0,61,61,61,,,,,,,,,,None,748.3304132359917,748.3304132359917,748.3304132359917,748.3304132359917,748.3304132359917,748.3304132359917,r,0.6348455019906396,749.0153035900003,749.0153035900003,749.0153035900003,749.0153035900003,749.0153035900003,749.0153035900003,749.2866201889992,749.2866201889992,751.0063033759943,751.0063033759943,751.0476029369893,751.0476029369893,751.0476029369893,751.0476029369893,751.0476029369893,751.0476029369893,751.0476029369893,751.0476029369893,751.0476029369893,751.0476029369893,751.0476029369893,751.0476029369893,751.0476029369893,751.0476029369893,751.0476029369893,79,24,41,51,79,46,None,None,753.5683621979988,753.5683621979988,753.5683621979988,753.5683621979988,753.5683621979988,753.5683621979988,753.5683621979988,753.5683621979988,0.008993057999759912,753.5683621979988,78,78,[-0.0075],[-0.28125],[1],[0],[0],[3.214709366991883],['tijiao'],0.6,0,,[],[],[],[],[],[],[],756.8221882049984,756.8221882049984,756.8221882049984,756.8221882049984,10.95,1.150442223995924,757.9916220140003,759.6670370810025,,,,,,,,,,,,,,,,,,,,,282,f,23,2023-04-05_15h08.08.937,RL,2022.2.4,59.8594826185611,
1,-0.3,-0.225,0,62,62,62,,,,,,,,,,None,759.6670370810025,759.6670370810025,759.6670370810025,759.6670370810025,759.6670370810025,759.6670370810025,r,0.5111022150085773,760.2225807270006,760.2225807270006,760.2225807270006,760.2225807270006,760.2225807270006,760.2225807270006,760.4974128100002,760.4974128100002,761.3607851589913,761.3607851589913,761.3867436220025,761.3867436220025,761.3867436220025,761.3867436220025,761.3867436220025,761.3867436220025,761.3867436220025,761.3867436220025,761.3867436220025,761.3867436220025,761.3867436220025,761.3867436220025,761.3867436220025,761.3867436220025,761.3867436220025,69,26,41,56,69,32,6.0,1.6763516920036636,,,,,,,,,,,,,[],[],[],[],[],[],[],-0.6,3,,[],[],[],[],[],[],[],,,,,None,None,765.6185324739927,767.4727764749987,763.8962239809916,763.8962239809916,763.8962239809916,763.8962239809916,763.8962239809916,,,,,,,,,,,,,,,,282,f,23,2023-04-05_15h08.08.937,RL,2022.2.4,59.8594826185611,
0,0.3,0.225,0,63,63,63,,,,,,,,,,None,767.4727764749987,767.4727764749987,767.4727764749987,767.4727764749987,767.4727764749987,767.4727764749987,r,0.6947544530121377,768.2145060159964,768.2145060159964,768.2145060159964,768.2145060159964,768.2145060159964,768.2145060159964,768.496815542996,768.496815542996,769.4012134489894,769.4012134489894,769.4228113360004,769.4228113360004,769.4228113360004,769.4228113360004,769.4228113360004,769.4228113360004,769.4228113360004,769.4228113360004,769.4228113360004,769.4228113360004,769.4228113360004,769.4228113360004,769.4228113360004,769.4228113360004,769.4228113360004,84,29,49,51,84,43,7.0,1.097022897010902,,,,,,,,,,,,,[],[],[],[],[],[],[],-0.2,2,,[],[],[],[],[],[],[],,,,,None,None,773.0611089719896,774.8594761260028,771.9193390309956,771.9193390309956,771.9193390309956,771.9193390309956,771.9193390309956,,,,,,,,,,,,,,,,282,f,23,2023-04-05_15h08.08.937,RL,2022.2.4,59.8594826185611,
1,-0.3,-0.225,0,64,64,64,,,,,,,,,,None,774.8594761260028,774.8594761260028,774.8594761260028,774.8594761260028,774.8594761260028,774.8594761260028,r,0.5816144489945145,775.4836791120033,775.4836791120033,775.4836791120033,775.4836791120033,775.4836791120033,775.4836791120033,775.7536657699966,775.7536657699966,777.583452092993,777.583452092993,777.6226373269892,777.6226373269892,777.6226373269892,777.6226373269892,777.6226373269892,777.6226373269892,777.6226373269892,777.6226373269892,777.6226373269892,777.6226373269892,777.6226373269892,777.6226373269892,777.6226373269892,777.6226373269892,777.6226373269892,71,25,51,55,71,39,7.0,1.3299522909946973,,,,,,,,,,,,,[],[],[],[],[],[],[],-0.6,2,,[],[],[],[],[],[],[],,,,,None,None,781.4996350639994,783.1292636089929,780.1243713820004,780.1243713820004,780.1243713820004,780.1243713820004,780.1243713820004,,,,,,,,,,,,,,,,282,f,23,2023-04-05_15h08.08.937,RL,2022.2.4,59.8594826185611,
0,0.3,0.225,0,65,65,65,,,,,,,,,,None,783.1292636089929,783.1292636089929,783.1292636089929,783.1292636089929,783.1292636089929,783.1292636089929,r,0.6716321759886341,783.8491930189921,783.8491930189921,783.8491930189921,783.8491930189921,783.8491930189921,783.8491930189921,784.1213885149918,784.1213885149918,785.9039585040009,785.9039585040009,785.9456495839986,785.9456495839986,785.9456495839986,785.9456495839986,785.9456495839986,785.9456495839986,785.9456495839986,785.9456495839986,785.9456495839986,785.9456495839986,785.9456495839986,785.9456495839986,785.9456495839986,785.9456495839986,785.9456495839986,70,28,33,63,70,38,7.0,1.032696438007406,,,,,,,,,,,,,[],[],[],[],[],[],[],-0.2,3,,[],[],[],[],[],[],[],,,,,None,None,789.5207465260028,791.4510964439978,788.4432287569944,788.4432287569944,788.4432287569944,788.4432287569944,788.4432287569944,,,,,,,,,,,,,,,,282,f,23,2023-04-05_15h08.08.937,RL,2022.2.4,59.8594826185611,
1,-0.3,-0.225,0,66,66,66,,,,,,,,,,None,791.4510964439978,791.4510964439978,791.4510964439978,791.4510964439978,791.4510964439978,791.4510964439978,r,0.6532057690055808,792.1404720330029,792.1404720330029,792.1404720330029,792.1404720330029,792.1404720330029,792.1404720330029,792.4075562289945,792.4075562289945,793.5511770089943,793.5511770089943,793.5898668000009,793.5898668000009,793.5898668000009,793.5898668000009,793.5898668000009,793.5898668000009,793.5898668000009,793.5898668000009,793.5898668000009,793.5898668000009,793.5898668000009,793.5898668000009,793.5898668000009,793.5898668000009,793.5898668000009,70,25,40,68,70,46,7.0,0.9652611719939159,,,,,,,,,,,,,[],[],[],[],[],[],[],-0.6,2,,[],[],[],[],[],[],[],,,,,None,None,797.1085833919933,799.1039250169997,796.1009459929919,796.1009459929919,796.1009459929919,796.1009459929919,796.1009459929919,,,,,,,,,,,,,,,,282,f,23,2023-04-05_15h08.08.937,RL,2022.2.4,59.8594826185611,
0,0.3,0.225,0,67,67,67,,,,,,,,,,None,799.1039250169997,799.1039250169997,799.1039250169997,799.1039250169997,799.1039250169997,799.1039250169997,r,0.495119709012215,799.6466186909965,799.6466186909965,799.6466186909965,799.6466186909965,799.6466186909965,799.6466186909965,799.9270953559899,799.9270953559899,801.2484736539918,801.2484736539918,801.2872143989953,801.2872143989953,801.2872143989953,801.2872143989953,801.2872143989953,801.2872143989953,801.2872143989953,801.2872143989953,801.2872143989953,801.2872143989953,801.2872143989953,801.2872143989953,801.2872143989953,801.2872143989953,801.2872143989953,79,33,47,60,79,45,None,None,,,,,,,,,,,,,[],[],[],[],[],[],[],-0.2,1,56,[0.07375],[-0.3075],[1],[0],[0],[3.8943295270000817],['tijiao_random_2'],807.7394897269987,807.7394897269987,807.7394897269987,807.7394897269987,8.05,1.486072104991763,809.243408786002,811.17721561699,,,,,,803.8269482199976,803.8269482199976,803.8269482199976,803.8269482199976,803.8269482199976,803.8269482199976,803.8269482199976,803.8269482199976,0.010229557999991812,803.8269482199976,,,,,,282,f,23,2023-04-05_15h08.08.937,RL,2022.2.4,59.8594826185611,
1,-0.3,-0.225,0,68,68,68,,,,,,,,,,None,811.17721561699,811.17721561699,811.17721561699,811.17721561699,811.17721561699,811.17721561699,r,0.521085378000862,811.749931436003,811.749931436003,811.749931436003,811.749931436003,811.749931436003,811.749931436003,812.0174642909988,812.0174642909988,813.8008163549966,813.8008163549966,813.8422782949929,813.8422782949929,813.8422782949929,813.8422782949929,813.8422782949929,813.8422782949929,813.8422782949929,813.8422782949929,813.8422782949929,813.8422782949929,813.8422782949929,813.8422782949929,813.8422782949929,813.8422782949929,813.8422782949929,65,28,48,58,65,39,None,None,,,,,,,,,,,,,[],[],[],[],[],[],[],0.6,1,66,[-0.03875],[-0.29625],[1],[0],[0],[4.355307906007511],['tijiao_random_2'],820.7483307869988,820.7483307869988,820.7483307869988,820.7483307869988,6.8875,1.506499195995275,822.2753185280017,823.8500387870008,,,,,,816.3795910519984,816.3795910519984,816.3795910519984,816.3795910519984,816.3795910519984,816.3795910519984,816.3795910519984,816.3795910519984,0.010268949990859255,816.3795910519984,,,,,,282,f,23,2023-04-05_15h08.08.937,RL,2022.2.4,59.8594826185611,
0,0.3,0.225,0,69,69,69,,,,,,,,,,None,823.8500387870008,823.8500387870008,823.8500387870008,823.8500387870008,823.8500387870008,823.8500387870008,r,0.6824712079978781,824.5737271300022,824.5737271300022,824.5737271300022,824.5737271300022,824.5737271300022,824.5737271300022,824.8431247120025,824.8431247120025,826.5239447459899,826.5239447459899,826.56525843899,826.56525843899,826.56525843899,826.56525843899,826.56525843899,826.56525843899,826.56525843899,826.56525843899,826.56525843899,826.56525843899,826.56525843899,826.56525843899,826.56525843899,826.56525843899,826.56525843899,69,21,44,65,69,51,6.0,1.997459684003843,,,,,,,,,,,,,[],[],[],[],[],[],[],-0.6,3,,[],[],[],[],[],[],[],,,,,None,None,831.1038748849969,833.0377904060006,829.060478097992,829.060478097992,829.060478097992,829.060478097992,829.060478097992,,,,,,,,,,,,,,,,282,f,23,2023-04-05_15h08.08.937,RL,2022.2.4,59.8594826185611,
1,-0.3,-0.225,0,70,70,70,,,,,,,,,,None,833.0377904060006,833.0377904060006,833.0377904060006,833.0377904060006,833.0377904060006,833.0377904060006,r,0.5120664059941191,833.5923400960019,833.5923400960019,833.5923400960019,833.5923400960019,833.5923400960019,833.5923400960019,833.8778209540033,833.8778209540033,835.5092167109979,835.5092167109979,835.5328863089962,835.5328863089962,835.5328863089962,835.5328863089962,835.5328863089962,835.5328863089962,835.5328863089962,835.5328863089962,835.5328863089962,835.5328863089962,835.5328863089962,835.5328863089962,835.5328863089962,835.5328863089962,835.5328863089962,65,26,40,65,65,48,None,None,,,,,,,,,,,,,[],[],[],[],[],[],[],0.6,1,55,[0.0425],[-0.31],[1],[0],[0],[4.627906537003582],['tijiao_random_2'],842.7035750979994,842.7035750979994,842.7035750979994,842.7035750979994,5.7125,1.7819009759987239,844.5066464679985,846.3918597209995,,,,,,838.0630633830006,838.0630633830006,838.0630633830006,838.0630633830006,838.0630633830006,838.0630633830006,838.0630633830006,838.0630633830006,0.009745454997755587,838.0630633830006,,,,,,282,f,23,2023-04-05_15h08.08.937,RL,2022.2.4,59.8594826185611,
0,0.3,0.225,0,71,71,71,,,,,,,,,,None,846.3918597209995,846.3918597209995,846.3918597209995,846.3918597209995,846.3918597209995,846.3918597209995,r,0.31574232000275515,846.746467445002,846.746467445002,846.746467445002,846.746467445002,846.746467445002,846.746467445002,847.0159339949896,847.0159339949896,848.1336444030021,848.1336444030021,848.1562709709979,848.1562709709979,848.1562709709979,848.1562709709979,848.1562709709979,848.1562709709979,848.1562709709979,848.1562709709979,848.1562709709979,848.1562709709979,848.1562709709979,848.1562709709979,848.1562709709979,848.1562709709979,848.1562709709979,71,10,48,57,71,40,7.0,1.7231432090047747,,,,,,,,,,,,,[],[],[],[],[],[],[],-0.2,2,,[],[],[],[],[],[],[],,,,,None,None,852.4319689900003,854.1302538430027,850.6644298570027,850.6644298570027,850.6644298570027,850.6644298570027,850.6644298570027,,,,,,,,,,,,,,,,282,f,23,2023-04-05_15h08.08.937,RL,2022.2.4,59.8594826185611,
1,-0.3,-0.225,0,72,72,72,,,,,,,,,,None,854.1302538430027,854.1302538430027,854.1302538430027,854.1302538430027,854.1302538430027,854.1302538430027,r,0.5860883989953436,854.7681009630032,854.7681009630032,854.7681009630032,854.7681009630032,854.7681009630032,854.7681009630032,855.0384139119997,855.0384139119997,856.8407363699953,856.8407363699953,856.8811523939949,856.8811523939949,856.8811523939949,856.8811523939949,856.8811523939949,856.8811523939949,856.8811523939949,856.8811523939949,856.8811523939949,856.8811523939949,856.8811523939949,856.8811523939949,856.8811523939949,856.8811523939949,856.8811523939949,69,20,45,54,69,39,7.0,1.3391141269967193,,,,,,,,,,,,,[],[],[],[],[],[],[],0.2,2,,[],[],[],[],[],[],[],,,,,None,None,860.7668137629953,862.7679492899915,859.3848019829893,859.3848019829893,859.3848019829893,859.3848019829893,859.3848019829893,,,,,,,,,,,,,,,,282,f,23,2023-04-05_15h08.08.937,RL,2022.2.4,59.8594826185611,
0,0.3,0.225,0,73,73,73,,,,,,,,,,None,862.7679492899915,862.7679492899915,862.7679492899915,862.7679492899915,862.7679492899915,862.7679492899915,r,0.5412652320082998,863.3694567229977,863.3694567229977,863.3694567229977,863.3694567229977,863.3694567229977,863.3694567229977,863.6409963309998,863.6409963309998,864.924510582001,864.924510582001,864.9476030639926,864.9476030639926,864.9476030639926,864.9476030639926,864.9476030639926,864.9476030639926,864.9476030639926,864.9476030639926,864.9476030639926,864.9476030639926,864.9476030639926,864.9476030639926,864.9476030639926,864.9476030639926,864.9476030639926,70,18,49,50,70,48,None,None,,,,,,,,,,,,,[],[],[],[],[],[],[],-0.6,1,78,[-0.01],[-0.33625],[1],[0],[0],[2.8431185119989095],['tijiao_random_2'],870.3393518109951,870.3393518109951,870.3393518109951,870.3393518109951,10.8375,1.0761334790004184,871.4313528589992,873.3888808639895,,,,,,867.4755411560036,867.4755411560036,867.4755411560036,867.4755411560036,867.4755411560036,867.4755411560036,867.4755411560036,867.4755411560036,0.009742916998220608,867.4755411560036,,,,,,282,f,23,2023-04-05_15h08.08.937,RL,2022.2.4,59.8594826185611,
1,-0.3,-0.225,0,74,74,74,,,,,,,,,,None,873.3888808639895,873.3888808639895,873.3888808639895,873.3888808639895,873.3888808639895,873.3888808639895,r,0.4401186690083705,873.8714086279942,873.8714086279942,873.8714086279942,873.8714086279942,873.8714086279942,873.8714086279942,874.1461236619944,874.1461236619944,875.6799072349968,875.6799072349968,875.7194865459896,875.7194865459896,875.7194865459896,875.7194865459896,875.7194865459896,875.7194865459896,875.7194865459896,875.7194865459896,875.7194865459896,875.7194865459896,875.7194865459896,875.7194865459896,875.7194865459896,875.7194865459896,875.7194865459896,72,18,49,51,72,41,7.0,1.1779910199984442,,,,,,,,,,,,,[],[],[],[],[],[],[],-0.2,2,,[],[],[],[],[],[],[],,,,,None,None,879.4437934169982,881.1908577059949,878.2239889060002,878.2239889060002,878.2239889060002,878.2239889060002,878.2239889060002,,,,,,,,,,,,,,,,282,f,23,2023-04-05_15h08.08.937,RL,2022.2.4,59.8594826185611,
0,0.3,0.225,0,75,75,75,,,,,,,,,,q,1171.8705231829954,1171.8705231829954,1171.8705231829954,1171.8705231829954,1171.8705231829954,1171.8705231829954,r,0.9697661169921048,1172.8883718829893,1172.8883718829893,1172.8883718829893,1172.8883718829893,1172.8883718829893,1172.8883718829893,1173.1631648569892,1173.1631648569892,1175.0928825209994,1175.0928825209994,1175.1307928059978,1175.1307928059978,1175.1307928059978,1175.1307928059978,1175.1307928059978,1175.1307928059978,1175.1307928059978,1175.1307928059978,1175.1307928059978,1175.1307928059978,1175.1307928059978,1175.1307928059978,1175.1307928059978,1175.1307928059978,1175.1307928059978,62,11,53,56,62,40,None,None,,,,,,,,,,,,,[],[],[],[],[],[],[],-0.2,1,55,[0.10875],[-0.29875],[1],[0],[0],[3.2161212869978044],['tijiao_random_2'],1180.8933347239945,1180.8933347239945,1180.8933347239945,1180.8933347239945,5.8875,1.950569694992737,1182.8641744600027,1184.8704677289934,,,,,,1177.6627933479904,1177.6627933479904,1177.6627933479904,1177.6627933479904,1177.6627933479904,1177.6627933479904,1177.6627933479904,1177.6627933479904,0.009965461998945102,1177.6627933479904,881.1908577059949,881.1908577059949,290.6514811109955,,,282,f,23,2023-04-05_15h08.08.937,RL,2022.2.4,59.8594826185611,
1,-0.3,-0.225,0,76,76,76,,,,,,,,,,None,1184.8704677289934,1184.8704677289934,1184.8704677289934,1184.8704677289934,1184.8704677289934,1184.8704677289934,i,1.1413519530033227,1186.0577996409993,1186.0577996409993,1186.0577996409993,1186.0577996409993,1186.0577996409993,1186.0577996409993,1186.3297177269997,1186.3297177269997,1188.0763614049938,1188.0763614049938,1188.1171306140022,1188.1171306140022,1188.1171306140022,1188.1171306140022,1188.1171306140022,1188.1171306140022,1188.1171306140022,1188.1171306140022,1188.1171306140022,1188.1171306140022,1188.1171306140022,1188.1171306140022,1188.1171306140022,1188.1171306140022,1188.1171306140022,63,19,47,47,47,43,None,None,,,,,,,,,,,,,[],[],[],[],[],[],[],-0.2,1,33,[-0.02625],[-0.2875],[1],[0],[0],[3.509554104995914],['tijiao_random_2'],1194.176784572992,1194.176784572992,1194.176784572992,1194.176784572992,6.1125,1.56052738300059,1195.7538850659912,1197.2931845919957,,,,,,1190.645333929002,1190.645333929002,1190.645333929002,1190.645333929002,1190.645333929002,1190.645333929002,1190.645333929002,1190.645333929002,0.00985205800679978,1190.645333929002,,,,,,282,f,23,2023-04-05_15h08.08.937,RL,2022.2.4,59.8594826185611,
0,0.3,0.225,0,77,77,77,,,,,,,,,,None,1197.2931845919957,1197.2931845919957,1197.2931845919957,1197.2931845919957,1197.2931845919957,1197.2931845919957,r,0.3079298389930045,1197.6480335539964,1197.6480335539964,1197.6480335539964,1197.6480335539964,1197.6480335539964,1197.6480335539964,1197.9166409180034,1197.9166409180034,1199.668606006002,1199.668606006002,1199.709248603991,1199.709248603991,1199.709248603991,1199.709248603991,1199.709248603991,1199.709248603991,1199.709248603991,1199.709248603991,1199.709248603991,1199.709248603991,1199.709248603991,1199.709248603991,1199.709248603991,1199.709248603991,1199.709248603991,63,22,52,53,63,44,6.0,1.637678982995567,,,,,,,,,,,,,[],[],[],[],[],[],[],0.6,2,,[],[],[],[],[],[],[],,,,,None,None,1203.8991556289984,1205.630418161003,1202.2154469389934,1202.2154469389934,1202.2154469389934,1202.2154469389934,1202.2154469389934,,,,,,,,,,,,,,,,282,f,23,2023-04-05_15h08.08.937,RL,2022.2.4,59.8594826185611,
1,-0.3,-0.225,0,78,78,78,,,,,,,,,,None,1205.630418161003,1205.630418161003,1205.630418161003,1205.630418161003,1205.630418161003,1205.630418161003,f,0.5229546320042573,1206.1998712049972,1206.1998712049972,1206.1998712049972,1206.1998712049972,1206.1998712049972,1206.1998712049972,1206.4708613249968,1206.4708613249968,1208.0104644649982,1208.0104644649982,1208.0319936719898,1208.0319936719898,1208.0319936719898,1208.0319936719898,1208.0319936719898,1208.0319936719898,1208.0319936719898,1208.0319936719898,1208.0319936719898,1208.0319936719898,1208.0319936719898,1208.0319936719898,1208.0319936719898,1208.0319936719898,1208.0319936719898,66,20,42,49,20,44,1.0,2.0450881849974394,,,,,,,,,,,,,[],[],[],[],[],[],[],0.6,2,,[],[],[],[],[],[],[],,,,,None,None,1212.6182455949893,1214.1679419489956,1210.5319313599903,1210.5319313599903,1210.5319313599903,1210.5319313599903,1210.5319313599903,,,,,,,,,,,,,,,,282,f,23,2023-04-05_15h08.08.937,RL,2022.2.4,59.8594826185611,
0,0.3,0.225,0,79,79,79,,,,,,,,,,None,1214.1679419489956,1214.1679419489956,1214.1679419489956,1214.1679419489956,1214.1679419489956,1214.1679419489956,r,0.6137817260023439,1214.8203021859954,1214.8203021859954,1214.8203021859954,1214.8203021859954,1214.8203021859954,1214.8203021859954,1215.0908508959983,1215.0908508959983,1216.0952070409985,1216.0952070409985,1216.1349408919923,1216.1349408919923,1216.1349408919923,1216.1349408919923,1216.1349408919923,1216.1349408919923,1216.1349408919923,1216.1349408919923,1216.1349408919923,1216.1349408919923,1216.1349408919923,1216.1349408919923,1216.1349408919923,1216.1349408919923,1216.1349408919923,64,15,45,46,64,49,None,None,1218.649855183001,1218.649855183001,1218.649855183001,1218.649855183001,1218.649855183001,1218.649855183001,1218.649855183001,1218.649855183001,0.009142331007751636,1218.649855183001,66,66,[0.06375],[-0.27375],[1],[0],[0],[3.827219917002367],['tijiao'],-0.2,0,,[],[],[],[],[],[],[],1222.5074773840024,1222.5074773840024,1222.5074773840024,1222.5074773840024,7.9625,1.4689054290065542,1223.9977872430027,1225.6226377409912,,,,,,,,,,,,,,,,,,,,,282,f,23,2023-04-05_15h08.08.937,RL,2022.2.4,59.8594826185611,
1,-0.3,-0.225,0,80,80,80,,,,,,,,,,None,1225.6226377409912,1225.6226377409912,1225.6226377409912,1225.6226377409912,1225.6226377409912,1225.6226377409912,r,0.55425008200109,1226.2312536969985,1226.2312536969985,1226.2312536969985,1226.2312536969985,1226.2312536969985,1226.2312536969985,1226.512599951995,1226.512599951995,1228.2993436190009,1228.2993436190009,1228.3245517659961,1228.3245517659961,1228.3245517659961,1228.3245517659961,1228.3245517659961,1228.3245517659961,1228.3245517659961,1228.3245517659961,1228.3245517659961,1228.3245517659961,1228.3245517659961,1228.3245517659961,1228.3245517659961,1228.3245517659961,1228.3245517659961,70,15,43,43,70,32,7.0,1.1666544219915522,,,,,,,,,,,,,[],[],[],[],[],[],[],-0.2,3,,[],[],[],[],[],[],[],,,,,None,None,1232.0425091729994,1233.9104476520006,1230.834191461996,1230.834191461996,1230.834191461996,1230.834191461996,1230.834191461996,,,,,,,,,,,,,,,,282,f,23,2023-04-05_15h08.08.937,RL,2022.2.4,59.8594826185611,
0,0.3,0.225,0,81,81,81,,,,,,,,,,None,1233.9104476520006,1233.9104476520006,1233.9104476520006,1233.9104476520006,1233.9104476520006,1233.9104476520006,r,0.6317760149977403,1234.5962664199906,1234.5962664199906,1234.5962664199906,1234.5962664199906,1234.5962664199906,1234.5962664199906,1234.8679557619907,1234.8679557619907,1236.7352285149973,1236.7352285149973,1236.776168493001,1236.776168493001,1236.776168493001,1236.776168493001,1236.776168493001,1236.776168493001,1236.776168493001,1236.776168493001,1236.776168493001,1236.776168493001,1236.776168493001,1236.776168493001,1236.776168493001,1236.776168493001,1236.776168493001,65,24,47,45,65,34,7.0,1.2882318240008317,,,,,,,,,,,,,[],[],[],[],[],[],[],0.2,2,,[],[],[],[],[],[],[],,,,,None,None,1240.6162098700006,1242.4300025639968,1239.285214492993,1239.285214492993,1239.285214492993,1239.285214492993,1239.285214492993,,,,,,,,,,,,,,,,282,f,23,2023-04-05_15h08.08.937,RL,2022.2.4,59.8594826185611,
1,-0.3,-0.225,0,82,82,82,,,,,,,,,,None,1242.4300025639968,1242.4300025639968,1242.4300025639968,1242.4300025639968,1242.4300025639968,1242.4300025639968,r,0.6281382690067403,1243.099760001991,1243.099760001991,1243.099760001991,1243.099760001991,1243.099760001991,1243.099760001991,1243.3714680569974,1243.3714680569974,1245.0816895259923,1245.0816895259923,1245.102305954002,1245.102305954002,1245.102305954002,1245.102305954002,1245.102305954002,1245.102305954002,1245.102305954002,1245.102305954002,1245.102305954002,1245.102305954002,1245.102305954002,1245.102305954002,1245.102305954002,1245.102305954002,1245.102305954002,60,19,50,52,60,48,7.0,1.2463255379989278,,,,,,,,,,,,,[],[],[],[],[],[],[],-0.2,2,,[],[],[],[],[],[],[],,,,,None,None,1248.9045405990037,1250.7510014779982,1247.6157835929916,1247.6157835929916,1247.6157835929916,1247.6157835929916,1247.6157835929916,,,,,,,,,,,,,,,,282,f,23,2023-04-05_15h08.08.937,RL,2022.2.4,59.8594826185611,
0,0.3,0.225,0,83,83,83,,,,,,,,,,None,1250.7510014779982,1250.7510014779982,1250.7510014779982,1250.7510014779982,1250.7510014779982,1250.7510014779982,j,0.9628144129965222,1251.7561828899925,1251.7561828899925,1251.7561828899925,1251.7561828899925,1251.7561828899925,1251.7561828899925,1252.0252217359957,1252.0252217359957,1253.1034675109986,1253.1034675109986,1253.1432733989932,1253.1432733989932,1253.1432733989932,1253.1432733989932,1253.1432733989932,1253.1432733989932,1253.1432733989932,1253.1432733989932,1253.1432733989932,1253.1432733989932,1253.1432733989932,1253.1432733989932,1253.1432733989932,1253.1432733989932,1253.1432733989932,66,9,48,51,51,38,7.0,0.5803968270047335,,,,,,,,,,,,,[],[],[],[],[],[],[],0.6,2,,[],[],[],[],[],[],[],,,,,None,None,1256.2728852750006,1258.1714881700027,1255.64939180699,1255.64939180699,1255.64939180699,1255.64939180699,1255.64939180699,,,,,,,,,,,,,,,,282,f,23,2023-04-05_15h08.08.937,RL,2022.2.4,59.8594826185611,
1,-0.3,-0.225,0,84,84,84,,,,,,,,,,None,1258.1714881700027,1258.1714881700027,1258.1714881700027,1258.1714881700027,1258.1714881700027,1258.1714881700027,r,0.42338275800284464,1258.641344078991,1258.641344078991,1258.641344078991,1258.641344078991,1258.641344078991,1258.641344078991,1258.9110696290008,1258.9110696290008,1260.4502111990005,1260.4502111990005,1260.490618989992,1260.490618989992,1260.490618989992,1260.490618989992,1260.490618989992,1260.490618989992,1260.490618989992,1260.490618989992,1260.490618989992,1260.490618989992,1260.490618989992,1260.490618989992,1260.490618989992,1260.490618989992,1260.490618989992,72,14,43,47,72,55,7.0,0.7116261390037835,,,,,,,,,,,,,[],[],[],[],[],[],[],0.6,3,,[],[],[],[],[],[],[],,,,,None,None,1263.7478027879988,1265.6908248649997,1262.991943838002,1262.991943838002,1262.991943838002,1262.991943838002,1262.991943838002,,,,,,,,,,,,,,,,282,f,23,2023-04-05_15h08.08.937,RL,2022.2.4,59.8594826185611,
0,0.3,0.225,0,85,85,85,,,,,,,,,,None,1265.6908248649997,1265.6908248649997,1265.6908248649997,1265.6908248649997,1265.6908248649997,1265.6908248649997,r,0.49597640900174156,1266.231462783995,1266.231462783995,1266.231462783995,1266.231462783995,1266.231462783995,1266.231462783995,1266.5144267970027,1266.5144267970027,1268.3777431240014,1268.3777431240014,1268.400071778,1268.400071778,1268.400071778,1268.400071778,1268.400071778,1268.400071778,1268.400071778,1268.400071778,1268.400071778,1268.400071778,1268.400071778,1268.400071778,1268.400071778,1268.400071778,1268.400071778,68,11,52,64,68,60,7.0,0.8221913739980664,,,,,,,,,,,,,[],[],[],[],[],[],[],0.6,3,,[],[],[],[],[],[],[],,,,,None,None,1271.761168440993,1273.3460377159936,1270.8959003509954,1270.8959003509954,1270.8959003509954,1270.8959003509954,1270.8959003509954,,,,,,,,,,,,,,,,282,f,23,2023-04-05_15h08.08.937,RL,2022.2.4,59.8594826185611,
1,-0.3,-0.225,0,86,86,86,,,,,,,,,,None,1273.3460377159936,1273.3460377159936,1273.3460377159936,1273.3460377159936,1273.3460377159936,1273.3460377159936,r,0.5798665290058125,1273.9706094580033,1273.9706094580033,1273.9706094580033,1273.9706094580033,1273.9706094580033,1273.9706094580033,1274.2523802639917,1274.2523802639917,1275.2642475559987,1275.2642475559987,1275.284918060992,1275.284918060992,1275.284918060992,1275.284918060992,1275.284918060992,1275.284918060992,1275.284918060992,1275.284918060992,1275.284918060992,1275.284918060992,1275.284918060992,1275.284918060992,1275.284918060992,1275.284918060992,1275.284918060992,68,19,46,56,68,51,None,None,1277.8181582639954,1277.8181582639954,1277.8181582639954,1277.8181582639954,1277.8181582639954,1277.8181582639954,1277.8181582639954,1277.8181582639954,0.009522160995402373,1277.8181582639954,68,68,[0.02375],[-0.32125],[1],[0],[0],[3.4971015219925903],['tijiao'],0.2,0,,[],[],[],[],[],[],[],1281.3435315749957,1281.3435315749957,1281.3435315749957,1281.3435315749957,9.9,1.0701221640047152,1282.434678577003,1284.2507986099954,,,,,,,,,,,,,,,,,,,,,282,f,23,2023-04-05_15h08.08.937,RL,2022.2.4,59.8594826185611,
0,0.3,0.225,0,87,87,87,,,,,,,,,,None,1284.2507986099954,1284.2507986099954,1284.2507986099954,1284.2507986099954,1284.2507986099954,1284.2507986099954,r,0.3319351579993963,1284.6364941069914,1284.6364941069914,1284.6364941069914,1284.6364941069914,1284.6364941069914,1284.6364941069914,1284.9058332139975,1284.9058332139975,1286.4425830510008,1286.4425830510008,1286.483450685002,1286.483450685002,1286.483450685002,1286.483450685002,1286.483450685002,1286.483450685002,1286.483450685002,1286.483450685002,1286.483450685002,1286.483450685002,1286.483450685002,1286.483450685002,1286.483450685002,1286.483450685002,1286.483450685002,66,26,42,63,66,19,7.0,0.7037681189976865,,,,,,,,,,,,,[],[],[],[],[],[],[],0.6,3,,[],[],[],[],[],[],[],,,,,None,None,1289.7389263310033,1291.4879527059966,1288.9957976809965,1288.9957976809965,1288.9957976809965,1288.9957976809965,1288.9957976809965,,,,,,,,,,,,,,,,282,f,23,2023-04-05_15h08.08.937,RL,2022.2.4,59.8594826185611,
1,-0.3,-0.225,0,88,88,88,,,,,,,,,,None,1291.4879527059966,1291.4879527059966,1291.4879527059966,1291.4879527059966,1291.4879527059966,1291.4879527059966,r,0.43623400399519596,1291.975249791998,1291.975249791998,1291.975249791998,1291.975249791998,1291.975249791998,1291.975249791998,1292.2435509999923,1292.2435509999923,1294.2477127210004,1294.2477127210004,1294.2880319069955,1294.2880319069955,1294.2880319069955,1294.2880319069955,1294.2880319069955,1294.2880319069955,1294.2880319069955,1294.2880319069955,1294.2880319069955,1294.2880319069955,1294.2880319069955,1294.2880319069955,1294.2880319069955,1294.2880319069955,1294.2880319069955,74,19,43,60,74,26,None,None,,,,,,,,,,,,,[],[],[],[],[],[],[],-0.2,1,56,[0.13],[-0.295],[1],[0],[0],[6.089122260993463],['tijiao_random_2'],1302.9196999459964,1302.9196999459964,1302.9196999459964,1302.9196999459964,9.125,1.6188507299957564,1304.5605002630036,1306.4600831659918,,,,,,1296.8156494269933,1296.8156494269933,1296.8156494269933,1296.8156494269933,1296.8156494269933,1296.8156494269933,1296.8156494269933,1296.8156494269933,0.009814930002903566,1296.8156494269933,,,,,,282,f,23,2023-04-05_15h08.08.937,RL,2022.2.4,59.8594826185611,
0,0.3,0.225,0,89,89,89,,,,,,,,,,None,1306.4600831659918,1306.4600831659918,1306.4600831659918,1306.4600831659918,1306.4600831659918,1306.4600831659918,r,0.39685199900122825,1306.8977239119995,1306.8977239119995,1306.8977239119995,1306.8977239119995,1306.8977239119995,1306.8977239119995,1307.1680098109937,1307.1680098109937,1308.1636569699913,1308.1636569699913,1308.2059578560002,1308.2059578560002,1308.2059578560002,1308.2059578560002,1308.2059578560002,1308.2059578560002,1308.2059578560002,1308.2059578560002,1308.2059578560002,1308.2059578560002,1308.2059578560002,1308.2059578560002,1308.2059578560002,1308.2059578560002,1308.2059578560002,69,15,50,59,69,34,6.0,1.0277446359978057,,,,,,,,,,,,,[],[],[],[],[],[],[],0.6,3,,[],[],[],[],[],[],[],,,,,None,None,1311.7840518449957,1313.647843817991,1310.7070381840022,1310.7070381840022,1310.7070381840022,1310.7070381840022,1310.7070381840022,,,,,,,,,,,,,,,,282,f,23,2023-04-05_15h08.08.937,RL,2022.2.4,59.8594826185611,
1,-0.3,-0.225,0,90,90,90,,,,,,,,,,None,1313.647843817991,1313.647843817991,1313.647843817991,1313.647843817991,1313.647843817991,1313.647843817991,r,0.3348389769962523,1314.0334211519948,1314.0334211519948,1314.0334211519948,1314.0334211519948,1314.0334211519948,1314.0334211519948,1314.3073981740017,1314.3073981740017,1315.1777274530032,1315.1777274530032,1315.2169623539958,1315.2169623539958,1315.2169623539958,1315.2169623539958,1315.2169623539958,1315.2169623539958,1315.2169623539958,1315.2169623539958,1315.2169623539958,1315.2169623539958,1315.2169623539958,1315.2169623539958,1315.2169623539958,1315.2169623539958,1315.2169623539958,67,31,38,60,67,50,None,None,1317.7332226900035,1317.7332226900035,1317.7332226900035,1317.7332226900035,1317.7332226900035,1317.7332226900035,1317.7332226900035,1317.7332226900035,0.009365926001919433,1317.7332226900035,68,68,[0.05625],[-0.29875],[1],[0],[0],[3.301017151999986],['tijiao'],0.6,0,,[],[],[],[],[],[],[],1321.0648103099957,1321.0648103099957,1321.0648103099957,1321.0648103099957,9.049999999999999,1.167330865006079,1322.2497051050013,1324.2035843129997,,,,,,,,,,,,,,,,,,,,,282,f,23,2023-04-05_15h08.08.937,RL,2022.2.4,59.8594826185611,
0,0.3,0.225,0,91,91,91,,,,,,,,,,None,1324.2035843129997,1324.2035843129997,1324.2035843129997,1324.2035843129997,1324.2035843129997,1324.2035843129997,r,0.37375479900219943,1324.6262847719918,1324.6262847719918,1324.6262847719918,1324.6262847719918,1324.6262847719918,1324.6262847719918,1324.8944611299958,1324.8944611299958,1325.7366270319908,1325.7366270319908,1325.7574361040024,1325.7574361040024,1325.7574361040024,1325.7574361040024,1325.7574361040024,1325.7574361040024,1325.7574361040024,1325.7574361040024,1325.7574361040024,1325.7574361040024,1325.7574361040024,1325.7574361040024,1325.7574361040024,1325.7574361040024,1325.7574361040024,74,24,37,57,74,47,7.0,1.2722493969922652,,,,,,,,,,,,,[],[],[],[],[],[],[],0.2,3,,[],[],[],[],[],[],[],,,,,None,None,1329.5727447550016,1331.323480402003,1328.2577682440024,1328.2577682440024,1328.2577682440024,1328.2577682440024,1328.2577682440024,,,,,,,,,,,,,,,,282,f,23,2023-04-05_15h08.08.937,RL,2022.2.4,59.8594826185611,
1,-0.3,-0.225,0,92,92,92,,,,,,,,,,None,1331.323480402003,1331.323480402003,1331.323480402003,1331.323480402003,1331.323480402003,1331.323480402003,r,0.35590280599717516,1331.726364934002,1331.726364934002,1331.726364934002,1331.726364934002,1331.726364934002,1331.726364934002,1331.9974284350028,1331.9974284350028,1333.4454149869998,1333.4454149869998,1333.469109519996,1333.469109519996,1333.469109519996,1333.469109519996,1333.469109519996,1333.469109519996,1333.469109519996,1333.469109519996,1333.469109519996,1333.469109519996,1333.469109519996,1333.469109519996,1333.469109519996,1333.469109519996,1333.469109519996,59,24,41,54,59,54,None,None,,,,,,,,,,,,,[],[],[],[],[],[],[],-0.6,1,68,[0.07125],[-0.265],[1],[0],[0],[3.462411932996474],['tijiao_random_2'],1339.4782922070008,1339.4782922070008,1339.4782922070008,1339.4782922070008,10.025,1.6556016399990767,1341.1559178949974,1342.978361925998,,,,,,1336.001395193991,1336.001395193991,1336.001395193991,1336.001395193991,1336.001395193991,1336.001395193991,1336.001395193991,1336.001395193991,0.010623885988024995,1336.001395193991,,,,,,282,f,23,2023-04-05_15h08.08.937,RL,2022.2.4,59.8594826185611,
