bandit0,black_x_pos_random,black_y_pos_random,trials.thisRepN,trials.thisTrialN,trials.thisN,trials.thisIndex,instru_img1.started,instru_resp.started,instru_resp.keys,instru_resp.rt,instru_img2.started,instru_resp2.started,instru_resp2.keys,instru_resp2.rt,fixbefore_2.started,rest_response.keys,red.started,green.started,yellow.started,blue.started,choose_bandit.started,Fixation.started,choose_bandit.keys,choose_bandit.rt,black.started,red_2.started,green_2.started,yellow_2.started,blue_2.started,fixation_2.started,docs.started,wait_playerB.started,docs.stopped,wait_playerB.stopped,black.stopped,red_2.stopped,green_2.stopped,yellow_2.stopped,blue_2.stopped,fixation_2.stopped,black_com.started,reward_sub.started,palyerb.started,reward__sub.started,compare.started,red_compare.started,green_com.started,yellow_com.started,blue_com.started,rewardyellow,rewardred,rewardblue,rewardgreen,subchoose,playerb,slider.response,slider.rt,expectself.started,expect_self_black.started,expect_self.started,expect_self_red.started,expect_self_green.started,expect_self_yellow.started,expect_self_blue.started,tijiao.started,tijiao_click.started,check.started,expectself.text,value_expect_self,tijiao_click.x,tijiao_click.y,tijiao_click.leftButton,tijiao_click.midButton,tijiao_click.rightButton,tijiao_click.time,tijiao_click.clicked_name,random_whicharm,whether_ask,expect_random_3.text,tijiao_random.x,tijiao_random.y,tijiao_random.leftButton,tijiao_random.midButton,tijiao_random.rightButton,tijiao_random.time,tijiao_random.clicked_name,slider_2.started,image_7.started,confi.started,notconfi.started,slider_2.response,slider_2.rt,intertrialfix.started,intertrialfix.stopped,jiantou_random.started,expect_red.started,expect_green.started,expect_yellow.started,expect_blue.started,expect_random_2.started,expect_random_3.started,tijiao_random_2.started,tijiao_random.started,check_2.started,image_3.started,slider.started,text.started,image_4.started,image_5.started,rest_image.started,rest_response.started,rest_response.rt,participant,Gender,Age,date,expName,psychopyVersion,frameRate,
,,,,,,,41.893334202992264,41.893334202992264,space,12.092882128999918,,,,,,,,,,,,,,,,,,,,,,,,,,,,,,,,,,,,,,,,,,,,,,,,,,,,,,,,,,,,,,,,,,,,,,,,,,,,,,,,,,,,,,,,,,,,,,,,,,,,,,,283,f,19,2023-04-05_13h47.30.249,RL,2022.2.4,60.00107522186719,
,,,,,,,,,,,54.04460157599533,54.04460157599533,s,46.88435979699716,,,,,,,,,,,,,,,,,,,,,,,,,,,,,,,,,,,,,,,,,,,,,,,,,,,,,,,,,,,,,,,,,,,,,,,,,,,,,,,,,,,,,,,,,,,,,,,,,,,283,f,19,2023-04-05_13h47.30.249,RL,2022.2.4,60.00107522186719,
1,-0.3,-0.225,0,0,0,0,,,,,,,,,100.97325630299747,None,102.03242541699728,102.03242541699728,102.03242541699728,102.03242541699728,102.03242541699728,102.03242541699728,j,0.650842699003988,102.75203487199906,102.75203487199906,102.75203487199906,102.75203487199906,102.75203487199906,102.75203487199906,103.00978585299163,103.00978585299163,104.40634678700007,104.40634678700007,104.4511132609914,104.4511132609914,104.4511132609914,104.4511132609914,104.4511132609914,104.4511132609914,104.4511132609914,104.4511132609914,104.4511132609914,104.4511132609914,104.4511132609914,104.4511132609914,104.4511132609914,104.4511132609914,104.4511132609914,41,47,54,62,62,49,None,None,106.99830068199662,106.99830068199662,106.99830068199662,106.99830068199662,106.99830068199662,106.99830068199662,106.99830068199662,106.99830068199662,0.014341987000079826,106.99830068199662,62,62,[0.075],[-0.27875],[1],[0],[0],[12.594765132002067],['tijiao'],-0.2,0,,[],[],[],[],[],[],[],119.81364387000212,119.81364387000212,119.81364387000212,119.81364387000212,2.15,6.663815274994704,126.48169869100093,128.37849078800355,,,,,,,,,,,,,,,,,,,283,f,19,2023-04-05_13h47.30.249,RL,2022.2.4,60.00107522186719,
0,0.3,0.225,0,1,1,1,,,,,,,,,,None,128.37849078800355,128.37849078800355,128.37849078800355,128.37849078800355,128.37849078800355,128.37849078800355,r,0.4749475500138942,128.907861751999,128.907861751999,128.907861751999,128.907861751999,128.907861751999,128.907861751999,129.18382630999258,129.18382630999258,130.0064929969958,130.0064929969958,130.0489461840043,130.0489461840043,130.0489461840043,130.0489461840043,130.0489461840043,130.0489461840043,130.0489461840043,130.0489461840043,130.0489461840043,130.0489461840043,130.0489461840043,130.0489461840043,130.0489461840043,130.0489461840043,130.0489461840043,30,35,56,66,30,33,None,None,,,,,,,,,,,,,[],[],[],[],[],[],[],0.6,1,62,[0.06625],[-0.27875],[1],[0],[0],[8.38022809199174],['tijiao_random_2'],140.97161346000212,140.97161346000212,140.97161346000212,140.97161346000212,2.0625,2.5670699479960604,143.5579732329934,145.28549162700074,132.57273844600422,132.57273844600422,132.57273844600422,132.57273844600422,132.57273844600422,132.57273844600422,132.57273844600422,132.57273844600422,0.010244376986520365,132.57273844600422,,,,,,,,,283,f,19,2023-04-05_13h47.30.249,RL,2022.2.4,60.00107522186719,
1,-0.3,-0.225,0,2,2,2,,,,,,,,,,None,145.28549162700074,145.28549162700074,145.28549162700074,145.28549162700074,145.28549162700074,145.28549162700074,f,0.766041327995481,146.09553730899643,146.09553730899643,146.09553730899643,146.09553730899643,146.09553730899643,146.09553730899643,146.36151220899774,146.36151220899774,147.8941498639906,147.8941498639906,147.95110774399654,147.95110774399654,147.95110774399654,147.95110774399654,147.95110774399654,147.95110774399654,147.95110774399654,147.95110774399654,147.95110774399654,147.95110774399654,147.95110774399654,147.95110774399654,147.95110774399654,147.95110774399654,147.95110774399654,35,31,44,65,31,42,None,None,,,,,,,,,,,,,[],[],[],[],[],[],[],0.2,1,42,[-0.0475],[-0.2825],[1],[0],[0],[4.451927804999286],['tijiao_random_2'],154.94848574599018,154.94848574599018,154.94848574599018,154.94848574599018,6.9375,1.6548977569909766,156.62560765499074,158.5923605220014,150.4806856649957,150.4806856649957,150.4806856649957,150.4806856649957,150.4806856649957,150.4806856649957,150.4806856649957,150.4806856649957,0.010100886996951886,150.4806856649957,,,,,,,,,283,f,19,2023-04-05_13h47.30.249,RL,2022.2.4,60.00107522186719,
0,0.3,0.225,0,3,3,3,,,,,,,,,,None,158.5923605220014,158.5923605220014,158.5923605220014,158.5923605220014,158.5923605220014,158.5923605220014,i,0.6361666119919391,159.27829538600054,159.27829538600054,159.27829538600054,159.27829538600054,159.27829538600054,159.27829538600054,159.54805696599942,159.54805696599942,161.18680902699998,161.18680902699998,161.22720863399445,161.22720863399445,161.22720863399445,161.22720863399445,161.22720863399445,161.22720863399445,161.22720863399445,161.22720863399445,161.22720863399445,161.22720863399445,161.22720863399445,161.22720863399445,161.22720863399445,161.22720863399445,161.22720863399445,30,37,40,54,40,38,None,None,,,,,,,,,,,,,[],[],[],[],[],[],[],-0.2,1,30,"[0.03625, 0.0275]","[-0.23875, -0.26]","[1, 1]","[0, 0]","[0, 0]","[5.303697897994425, 6.0197815540013835]",['tijiao_random_2'],169.7906881069939,169.7906881069939,169.7906881069939,169.7906881069939,3.1500000000000004,2.706010226989747,172.51695052700234,174.51639102600166,163.7501320099982,163.7501320099982,163.7501320099982,163.7501320099982,163.7501320099982,163.7501320099982,163.7501320099982,163.7501320099982,0.010609722012304701,163.7501320099982,,,,,,,,,283,f,19,2023-04-05_13h47.30.249,RL,2022.2.4,60.00107522186719,
1,-0.3,-0.225,0,4,4,4,,,,,,,,,,None,174.51639102600166,174.51639102600166,174.51639102600166,174.51639102600166,174.51639102600166,174.51639102600166,j,0.49264440800470766,175.0525114429911,175.0525114429911,175.0525114429911,175.0525114429911,175.0525114429911,175.0525114429911,175.32381706299202,175.32381706299202,177.03248491999693,177.03248491999693,177.07320934699965,177.07320934699965,177.07320934699965,177.07320934699965,177.07320934699965,177.07320934699965,177.07320934699965,177.07320934699965,177.07320934699965,177.07320934699965,177.07320934699965,177.07320934699965,177.07320934699965,177.07320934699965,177.07320934699965,29,36,36,55,55,48,None,None,179.59780560400395,179.59780560400395,179.59780560400395,179.59780560400395,179.59780560400395,179.59780560400395,179.59780560400395,179.59780560400395,0.008343616995261982,179.59780560400395,55,55,[-0.11],[-0.2575],[1],[0],[0],[5.947041046994855],['tijiao'],0.2,0,,[],[],[],[],[],[],[],185.57797574499273,185.57797574499273,185.57797574499273,185.57797574499273,3.0250000000000004,1.2753056999936234,186.87215751799522,188.68952726499992,,,,,,,,,,,,,,,,,,,283,f,19,2023-04-05_13h47.30.249,RL,2022.2.4,60.00107522186719,
0,0.3,0.225,0,5,5,5,,,,,,,,,,None,188.68952726499992,188.68952726499992,188.68952726499992,188.68952726499992,188.68952726499992,188.68952726499992,f,0.6307303520006826,189.36295047900057,189.36295047900057,189.36295047900057,189.36295047900057,189.36295047900057,189.36295047900057,189.63397087500198,189.63397087500198,190.79170780700224,190.79170780700224,190.83225893299095,190.83225893299095,190.83225893299095,190.83225893299095,190.83225893299095,190.83225893299095,190.83225893299095,190.83225893299095,190.83225893299095,190.83225893299095,190.83225893299095,190.83225893299095,190.83225893299095,190.83225893299095,190.83225893299095,23,31,43,56,31,85,None,None,193.3660329300037,193.3660329300037,193.3660329300037,193.3660329300037,193.3660329300037,193.3660329300037,193.3660329300037,193.3660329300037,0.008816269008093514,193.3660329300037,31,31,[-0.0325],[-0.29],[1],[0],[0],[8.995830311003374],['tijiao'],-0.6,0,,[],[],[],[],[],[],[],202.41282909999427,202.41282909999427,202.41282909999427,202.41282909999427,2.9875,3.3902710039983504,205.80397872399772,207.36448256300355,,,,,,,,,,,,,,,,,,,283,f,19,2023-04-05_13h47.30.249,RL,2022.2.4,60.00107522186719,
1,-0.3,-0.225,0,6,6,6,,,,,,,,,,None,207.36448256300355,207.36448256300355,207.36448256300355,207.36448256300355,207.36448256300355,207.36448256300355,j,0.3694876069930615,207.7751311460015,207.7751311460015,207.7751311460015,207.7751311460015,207.7751311460015,207.7751311460015,208.05143115099054,208.05143115099054,209.25028295199445,209.25028295199445,209.29072233800252,209.29072233800252,209.29072233800252,209.29072233800252,209.29072233800252,209.29072233800252,209.29072233800252,209.29072233800252,209.29072233800252,209.29072233800252,209.29072233800252,209.29072233800252,209.29072233800252,209.29072233800252,209.29072233800252,30,21,46,54,54,42,4.0,8.975628150001285,,,,,,,,,,,,,[],[],[],[],[],[],[],-0.6,3,,[],[],[],[],[],[],[],,,,,None,None,220.8456196229963,222.45430389599642,,,,,,,,,,,211.8010756970034,211.8010756970034,211.8010756970034,211.8010756970034,211.8010756970034,,,,283,f,19,2023-04-05_13h47.30.249,RL,2022.2.4,60.00107522186719,
0,0.3,0.225,0,7,7,7,,,,,,,,,,None,222.45430389599642,222.45430389599642,222.45430389599642,222.45430389599642,222.45430389599642,222.45430389599642,f,0.4682186829886632,222.97624915499182,222.97624915499182,222.97624915499182,222.97624915499182,222.97624915499182,222.97624915499182,223.2448555329902,223.2448555329902,225.11756163999962,225.11756163999962,225.15404169500107,225.15404169500107,225.15404169500107,225.15404169500107,225.15404169500107,225.15404169500107,225.15404169500107,225.15404169500107,225.15404169500107,225.15404169500107,225.15404169500107,225.15404169500107,225.15404169500107,225.15404169500107,225.15404169500107,36,23,51,55,23,46,2.0,3.6477037019940326,,,,,,,,,,,,,[],[],[],[],[],[],[],0.2,2,,[],[],[],[],[],[],[],,,,,None,None,231.3481252539932,233.27764453199052,,,,,,,,,,,227.6563147889974,227.6563147889974,227.6563147889974,227.6563147889974,227.6563147889974,,,,283,f,19,2023-04-05_13h47.30.249,RL,2022.2.4,60.00107522186719,
1,-0.3,-0.225,0,8,8,8,,,,,,,,,,None,233.27764453199052,233.27764453199052,233.27764453199052,233.27764453199052,233.27764453199052,233.27764453199052,j,0.5132088800019119,233.82934457500232,233.82934457500232,233.82934457500232,233.82934457500232,233.82934457500232,233.82934457500232,234.10328140300408,234.10328140300408,235.1700183619978,235.1700183619978,235.1954926699982,235.1954926699982,235.1954926699982,235.1954926699982,235.1954926699982,235.1954926699982,235.1954926699982,235.1954926699982,235.1954926699982,235.1954926699982,235.1954926699982,235.1954926699982,235.1954926699982,235.1954926699982,235.1954926699982,24,31,51,48,48,40,5.0,3.0269005720037967,,,,,,,,,,,,,[],[],[],[],[],[],[],0.2,2,,[],[],[],[],[],[],[],,,,,None,None,240.77086356499058,242.3317052009952,,,,,,,,,,,237.70087179999973,237.70087179999973,237.70087179999973,237.70087179999973,237.70087179999973,,,,283,f,19,2023-04-05_13h47.30.249,RL,2022.2.4,60.00107522186719,
0,0.3,0.225,0,9,9,9,,,,,,,,,,None,242.3317052009952,242.3317052009952,242.3317052009952,242.3317052009952,242.3317052009952,242.3317052009952,r,0.4090270410088124,242.78963181900326,242.78963181900326,242.78963181900326,242.78963181900326,242.78963181900326,242.78963181900326,243.07269621400337,243.07269621400337,244.257825527995,244.257825527995,244.28339077800047,244.28339077800047,244.28339077800047,244.28339077800047,244.28339077800047,244.28339077800047,244.28339077800047,244.28339077800047,244.28339077800047,244.28339077800047,244.28339077800047,244.28339077800047,244.28339077800047,244.28339077800047,244.28339077800047,36,33,46,51,36,43,3.0,5.182607089998783,,,,,,,,,,,,,[],[],[],[],[],[],[],-0.2,3,,[],[],[],[],[],[],[],,,,,None,None,252.00988097299705,253.57024081700365,,,,,,,,,,,246.78299693799636,246.78299693799636,246.78299693799636,246.78299693799636,246.78299693799636,,,,283,f,19,2023-04-05_13h47.30.249,RL,2022.2.4,60.00107522186719,
1,-0.3,-0.225,0,10,10,10,,,,,,,,,,None,253.57024081700365,253.57024081700365,253.57024081700365,253.57024081700365,253.57024081700365,253.57024081700365,j,0.5993757440010086,254.21298172599927,254.21298172599927,254.21298172599927,254.21298172599927,254.21298172599927,254.21298172599927,254.48187449100078,254.48187449100078,256.15398865599127,256.15398865599127,256.1952980799979,256.1952980799979,256.1952980799979,256.1952980799979,256.1952980799979,256.1952980799979,256.1952980799979,256.1952980799979,256.1952980799979,256.1952980799979,256.1952980799979,256.1952980799979,256.1952980799979,256.1952980799979,256.1952980799979,29,31,50,55,55,29,None,None,,,,,,,,,,,,,[],[],[],[],[],[],[],0.6,1,55,[-0.00875],[-0.29375],[1],[0],[0],[6.4347719740035245],['tijiao_random_2'],265.18360649199167,265.18360649199167,265.18360649199167,265.18360649199167,9.95,4.893929758007289,270.09840776899364,271.84531026199693,258.7294433499919,258.7294433499919,258.7294433499919,258.7294433499919,258.7294433499919,258.7294433499919,258.7294433499919,258.7294433499919,0.010155021998798475,258.7294433499919,,,,,,,,,283,f,19,2023-04-05_13h47.30.249,RL,2022.2.4,60.00107522186719,
0,0.3,0.225,0,11,11,11,,,,,,,,,,None,271.84531026199693,271.84531026199693,271.84531026199693,271.84531026199693,271.84531026199693,271.84531026199693,i,1.0173913210019236,272.9018608759943,272.9018608759943,272.9018608759943,272.9018608759943,272.9018608759943,272.9018608759943,273.17162753899174,273.17162753899174,275.15621649900277,275.15621649900277,275.196553856993,275.196553856993,275.196553856993,275.196553856993,275.196553856993,275.196553856993,275.196553856993,275.196553856993,275.196553856993,275.196553856993,275.196553856993,275.196553856993,275.196553856993,275.196553856993,275.196553856993,36,37,47,50,47,77,2.0,2.594941221002955,,,,,,,,,,,,,[],[],[],[],[],[],[],-0.6,3,,[],[],[],[],[],[],[],,,,,None,None,280.3368009929982,281.88395086699165,,,,,,,,,,,277.6960901519924,277.6960901519924,277.6960901519924,277.6960901519924,277.6960901519924,,,,283,f,19,2023-04-05_13h47.30.249,RL,2022.2.4,60.00107522186719,
1,-0.3,-0.225,0,12,12,12,,,,,,,,,,None,281.88395086699165,281.88395086699165,281.88395086699165,281.88395086699165,281.88395086699165,281.88395086699165,f,0.5712356059957528,282.506511065003,282.506511065003,282.506511065003,282.506511065003,282.506511065003,282.506511065003,282.7733046999929,282.7733046999929,283.82426370600297,283.82426370600297,283.8661847100011,283.8661847100011,283.8661847100011,283.8661847100011,283.8661847100011,283.8661847100011,283.8661847100011,283.8661847100011,283.8661847100011,283.8661847100011,283.8661847100011,283.8661847100011,283.8661847100011,283.8661847100011,283.8661847100011,30,32,51,44,32,75,1.0,10.5178934840078,,,,,,,,,,,,,[],[],[],[],[],[],[],-0.6,2,,[],[],[],[],[],[],[],,,,,None,None,296.9290989529982,298.8245356569969,,,,,,,,,,,286.36800522099657,286.36800522099657,286.36800522099657,286.36800522099657,286.36800522099657,,,,283,f,19,2023-04-05_13h47.30.249,RL,2022.2.4,60.00107522186719,
0,0.3,0.225,0,13,13,13,,,,,,,,,,None,298.8245356569969,298.8245356569969,298.8245356569969,298.8245356569969,298.8245356569969,298.8245356569969,r,0.3830122140061576,299.2499800270016,299.2499800270016,299.2499800270016,299.2499800270016,299.2499800270016,299.2499800270016,299.5185084870027,299.5185084870027,300.8690139829996,300.8690139829996,300.90896891299053,300.90896891299053,300.90896891299053,300.90896891299053,300.90896891299053,300.90896891299053,300.90896891299053,300.90896891299053,300.90896891299053,300.90896891299053,300.90896891299053,300.90896891299053,300.90896891299053,300.90896891299053,300.90896891299053,41,44,57,48,41,21,None,None,303.42124716700346,303.42124716700346,303.42124716700346,303.42124716700346,303.42124716700346,303.42124716700346,303.42124716700346,303.42124716700346,0.009679196009528823,303.42124716700346,41,41,[0.10125],[-0.30625],[1],[0],[0],[16.187481807995937],['tijiao'],0.6,0,,[],[],[],[],[],[],[],319.6472200999997,319.6472200999997,319.6472200999997,319.6472200999997,2.05,2.026304600003641,321.68991723199724,323.5023292699916,,,,,,,,,,,,,,,,,,,283,f,19,2023-04-05_13h47.30.249,RL,2022.2.4,60.00107522186719,
1,-0.3,-0.225,0,14,14,14,,,,,,,,,,None,323.5023292699916,323.5023292699916,323.5023292699916,323.5023292699916,323.5023292699916,323.5023292699916,r,0.8920979820104549,324.44557249799254,324.44557249799254,324.44557249799254,324.44557249799254,324.44557249799254,324.44557249799254,324.71149852599774,324.71149852599774,325.61627222599054,325.61627222599054,325.6550837840041,325.6550837840041,325.6550837840041,325.6550837840041,325.6550837840041,325.6550837840041,325.6550837840041,325.6550837840041,325.6550837840041,325.6550837840041,325.6550837840041,325.6550837840041,325.6550837840041,325.6550837840041,325.6550837840041,34,31,55,61,34,35,4.0,3.186447711996152,,,,,,,,,,,,,[],[],[],[],[],[],[],-0.6,3,,[],[],[],[],[],[],[],,,,,None,None,331.3946805500018,333.0082345690025,,,,,,,,,,,328.16361208900344,328.16361208900344,328.16361208900344,328.16361208900344,328.16361208900344,,,,283,f,19,2023-04-05_13h47.30.249,RL,2022.2.4,60.00107522186719,
0,0.3,0.225,0,15,15,15,,,,,,,,,,None,333.0082345690025,333.0082345690025,333.0082345690025,333.0082345690025,333.0082345690025,333.0082345690025,r,0.5114740999997593,333.56039639300434,333.56039639300434,333.56039639300434,333.56039639300434,333.56039639300434,333.56039639300434,333.8363524930028,333.8363524930028,334.77087320399005,334.77087320399005,334.8101467499946,334.8101467499946,334.8101467499946,334.8101467499946,334.8101467499946,334.8101467499946,334.8101467499946,334.8101467499946,334.8101467499946,334.8101467499946,334.8101467499946,334.8101467499946,334.8101467499946,334.8101467499946,334.8101467499946,32,34,66,56,32,73,None,None,337.3335060660029,337.3335060660029,337.3335060660029,337.3335060660029,337.3335060660029,337.3335060660029,337.3335060660029,337.3335060660029,0.008821698997053318,337.3335060660029,32,32,[0.05],[-0.3175],[1],[0],[0],[15.029464022998582],['tijiao'],-0.2,0,,[],[],[],[],[],[],[],352.39536665299966,352.39536665299966,352.39536665299966,352.39536665299966,2.975,3.4038924669875996,355.81965566000144,357.4183307749918,,,,,,,,,,,,,,,,,,,283,f,19,2023-04-05_13h47.30.249,RL,2022.2.4,60.00107522186719,
1,-0.3,-0.225,0,16,16,16,,,,,,,,,,None,357.4183307749918,357.4183307749918,357.4183307749918,357.4183307749918,357.4183307749918,357.4183307749918,f,0.40141840699652676,357.85951314799604,357.85951314799604,357.85951314799604,357.85951314799604,357.85951314799604,357.85951314799604,358.1267009279982,358.1267009279982,359.01041576800344,359.01041576800344,359.05165295400366,359.05165295400366,359.05165295400366,359.05165295400366,359.05165295400366,359.05165295400366,359.05165295400366,359.05165295400366,359.05165295400366,359.05165295400366,359.05165295400366,359.05165295400366,359.05165295400366,359.05165295400366,359.05165295400366,35,38,52,59,38,74,None,None,361.5710784230032,361.5710784230032,361.5710784230032,361.5710784230032,361.5710784230032,361.5710784230032,361.5710784230032,361.5710784230032,0.009039710013894364,361.5710784230032,38,38,[-0.06125],[-0.31625],[1],[0],[0],[13.933169126990833],['tijiao'],-0.2,0,,[],[],[],[],[],[],[],375.5323029229912,375.5323029229912,375.5323029229912,375.5323029229912,1.9749999999999996,2.420555002987385,377.97326149899163,379.6471297359967,,,,,,,,,,,,,,,,,,,283,f,19,2023-04-05_13h47.30.249,RL,2022.2.4,60.00107522186719,
0,0.3,0.225,0,17,17,17,,,,,,,,,,None,379.6471297359967,379.6471297359967,379.6471297359967,379.6471297359967,379.6471297359967,379.6471297359967,i,0.6889179839927237,380.38368462199287,380.38368462199287,380.38368462199287,380.38368462199287,380.38368462199287,380.38368462199287,380.6528306590044,380.6528306590044,381.80736573500326,381.80736573500326,381.8474026699987,381.8474026699987,381.8474026699987,381.8474026699987,381.8474026699987,381.8474026699987,381.8474026699987,381.8474026699987,381.8474026699987,381.8474026699987,381.8474026699987,381.8474026699987,381.8474026699987,381.8474026699987,381.8474026699987,27,36,48,67,48,22,None,None,384.36637978100043,384.36637978100043,384.36637978100043,384.36637978100043,384.36637978100043,384.36637978100043,384.36637978100043,384.36637978100043,0.00930300100299064,384.36637978100043,30,30,[-0.02875],[-0.3175],[1],[0],[0],[12.863077670001076],['tijiao'],0.2,0,,[],[],[],[],[],[],[],397.25983658299083,397.25983658299083,397.25983658299083,397.25983658299083,2.0749999999999997,1.4328262920025736,398.71203242399497,400.47349475699593,,,,,,,,,,,,,,,,,,,283,f,19,2023-04-05_13h47.30.249,RL,2022.2.4,60.00107522186719,
1,-0.3,-0.225,0,18,18,18,,,,,,,,,,None,400.47349475699593,400.47349475699593,400.47349475699593,400.47349475699593,400.47349475699593,400.47349475699593,i,0.38327868800843135,400.91008989099646,400.91008989099646,400.91008989099646,400.91008989099646,400.91008989099646,400.91008989099646,401.1812571490009,401.1812571490009,403.0013158919901,403.0013158919901,403.0225027629931,403.0225027629931,403.0225027629931,403.0225027629931,403.0225027629931,403.0225027629931,403.0225027629931,403.0225027629931,403.0225027629931,403.0225027629931,403.0225027629931,403.0225027629931,403.0225027629931,403.0225027629931,403.0225027629931,34,42,56,54,56,30,None,None,,,,,,,,,,,,,[],[],[],[],[],[],[],0.6,1,20,"[0.08625, 0.0625]","[-0.36, -0.255]","[1, 1]","[0, 0]","[0, 0]","[10.67552868599887, 12.364655596000375]",['tijiao_random_2'],417.93579329499335,417.93579329499335,417.93579329499335,417.93579329499335,3.0374999999999996,1.2908541649958352,419.2447482599964,420.9003776299942,405.5547480660025,405.5547480660025,405.5547480660025,405.5547480660025,405.5547480660025,405.5547480660025,405.5547480660025,405.5547480660025,0.010544735006988049,405.5547480660025,,,,,,,,,283,f,19,2023-04-05_13h47.30.249,RL,2022.2.4,60.00107522186719,
0,0.3,0.225,0,19,19,19,,,,,,,,,,None,420.9003776299942,420.9003776299942,420.9003776299942,420.9003776299942,420.9003776299942,420.9003776299942,r,0.6115413499937858,421.5564375679969,421.5564375679969,421.5564375679969,421.5564375679969,421.5564375679969,421.5564375679969,421.8226505920029,421.8226505920029,423.0515287909948,423.0515287909948,423.09193504699215,423.09193504699215,423.09193504699215,423.09193504699215,423.09193504699215,423.09193504699215,423.09193504699215,423.09193504699215,423.09193504699215,423.09193504699215,423.09193504699215,423.09193504699215,423.09193504699215,423.09193504699215,423.09193504699215,42,38,56,69,42,68,2.0,2.2600634819973493,,,,,,,,,,,,,[],[],[],[],[],[],[],-0.2,2,,[],[],[],[],[],[],[],,,,,None,None,427.8898459600023,429.6718046969909,,,,,,,,,,,425.58578619400214,425.58578619400214,425.58578619400214,425.58578619400214,425.58578619400214,,,,283,f,19,2023-04-05_13h47.30.249,RL,2022.2.4,60.00107522186719,
1,-0.3,-0.225,0,20,20,20,,,,,,,,,,None,429.6718046969909,429.6718046969909,429.6718046969909,429.6718046969909,429.6718046969909,429.6718046969909,i,0.4878951120044803,430.2124815129937,430.2124815129937,430.2124815129937,430.2124815129937,430.2124815129937,430.2124815129937,430.4944849369931,430.4944849369931,431.91206308599794,431.91206308599794,431.9369078960008,431.9369078960008,431.9369078960008,431.9369078960008,431.9369078960008,431.9369078960008,431.9369078960008,431.9369078960008,431.9369078960008,431.9369078960008,431.9369078960008,431.9369078960008,431.9369078960008,431.9369078960008,431.9369078960008,34,40,55,61,55,57,None,None,,,,,,,,,,,,,[],[],[],[],[],[],[],-0.2,1,50,[-0.105],[-0.26875],[1],[0],[0],[10.502140031996532],['tijiao_random_2'],444.9814180050016,444.9814180050016,444.9814180050016,444.9814180050016,1.025,1.5825056559988298,446.5821582139906,448.31290806099423,434.4617651459994,434.4617651459994,434.4617651459994,434.4617651459994,434.4617651459994,434.4617651459994,434.4617651459994,434.4617651459994,0.010485626000445336,434.4617651459994,,,,,,,,,283,f,19,2023-04-05_13h47.30.249,RL,2022.2.4,60.00107522186719,
0,0.3,0.225,0,21,21,21,,,,,,,,,,None,448.31290806099423,448.31290806099423,448.31290806099423,448.31290806099423,448.31290806099423,448.31290806099423,r,0.6732200609985739,449.0319988519914,449.0319988519914,449.0319988519914,449.0319988519914,449.0319988519914,449.0319988519914,449.3019095359923,449.3019095359923,451.2562368409999,451.2562368409999,451.28058089299884,451.28058089299884,451.28058089299884,451.28058089299884,451.28058089299884,451.28058089299884,451.28058089299884,451.28058089299884,451.28058089299884,451.28058089299884,451.28058089299884,451.28058089299884,451.28058089299884,451.28058089299884,451.28058089299884,44,34,56,63,44,27,6.0,4.079221678999602,,,,,,,,,,,,,[],[],[],[],[],[],[],0.6,3,,[],[],[],[],[],[],[],,,,,None,None,457.9088343500043,459.65100222099863,,,,,,,,,,,453.7818561180029,453.7818561180029,453.7818561180029,453.7818561180029,453.7818561180029,,,,283,f,19,2023-04-05_13h47.30.249,RL,2022.2.4,60.00107522186719,
1,-0.3,-0.225,0,22,22,22,,,,,,,,,,None,459.65100222099863,459.65100222099863,459.65100222099863,459.65100222099863,459.65100222099863,459.65100222099863,j,0.4096641659998568,460.10783323699434,460.10783323699434,460.10783323699434,460.10783323699434,460.10783323699434,460.10783323699434,460.392744509998,460.392744509998,462.37470573099563,462.37470573099563,462.39822146199003,462.39822146199003,462.39822146199003,462.39822146199003,462.39822146199003,462.39822146199003,462.39822146199003,462.39822146199003,462.39822146199003,462.39822146199003,462.39822146199003,462.39822146199003,462.39822146199003,462.39822146199003,462.39822146199003,36,36,49,64,64,27,None,None,,,,,,,,,,,,,[],[],[],[],[],[],[],0.2,1,20,[0.05875],[-0.2675],[1],[0],[0],[12.111665047996212],['tijiao_random_2'],477.05768709699623,477.05768709699623,477.05768709699623,477.05768709699623,1,3.4260693499963963,480.5033418200037,482.04556864900223,464.92772535499535,464.92772535499535,464.92772535499535,464.92772535499535,464.92772535499535,464.92772535499535,464.92772535499535,464.92772535499535,0.010381151005276479,464.92772535499535,,,,,,,,,283,f,19,2023-04-05_13h47.30.249,RL,2022.2.4,60.00107522186719,
0,0.3,0.225,0,23,23,23,,,,,,,,,,None,482.04556864900223,482.04556864900223,482.04556864900223,482.04556864900223,482.04556864900223,482.04556864900223,r,0.8061580600042362,482.894673606992,482.894673606992,482.894673606992,482.894673606992,482.894673606992,482.894673606992,483.1678538349952,483.1678538349952,484.3403907280008,484.3403907280008,484.3619318209967,484.3619318209967,484.3619318209967,484.3619318209967,484.3619318209967,484.3619318209967,484.3619318209967,484.3619318209967,484.3619318209967,484.3619318209967,484.3619318209967,484.3619318209967,484.3619318209967,484.3619318209967,484.3619318209967,33,38,62,63,33,23,5.0,2.4877829809993273,,,,,,,,,,,,,[],[],[],[],[],[],[],-0.2,3,,[],[],[],[],[],[],[],,,,,None,None,489.40525509999134,491.38341336000303,,,,,,,,,,,486.8739727069915,486.8739727069915,486.8739727069915,486.8739727069915,486.8739727069915,,,,283,f,19,2023-04-05_13h47.30.249,RL,2022.2.4,60.00107522186719,
1,-0.3,-0.225,0,24,24,24,,,,,,,,,,None,491.38341336000303,491.38341336000303,491.38341336000303,491.38341336000303,491.38341336000303,491.38341336000303,i,0.26678765600081533,491.69061215099646,491.69061215099646,491.69061215099646,491.69061215099646,491.69061215099646,491.69061215099646,491.95697237299464,491.95697237299464,493.50736017499,493.50736017499,493.54867957899114,493.54867957899114,493.54867957899114,493.54867957899114,493.54867957899114,493.54867957899114,493.54867957899114,493.54867957899114,493.54867957899114,493.54867957899114,493.54867957899114,493.54867957899114,493.54867957899114,493.54867957899114,493.54867957899114,35,33,57,62,57,67,None,None,496.0670933420042,496.0670933420042,496.0670933420042,496.0670933420042,496.0670933420042,496.0670933420042,496.0670933420042,496.0670933420042,0.00893231800000649,496.0670933420042,57,57,[0.0075],[-0.2925],[1],[0],[0],[9.433579581003869],['tijiao'],-0.6,0,,[],[],[],[],[],[],[],505.52758899200126,505.52758899200126,505.52758899200126,505.52758899200126,2.025,2.7752438580064336,508.3255197840044,510.32520203899185,,,,,,,,,,,,,,,,,,,283,f,19,2023-04-05_13h47.30.249,RL,2022.2.4,60.00107522186719,
0,0.3,0.225,0,25,25,25,,,,,,,,,,None,510.32520203899185,510.32520203899185,510.32520203899185,510.32520203899185,510.32520203899185,510.32520203899185,i,0.28876466301153414,510.66193596199446,510.66193596199446,510.66193596199446,510.66193596199446,510.66193596199446,510.66193596199446,510.9312942349934,510.9312942349934,512.697322359003,512.697322359003,512.7388667189953,512.7388667189953,512.7388667189953,512.7388667189953,512.7388667189953,512.7388667189953,512.7388667189953,512.7388667189953,512.7388667189953,512.7388667189953,512.7388667189953,512.7388667189953,512.7388667189953,512.7388667189953,512.7388667189953,29,37,56,55,56,68,3.0,4.358979871001793,,,,,,,,,,,,,[],[],[],[],[],[],[],0.2,3,,[],[],[],[],[],[],[],,,,,None,None,519.6464975940034,521.6138923410035,,,,,,,,,,,515.2378641169926,515.2378641169926,515.2378641169926,515.2378641169926,515.2378641169926,,,,283,f,19,2023-04-05_13h47.30.249,RL,2022.2.4,60.00107522186719,
1,-0.3,-0.225,0,26,26,26,,,,,,,,,,None,521.6138923410035,521.6138923410035,521.6138923410035,521.6138923410035,521.6138923410035,521.6138923410035,i,0.9317353189981077,522.6002286129951,522.6002286129951,522.6002286129951,522.6002286129951,522.6002286129951,522.6002286129951,522.8822506389988,522.8822506389988,524.187767216994,524.187767216994,524.2130336539994,524.2130336539994,524.2130336539994,524.2130336539994,524.2130336539994,524.2130336539994,524.2130336539994,524.2130336539994,524.2130336539994,524.2130336539994,524.2130336539994,524.2130336539994,524.2130336539994,524.2130336539994,524.2130336539994,30,41,63,58,63,32,6.0,2.1336657810024917,,,,,,,,,,,,,[],[],[],[],[],[],[],0.6,3,,[],[],[],[],[],[],[],,,,,None,None,528.888420007992,530.8679472619988,,,,,,,,,,,526.7109662919975,526.7109662919975,526.7109662919975,526.7109662919975,526.7109662919975,,,,283,f,19,2023-04-05_13h47.30.249,RL,2022.2.4,60.00107522186719,
0,0.3,0.225,0,27,27,27,,,,,,,,,,None,530.8679472619988,530.8679472619988,530.8679472619988,530.8679472619988,530.8679472619988,530.8679472619988,r,0.4867547410103725,531.4080347199924,531.4080347199924,531.4080347199924,531.4080347199924,531.4080347199924,531.4080347199924,531.6761782510002,531.6761782510002,533.2684242039977,533.2684242039977,533.3071733209945,533.3071733209945,533.3071733209945,533.3071733209945,533.3071733209945,533.3071733209945,533.3071733209945,533.3071733209945,533.3071733209945,533.3071733209945,533.3071733209945,533.3071733209945,533.3071733209945,533.3071733209945,533.3071733209945,32,29,57,58,32,29,5.0,2.2793219430022873,,,,,,,,,,,,,[],[],[],[],[],[],[],0.2,2,,[],[],[],[],[],[],[],,,,,None,None,538.132725589996,539.7729757920024,,,,,,,,,,,535.8058028499945,535.8058028499945,535.8058028499945,535.8058028499945,535.8058028499945,,,,283,f,19,2023-04-05_13h47.30.249,RL,2022.2.4,60.00107522186719,
1,-0.3,-0.225,0,28,28,28,,,,,,,,,,None,539.7729757920024,539.7729757920024,539.7729757920024,539.7729757920024,539.7729757920024,539.7729757920024,f,0.5553699349984527,540.3766317519912,540.3766317519912,540.3766317519912,540.3766317519912,540.3766317519912,540.3766317519912,540.6449199810013,540.6449199810013,542.1650989320042,542.1650989320042,542.2062142139912,542.2062142139912,542.2062142139912,542.2062142139912,542.2062142139912,542.2062142139912,542.2062142139912,542.2062142139912,542.2062142139912,542.2062142139912,542.2062142139912,542.2062142139912,542.2062142139912,542.2062142139912,542.2062142139912,22,32,57,64,32,69,None,None,544.731454327004,544.731454327004,544.731454327004,544.731454327004,544.731454327004,544.731454327004,544.731454327004,544.731454327004,0.008704060994205065,544.731454327004,31,31,[0.06625],[-0.27375],[1],[0],[0],[4.376927292003529],['tijiao'],0.2,0,,[],[],[],[],[],[],[],549.1374311889958,549.1374311889958,549.1374311889958,549.1374311889958,4.05,1.368867211000179,550.5299918829987,552.5286922910018,,,,,,,,,,,,,,,,,,,283,f,19,2023-04-05_13h47.30.249,RL,2022.2.4,60.00107522186719,
0,0.3,0.225,0,29,29,29,,,,,,,,,,None,552.5286922910018,552.5286922910018,552.5286922910018,552.5286922910018,552.5286922910018,552.5286922910018,f,0.3042884909955319,552.8872914999956,552.8872914999956,552.8872914999956,552.8872914999956,552.8872914999956,552.8872914999956,553.1518419679924,553.1518419679924,555.1062797350023,555.1062797350023,555.1488278180041,555.1488278180041,555.1488278180041,555.1488278180041,555.1488278180041,555.1488278180041,555.1488278180041,555.1488278180041,555.1488278180041,555.1488278180041,555.1488278180041,555.1488278180041,555.1488278180041,555.1488278180041,555.1488278180041,21,32,60,69,32,76,None,None,,,,,,,,,,,,,[],[],[],[],[],[],[],-0.2,1,32,[-0.03625],[-0.285],[1],[0],[0],[3.7690110380062833],['tijiao_random_2'],561.4765303180029,561.4765303180029,561.4765303180029,561.4765303180029,9.925,3.9020584450045135,565.3954044089915,567.3522283019993,557.6908870649931,557.6908870649931,557.6908870649931,557.6908870649931,557.6908870649931,557.6908870649931,557.6908870649931,557.6908870649931,0.009995075000915676,557.6908870649931,,,,,,,,,283,f,19,2023-04-05_13h47.30.249,RL,2022.2.4,60.00107522186719,
1,-0.3,-0.225,0,30,30,30,,,,,,,,,,None,567.3522283019993,567.3522283019993,567.3522283019993,567.3522283019993,567.3522283019993,567.3522283019993,i,0.6851738349942025,568.0765112099907,568.0765112099907,568.0765112099907,568.0765112099907,568.0765112099907,568.0765112099907,568.3469907819963,568.3469907819963,569.7883888649958,569.7883888649958,569.827602320991,569.827602320991,569.827602320991,569.827602320991,569.827602320991,569.827602320991,569.827602320991,569.827602320991,569.827602320991,569.827602320991,569.827602320991,569.827602320991,569.827602320991,569.827602320991,569.827602320991,22,38,56,71,56,21,6.0,2.219208497001091,,,,,,,,,,,,,[],[],[],[],[],[],[],0.6,2,,[],[],[],[],[],[],[],,,,,None,None,574.5930778399925,576.3063924739981,,,,,,,,,,,572.3313511379965,572.3313511379965,572.3313511379965,572.3313511379965,572.3313511379965,,,,283,f,19,2023-04-05_13h47.30.249,RL,2022.2.4,60.00107522186719,
0,0.3,0.225,0,31,31,31,,,,,,,,,,None,576.3063924739981,576.3063924739981,576.3063924739981,576.3063924739981,576.3063924739981,576.3063924739981,j,0.33938660100102425,576.6994769229932,576.6994769229932,576.6994769229932,576.6994769229932,576.6994769229932,576.6994769229932,576.9648783390003,576.9648783390003,578.219237244004,578.219237244004,578.2580686419969,578.2580686419969,578.2580686419969,578.2580686419969,578.2580686419969,578.2580686419969,578.2580686419969,578.2580686419969,578.2580686419969,578.2580686419969,578.2580686419969,578.2580686419969,578.2580686419969,578.2580686419969,578.2580686419969,22,30,56,76,76,84,None,None,,,,,,,,,,,,,[],[],[],[],[],[],[],-0.6,1,10,[0.0325],[-0.29625],[1],[0],[0],[7.804131825003424],['tijiao_random_2'],588.608009107993,588.608009107993,588.608009107993,588.608009107993,3.9875,2.149893087989767,590.7768563690042,592.7471721670008,580.7854397280025,580.7854397280025,580.7854397280025,580.7854397280025,580.7854397280025,580.7854397280025,580.7854397280025,580.7854397280025,0.009833828997216187,580.7854397280025,,,,,,,,,283,f,19,2023-04-05_13h47.30.249,RL,2022.2.4,60.00107522186719,
1,-0.3,-0.225,0,32,32,32,,,,,,,,,,None,592.7471721670008,592.7471721670008,592.7471721670008,592.7471721670008,592.7471721670008,592.7471721670008,r,0.306640035007149,593.1062013839983,593.1062013839983,593.1062013839983,593.1062013839983,593.1062013839983,593.1062013839983,593.3877894000034,593.3877894000034,594.9575912699947,594.9575912699947,594.9819880540017,594.9819880540017,594.9819880540017,594.9819880540017,594.9819880540017,594.9819880540017,594.9819880540017,594.9819880540017,594.9819880540017,594.9819880540017,594.9819880540017,594.9819880540017,594.9819880540017,594.9819880540017,594.9819880540017,29,22,56,64,29,26,5.0,3.910835419999785,,,,,,,,,,,,,[],[],[],[],[],[],[],0.2,3,,[],[],[],[],[],[],[],,,,,None,None,601.4417514200031,603.085938639997,,,,,,,,,,,597.4842009940039,597.4842009940039,597.4842009940039,597.4842009940039,597.4842009940039,,,,283,f,19,2023-04-05_13h47.30.249,RL,2022.2.4,60.00107522186719,
0,0.3,0.225,0,33,33,33,,,,,,,,,,None,603.085938639997,603.085938639997,603.085938639997,603.085938639997,603.085938639997,603.085938639997,f,0.5521742179989815,603.6913620959967,603.6913620959967,603.6913620959967,603.6913620959967,603.6913620959967,603.6913620959967,603.9594647649938,603.9594647649938,604.7778856549994,604.7778856549994,604.8016625460004,604.8016625460004,604.8016625460004,604.8016625460004,604.8016625460004,604.8016625460004,604.8016625460004,604.8016625460004,604.8016625460004,604.8016625460004,604.8016625460004,604.8016625460004,604.8016625460004,604.8016625460004,604.8016625460004,22,28,51,72,28,83,None,None,,,,,,,,,,,,,[],[],[],[],[],[],[],0.6,1,76,[0.045],[-0.29125],[1],[0],[0],[10.434217468995485],['tijiao_random_2'],617.7948598549992,617.7948598549992,617.7948598549992,617.7948598549992,3.9000000000000004,3.9011989990103757,621.7131672849937,623.5620307249919,607.3402645449969,607.3402645449969,607.3402645449969,607.3402645449969,607.3402645449969,607.3402645449969,607.3402645449969,607.3402645449969,0.01044451299821958,607.3402645449969,,,,,,,,,283,f,19,2023-04-05_13h47.30.249,RL,2022.2.4,60.00107522186719,
1,-0.3,-0.225,0,34,34,34,,,,,,,,,,None,623.5620307249919,623.5620307249919,623.5620307249919,623.5620307249919,623.5620307249919,623.5620307249919,j,0.30771466900478117,623.9203061759908,623.9203061759908,623.9203061759908,623.9203061759908,623.9203061759908,623.9203061759908,624.1871368639986,624.1871368639986,626.1743583030038,626.1743583030038,626.212922753999,626.212922753999,626.212922753999,626.212922753999,626.212922753999,626.212922753999,626.212922753999,626.212922753999,626.212922753999,626.212922753999,626.212922753999,626.212922753999,626.212922753999,626.212922753999,626.212922753999,18,30,54,64,64,73,3.0,2.0547393369924976,,,,,,,,,,,,,[],[],[],[],[],[],[],-0.2,2,,[],[],[],[],[],[],[],,,,,None,None,630.8198630739935,632.4501092139981,,,,,,,,,,,628.7245204209903,628.7245204209903,628.7245204209903,628.7245204209903,628.7245204209903,,,,283,f,19,2023-04-05_13h47.30.249,RL,2022.2.4,60.00107522186719,
0,0.3,0.225,0,35,35,35,,,,,,,,,,None,632.4501092139981,632.4501092139981,632.4501092139981,632.4501092139981,632.4501092139981,632.4501092139981,j,0.33801822099485435,632.8368437680037,632.8368437680037,632.8368437680037,632.8368437680037,632.8368437680037,632.8368437680037,633.1066993699933,633.1066993699933,634.061143051993,634.061143051993,634.0992382059922,634.0992382059922,634.0992382059922,634.0992382059922,634.0992382059922,634.0992382059922,634.0992382059922,634.0992382059922,634.0992382059922,634.0992382059922,634.0992382059922,634.0992382059922,634.0992382059922,634.0992382059922,634.0992382059922,16,23,54,63,63,88,None,None,636.6284574829915,636.6284574829915,636.6284574829915,636.6284574829915,636.6284574829915,636.6284574829915,636.6284574829915,636.6284574829915,0.009254978998797014,636.6284574829915,65,65,[-0.03125],[-0.3175],[1],[0],[0],[4.7710541039996315],['tijiao'],-0.2,0,,[],[],[],[],[],[],[],641.4316287620022,641.4316287620022,641.4316287620022,641.4316287620022,6.9125000000000005,1.094139583001379,642.5443078249955,644.4552127060015,,,,,,,,,,,,,,,,,,,283,f,19,2023-04-05_13h47.30.249,RL,2022.2.4,60.00107522186719,
1,-0.3,-0.225,0,36,36,36,,,,,,,,,,None,644.4552127060015,644.4552127060015,644.4552127060015,644.4552127060015,644.4552127060015,644.4552127060015,j,0.2809178659954341,644.7750062499981,644.7750062499981,644.7750062499981,644.7750062499981,644.7750062499981,644.7750062499981,645.0451828939986,645.0451828939986,646.0618354180042,646.0618354180042,646.1016442139953,646.1016442139953,646.1016442139953,646.1016442139953,646.1016442139953,646.1016442139953,646.1016442139953,646.1016442139953,646.1016442139953,646.1016442139953,646.1016442139953,646.1016442139953,646.1016442139953,646.1016442139953,646.1016442139953,20,33,61,67,67,81,None,None,,,,,,,,,,,,,[],[],[],[],[],[],[],0.2,1,45,"[0.0675, 0.01875]","[-0.235, -0.305]","[1, 1]","[0, 0]","[0, 0]","[5.911350754002342, 6.567356842002482]",['tijiao_random_2'],655.2122633279942,655.2122633279942,655.2122633279942,655.2122633279942,4.112500000000001,1.4354095129965572,656.6678033209901,658.2946763149957,648.6279052289901,648.6279052289901,648.6279052289901,648.6279052289901,648.6279052289901,648.6279052289901,648.6279052289901,648.6279052289901,0.010010836995206773,648.6279052289901,,,,,,,,,283,f,19,2023-04-05_13h47.30.249,RL,2022.2.4,60.00107522186719,
0,0.3,0.225,0,37,37,37,,,,,,,,,,None,658.2946763149957,658.2946763149957,658.2946763149957,658.2946763149957,658.2946763149957,658.2946763149957,i,0.317475343006663,658.6528921749996,658.6528921749996,658.6528921749996,658.6528921749996,658.6528921749996,658.6528921749996,658.9209819249954,658.9209819249954,660.2369347069907,660.2369347069907,660.2776312560018,660.2776312560018,660.2776312560018,660.2776312560018,660.2776312560018,660.2776312560018,660.2776312560018,660.2776312560018,660.2776312560018,660.2776312560018,660.2776312560018,660.2776312560018,660.2776312560018,660.2776312560018,660.2776312560018,25,28,51,73,51,83,None,None,,,,,,,,,,,,,[],[],[],[],[],[],[],-0.6,1,29,[0.00125],[-0.32625],[1],[0],[0],[5.135704931002692],['tijiao_random_2'],667.9673682479915,667.9673682479915,667.9673682479915,667.9673682479915,3.9625000000000004,2.6121506390045397,670.6027327949996,672.4687995970016,662.8149555729906,662.8149555729906,662.8149555729906,662.8149555729906,662.8149555729906,662.8149555729906,662.8149555729906,662.8149555729906,0.010228122002445161,662.8149555729906,,,,,,,,,283,f,19,2023-04-05_13h47.30.249,RL,2022.2.4,60.00107522186719,
1,-0.3,-0.225,0,38,38,38,,,,,,,,,,None,672.4687995970016,672.4687995970016,672.4687995970016,672.4687995970016,672.4687995970016,672.4687995970016,r,0.5461381539935246,673.055357684003,673.055357684003,673.055357684003,673.055357684003,673.055357684003,673.055357684003,673.3267485789984,673.3267485789984,674.8462851859949,674.8462851859949,674.8695437860006,674.8695437860006,674.8695437860006,674.8695437860006,674.8695437860006,674.8695437860006,674.8695437860006,674.8695437860006,674.8695437860006,674.8695437860006,674.8695437860006,674.8695437860006,674.8695437860006,674.8695437860006,674.8695437860006,21,31,56,74,21,84,1.0,2.2837939690070925,,,,,,,,,,,,,[],[],[],[],[],[],[],-0.2,3,,[],[],[],[],[],[],[],,,,,None,None,679.6921206429979,681.256662394997,,,,,,,,,,,677.3650222159922,677.3650222159922,677.3650222159922,677.3650222159922,677.3650222159922,,,,283,f,19,2023-04-05_13h47.30.249,RL,2022.2.4,60.00107522186719,
0,0.3,0.225,0,39,39,39,,,,,,,,,,None,681.256662394997,681.256662394997,681.256662394997,681.256662394997,681.256662394997,681.256662394997,f,0.7228210199973546,682.027843570002,682.027843570002,682.027843570002,682.027843570002,682.027843570002,682.027843570002,682.3076353299984,682.3076353299984,683.5465683029906,683.5465683029906,683.5721302059974,683.5721302059974,683.5721302059974,683.5721302059974,683.5721302059974,683.5721302059974,683.5721302059974,683.5721302059974,683.5721302059974,683.5721302059974,683.5721302059974,683.5721302059974,683.5721302059974,683.5721302059974,683.5721302059974,22,24,49,73,24,84,None,None,686.0879972629918,686.0879972629918,686.0879972629918,686.0879972629918,686.0879972629918,686.0879972629918,686.0879972629918,686.0879972629918,0.009007931002997793,686.0879972629918,24,24,[0.005],[-0.3475],[1],[0],[0],[3.9972010380006395],['tijiao'],0.2,0,,[],[],[],[],[],[],[],690.1156154389901,690.1156154389901,690.1156154389901,690.1156154389901,4.025,1.359427560993936,691.49607732,693.3285542419908,,,,,,,,,,,,,,,,,,,283,f,19,2023-04-05_13h47.30.249,RL,2022.2.4,60.00107522186719,
1,-0.3,-0.225,0,40,40,40,,,,,,,,,,None,693.3285542419908,693.3285542419908,693.3285542419908,693.3285542419908,693.3285542419908,693.3285542419908,f,0.5272260489873588,693.9035751299962,693.9035751299962,693.9035751299962,693.9035751299962,693.9035751299962,693.9035751299962,694.1687932249915,694.1687932249915,695.1612482619967,695.1612482619967,695.1994767739961,695.1994767739961,695.1994767739961,695.1994767739961,695.1994767739961,695.1994767739961,695.1994767739961,695.1994767739961,695.1994767739961,695.1994767739961,695.1994767739961,695.1994767739961,695.1994767739961,695.1994767739961,695.1994767739961,20,27,40,72,27,77,None,None,697.7252454730042,697.7252454730042,697.7252454730042,697.7252454730042,697.7252454730042,697.7252454730042,697.7252454730042,697.7252454730042,0.00870329600002151,697.7252454730042,25,25,[-0.04375],[-0.3375],[1],[0],[0],[5.885701652994612],['tijiao'],0.6,0,,[],[],[],[],[],[],[],703.6425417959981,703.6425417959981,703.6425417959981,703.6425417959981,4.1,5.614672516996507,709.2754570660036,710.852522895002,,,,,,,,,,,,,,,,,,,283,f,19,2023-04-05_13h47.30.249,RL,2022.2.4,60.00107522186719,
0,0.3,0.225,0,41,41,41,,,,,,,,,,None,710.852522895002,710.852522895002,710.852522895002,710.852522895002,710.852522895002,710.852522895002,f,0.4934929080045549,711.3906509770022,711.3906509770022,711.3906509770022,711.3906509770022,711.3906509770022,711.3906509770022,711.6596205989918,711.6596205989918,712.9579819889914,712.9579819889914,712.9994301410043,712.9994301410043,712.9994301410043,712.9994301410043,712.9994301410043,712.9994301410043,712.9994301410043,712.9994301410043,712.9994301410043,712.9994301410043,712.9994301410043,712.9994301410043,712.9994301410043,712.9994301410043,712.9994301410043,16,25,45,70,25,84,1.0,3.0920891650021076,,,,,,,,,,,,,[],[],[],[],[],[],[],0.2,3,,[],[],[],[],[],[],[],,,,,None,None,718.6442213679984,720.3250796240027,,,,,,,,,,,715.5070547729993,715.5070547729993,715.5070547729993,715.5070547729993,715.5070547729993,,,,283,f,19,2023-04-05_13h47.30.249,RL,2022.2.4,60.00107522186719,
1,-0.3,-0.225,0,42,42,42,,,,,,,,,,None,720.3250796240027,720.3250796240027,720.3250796240027,720.3250796240027,720.3250796240027,720.3250796240027,r,0.39789610099978745,720.7610895219987,720.7610895219987,720.7610895219987,720.7610895219987,720.7610895219987,720.7610895219987,721.030685131991,721.030685131991,722.7028796179948,722.7028796179948,722.7429244219966,722.7429244219966,722.7429244219966,722.7429244219966,722.7429244219966,722.7429244219966,722.7429244219966,722.7429244219966,722.7429244219966,722.7429244219966,722.7429244219966,722.7429244219966,722.7429244219966,722.7429244219966,722.7429244219966,27,33,52,76,27,78,None,None,,,,,,,,,,,,,[],[],[],[],[],[],[],0.2,1,45,[-0.08375],[-0.28],[1],[0],[0],[4.819587669990142],['tijiao_random_2'],730.1212579169951,730.1212579169951,730.1212579169951,730.1212579169951,5.1375,3.8255758070008596,733.9680564849987,735.914207608992,725.2847187479929,725.2847187479929,725.2847187479929,725.2847187479929,725.2847187479929,725.2847187479929,725.2847187479929,725.2847187479929,0.010314822997315787,725.2847187479929,,,,,,,,,283,f,19,2023-04-05_13h47.30.249,RL,2022.2.4,60.00107522186719,
0,0.3,0.225,0,43,43,43,,,,,,,,,,None,735.914207608992,735.914207608992,735.914207608992,735.914207608992,735.914207608992,735.914207608992,i,0.27151131800201256,736.2354415439913,736.2354415439913,736.2354415439913,736.2354415439913,736.2354415439913,736.2354415439913,736.5056635229994,736.5056635229994,738.5056786929927,738.5056786929927,738.5483398159995,738.5483398159995,738.5483398159995,738.5483398159995,738.5483398159995,738.5483398159995,738.5483398159995,738.5483398159995,738.5483398159995,738.5483398159995,738.5483398159995,738.5483398159995,738.5483398159995,738.5483398159995,738.5483398159995,19,29,46,72,46,78,None,None,,,,,,,,,,,,,[],[],[],[],[],[],[],-0.6,1,23,[-0.07375],[-0.27625],[1],[0],[0],[5.201113119008369],['tijiao_random_2'],746.3075643060001,746.3075643060001,746.3075643060001,746.3075643060001,5.0249999999999995,2.121133683001972,748.447918003003,750.3727721449977,741.0903388040024,741.0903388040024,741.0903388040024,741.0903388040024,741.0903388040024,741.0903388040024,741.0903388040024,741.0903388040024,0.009900485005346127,741.0903388040024,,,,,,,,,283,f,19,2023-04-05_13h47.30.249,RL,2022.2.4,60.00107522186719,
1,-0.3,-0.225,0,44,44,44,,,,,,,,,,None,750.3727721449977,750.3727721449977,750.3727721449977,750.3727721449977,750.3727721449977,750.3727721449977,r,0.3288975030009169,750.7471044959966,750.7471044959966,750.7471044959966,750.7471044959966,750.7471044959966,750.7471044959966,751.0297806610033,751.0297806610033,752.8847334680031,752.8847334680031,752.9088452709984,752.9088452709984,752.9088452709984,752.9088452709984,752.9088452709984,752.9088452709984,752.9088452709984,752.9088452709984,752.9088452709984,752.9088452709984,752.9088452709984,752.9088452709984,752.9088452709984,752.9088452709984,752.9088452709984,22,22,49,76,22,84,None,None,755.4285200379963,755.4285200379963,755.4285200379963,755.4285200379963,755.4285200379963,755.4285200379963,755.4285200379963,755.4285200379963,0.008853833001921885,755.4285200379963,23,23,[-0.14875],[-0.3175],[1],[0],[0],[3.1726456629985478],['tijiao'],-0.2,0,,[],[],[],[],[],[],[],758.6315993099997,758.6315993099997,758.6315993099997,758.6315993099997,5.9125000000000005,1.4514206330059096,760.1010653349949,761.8949863669986,,,,,,,,,,,,,,,,,,,283,f,19,2023-04-05_13h47.30.249,RL,2022.2.4,60.00107522186719,
0,0.3,0.225,0,45,45,45,,,,,,,,,,None,761.8949863669986,761.8949863669986,761.8949863669986,761.8949863669986,761.8949863669986,761.8949863669986,r,0.3174594409938436,762.2510854909924,762.2510854909924,762.2510854909924,762.2510854909924,762.2510854909924,762.2510854909924,762.5187500280008,762.5187500280008,764.2562299309939,764.2562299309939,764.2956111419917,764.2956111419917,764.2956111419917,764.2956111419917,764.2956111419917,764.2956111419917,764.2956111419917,764.2956111419917,764.2956111419917,764.2956111419917,764.2956111419917,764.2956111419917,764.2956111419917,764.2956111419917,764.2956111419917,16,32,50,67,16,76,None,None,766.8190451859991,766.8190451859991,766.8190451859991,766.8190451859991,766.8190451859991,766.8190451859991,766.8190451859991,766.8190451859991,0.00893484300468117,766.8190451859991,20,20,[-0.09875],[-0.28],[1],[0],[0],[6.75730833299167],['tijiao'],0.6,0,,[],[],[],[],[],[],[],773.6101316139975,773.6101316139975,773.6101316139975,773.6101316139975,3.1125,1.548004623997258,775.1791907419974,777.1516325480043,,,,,,,,,,,,,,,,,,,283,f,19,2023-04-05_13h47.30.249,RL,2022.2.4,60.00107522186719,
1,-0.3,-0.225,0,46,46,46,,,,,,,,,,None,777.1516325480043,777.1516325480043,777.1516325480043,777.1516325480043,777.1516325480043,777.1516325480043,r,0.32601043600880075,777.5265773839928,777.5265773839928,777.5265773839928,777.5265773839928,777.5265773839928,777.5265773839928,777.7928400660021,777.7928400660021,779.3648433649942,779.3648433649942,779.4029930719989,779.4029930719989,779.4029930719989,779.4029930719989,779.4029930719989,779.4029930719989,779.4029930719989,779.4029930719989,779.4029930719989,779.4029930719989,779.4029930719989,779.4029930719989,779.4029930719989,779.4029930719989,779.4029930719989,21,34,56,69,21,81,1.0,2.302014180997503,,,,,,,,,,,,,[],[],[],[],[],[],[],0.6,3,,[],[],[],[],[],[],[],,,,,None,None,784.2480926429998,785.8893753150041,,,,,,,,,,,781.8989771929919,781.8989771929919,781.8989771929919,781.8989771929919,781.8989771929919,,,,283,f,19,2023-04-05_13h47.30.249,RL,2022.2.4,60.00107522186719,
0,0.3,0.225,0,47,47,47,,,,,,,,,,None,785.8893753150041,785.8893753150041,785.8893753150041,785.8893753150041,785.8893753150041,785.8893753150041,j,0.576131132998853,786.5098224889953,786.5098224889953,786.5098224889953,786.5098224889953,786.5098224889953,786.5098224889953,786.7788878830033,786.7788878830033,788.0295158169902,788.0295158169902,788.0691864919936,788.0691864919936,788.0691864919936,788.0691864919936,788.0691864919936,788.0691864919936,788.0691864919936,788.0691864919936,788.0691864919936,788.0691864919936,788.0691864919936,788.0691864919936,788.0691864919936,788.0691864919936,788.0691864919936,16,39,47,74,74,74,None,None,790.5959259899973,790.5959259899973,790.5959259899973,790.5959259899973,790.5959259899973,790.5959259899973,790.5959259899973,790.5959259899973,0.00930352600698825,790.5959259899973,75,75,[-0.08875],[-0.31],[1],[0],[0],[3.69795448500372],['tijiao'],-0.2,0,,[],[],[],[],[],[],[],794.3227738629939,794.3227738629939,794.3227738629939,794.3227738629939,6.9875,2.6741223669960164,797.0170244820038,798.695029547991,,,,,,,,,,,,,,,,,,,283,f,19,2023-04-05_13h47.30.249,RL,2022.2.4,60.00107522186719,
1,-0.3,-0.225,0,48,48,48,,,,,,,,,,None,798.695029547991,798.695029547991,798.695029547991,798.695029547991,798.695029547991,798.695029547991,j,0.30047371199179906,799.0383868469944,799.0383868469944,799.0383868469944,799.0383868469944,799.0383868469944,799.0383868469944,799.3165717899974,799.3165717899974,800.7353808269982,800.7353808269982,800.7760810960026,800.7760810960026,800.7760810960026,800.7760810960026,800.7760810960026,800.7760810960026,800.7760810960026,800.7760810960026,800.7760810960026,800.7760810960026,800.7760810960026,800.7760810960026,800.7760810960026,800.7760810960026,800.7760810960026,21,41,56,65,65,77,2.0,4.234501979997731,,,,,,,,,,,,,[],[],[],[],[],[],[],-0.6,3,,[],[],[],[],[],[],[],,,,,None,None,807.5550965820003,809.5503938670008,,,,,,,,,,,803.2751356349909,803.2751356349909,803.2751356349909,803.2751356349909,803.2751356349909,,,,283,f,19,2023-04-05_13h47.30.249,RL,2022.2.4,60.00107522186719,
0,0.3,0.225,0,49,49,49,,,,,,,,,,None,809.5503938670008,809.5503938670008,809.5503938670008,809.5503938670008,809.5503938670008,809.5503938670008,j,0.3017111030058004,809.8908487979934,809.8908487979934,809.8908487979934,809.8908487979934,809.8908487979934,809.8908487979934,810.1591512960003,810.1591512960003,811.9525310539902,811.9525310539902,811.9947419719974,811.9947419719974,811.9947419719974,811.9947419719974,811.9947419719974,811.9947419719974,811.9947419719974,811.9947419719974,811.9947419719974,811.9947419719974,811.9947419719974,811.9947419719974,811.9947419719974,811.9947419719974,811.9947419719974,22,36,50,75,75,83,None,None,814.5242243709945,814.5242243709945,814.5242243709945,814.5242243709945,814.5242243709945,814.5242243709945,814.5242243709945,814.5242243709945,0.009130591992288828,814.5242243709945,75,75,"[-0.015, -0.0225]","[-0.23, -0.2775]","[1, 1]","[0, 0]","[0, 0]","[4.486473295997712, 5.124822761004907]",['tijiao'],-0.6,0,,[],[],[],[],[],[],[],819.6806946059951,819.6806946059951,819.6806946059951,819.6806946059951,8.0,2.5068795310071437,822.208267850001,823.8732229199959,,,,,,,,,,,,,,,,,,,283,f,19,2023-04-05_13h47.30.249,RL,2022.2.4,60.00107522186719,
1,-0.3,-0.225,0,50,50,50,,,,,,,,,,None,823.8732229199959,823.8732229199959,823.8732229199959,823.8732229199959,823.8732229199959,823.8732229199959,j,0.285446554000373,824.2108494409913,824.2108494409913,824.2108494409913,824.2108494409913,824.2108494409913,824.2108494409913,824.4873369849956,824.4873369849956,825.6706527850038,825.6706527850038,825.6943731579959,825.6943731579959,825.6943731579959,825.6943731579959,825.6943731579959,825.6943731579959,825.6943731579959,825.6943731579959,825.6943731579959,825.6943731579959,825.6943731579959,825.6943731579959,825.6943731579959,825.6943731579959,825.6943731579959,20,32,55,74,74,86,None,None,,,,,,,,,,,,,[],[],[],[],[],[],[],-0.6,1,23,[-0.085],[-0.32375],[1],[0],[0],[6.653730253005051],['tijiao_random_2'],834.9091527120036,834.9091527120036,834.9091527120036,834.9091527120036,6.9375,1.5739213729975745,836.5022185190028,838.0805869509932,828.2382651399967,828.2382651399967,828.2382651399967,828.2382651399967,828.2382651399967,828.2382651399967,828.2382651399967,828.2382651399967,0.010196488001383841,828.2382651399967,,,,,,,,,283,f,19,2023-04-05_13h47.30.249,RL,2022.2.4,60.00107522186719,
0,0.3,0.225,0,51,51,51,,,,,,,,,,None,838.0805869509932,838.0805869509932,838.0805869509932,838.0805869509932,838.0805869509932,838.0805869509932,r,0.44162176799727604,838.571465888992,838.571465888992,838.571465888992,838.571465888992,838.571465888992,838.571465888992,838.836287261991,838.836287261991,840.3219604909973,840.3219604909973,840.3813275129942,840.3813275129942,840.3813275129942,840.3813275129942,840.3813275129942,840.3813275129942,840.3813275129942,840.3813275129942,840.3813275129942,840.3813275129942,840.3813275129942,840.3813275129942,840.3813275129942,840.3813275129942,840.3813275129942,35,41,48,76,35,84,None,None,,,,,,,,,,,,,[],[],[],[],[],[],[],-0.2,1,30,[-0.025],[-0.32375],[1],[0],[0],[9.21285607299069],['tijiao_random_2'],852.1490517539933,852.1490517539933,852.1490517539933,852.1490517539933,4.85,2.527545842996915,854.6987609889911,856.6051137110044,842.9178690480039,842.9178690480039,842.9178690480039,842.9178690480039,842.9178690480039,842.9178690480039,842.9178690480039,842.9178690480039,0.010195611001108773,842.9178690480039,,,,,,,,,283,f,19,2023-04-05_13h47.30.249,RL,2022.2.4,60.00107522186719,
1,-0.3,-0.225,0,52,52,52,,,,,,,,,,None,856.6051137110044,856.6051137110044,856.6051137110044,856.6051137110044,856.6051137110044,856.6051137110044,f,0.23904989199945703,856.893393099992,856.893393099992,856.893393099992,856.893393099992,856.893393099992,856.893393099992,857.1635148310015,857.1635148310015,857.997753328993,857.997753328993,858.0386348110042,858.0386348110042,858.0386348110042,858.0386348110042,858.0386348110042,858.0386348110042,858.0386348110042,858.0386348110042,858.0386348110042,858.0386348110042,858.0386348110042,858.0386348110042,858.0386348110042,858.0386348110042,858.0386348110042,26,45,52,82,45,36,None,None,860.5676683069905,860.5676683069905,860.5676683069905,860.5676683069905,860.5676683069905,860.5676683069905,860.5676683069905,860.5676683069905,0.00878436399216298,860.5676683069905,45,45,[-0.06875],[-0.29125],[1],[0],[0],[3.880193908000365],['tijiao'],0.2,0,,[],[],[],[],[],[],[],864.4800668149983,864.4800668149983,864.4800668149983,864.4800668149983,3.9625000000000004,1.2275100679980824,865.7276049350039,867.4760317479959,,,,,,,,,,,,,,,,,,,283,f,19,2023-04-05_13h47.30.249,RL,2022.2.4,60.00107522186719,
0,0.3,0.225,0,53,53,53,,,,,,,,,,None,867.4760317479959,867.4760317479959,867.4760317479959,867.4760317479959,867.4760317479959,867.4760317479959,r,0.3760664919973351,867.897647040998,867.897647040998,867.897647040998,867.897647040998,867.897647040998,867.897647040998,868.1683617579984,868.1683617579984,869.2861784289998,869.2861784289998,869.3101041159971,869.3101041159971,869.3101041159971,869.3101041159971,869.3101041159971,869.3101041159971,869.3101041159971,869.3101041159971,869.3101041159971,869.3101041159971,869.3101041159971,869.3101041159971,869.3101041159971,869.3101041159971,869.3101041159971,33,40,52,74,33,35,None,None,,,,,,,,,,,,,[],[],[],[],[],[],[],-0.2,1,50,[-0.025],[-0.31125],[1],[0],[0],[6.46518354100408],['tijiao_random_2'],878.3194060359965,878.3194060359965,878.3194060359965,878.3194060359965,4.0125,0.7616849149926566,879.1017514249979,881.001147226998,871.8380743409944,871.8380743409944,871.8380743409944,871.8380743409944,871.8380743409944,871.8380743409944,871.8380743409944,871.8380743409944,0.01015181399998255,871.8380743409944,,,,,,,,,283,f,19,2023-04-05_13h47.30.249,RL,2022.2.4,60.00107522186719,
1,-0.3,-0.225,0,54,54,54,,,,,,,,,,None,881.001147226998,881.001147226998,881.001147226998,881.001147226998,881.001147226998,881.001147226998,f,0.27120262901007663,881.3271974569943,881.3271974569943,881.3271974569943,881.3271974569943,881.3271974569943,881.3271974569943,881.5921073589998,881.5921073589998,883.578353741992,883.578353741992,883.6187406109966,883.6187406109966,883.6187406109966,883.6187406109966,883.6187406109966,883.6187406109966,883.6187406109966,883.6187406109966,883.6187406109966,883.6187406109966,883.6187406109966,883.6187406109966,883.6187406109966,883.6187406109966,883.6187406109966,31,48,52,79,48,88,1.0,3.6731930230016587,,,,,,,,,,,,,[],[],[],[],[],[],[],-0.2,2,,[],[],[],[],[],[],[],,,,,None,None,889.841861355002,891.7396100189944,,,,,,,,,,,886.1262512510002,886.1262512510002,886.1262512510002,886.1262512510002,886.1262512510002,,,,283,f,19,2023-04-05_13h47.30.249,RL,2022.2.4,60.00107522186719,
0,0.3,0.225,0,55,55,55,,,,,,,,,,None,891.7396100189944,891.7396100189944,891.7396100189944,891.7396100189944,891.7396100189944,891.7396100189944,i,0.2633881090005161,892.0592657859961,892.0592657859961,892.0592657859961,892.0592657859961,892.0592657859961,892.0592657859961,892.3350320210011,892.3350320210011,893.7283826479979,893.7283826479979,893.7548366949923,893.7548366949923,893.7548366949923,893.7548366949923,893.7548366949923,893.7548366949923,893.7548366949923,893.7548366949923,893.7548366949923,893.7548366949923,893.7548366949923,893.7548366949923,893.7548366949923,893.7548366949923,893.7548366949923,31,41,49,71,49,29,None,None,896.2682374339929,896.2682374339929,896.2682374339929,896.2682374339929,896.2682374339929,896.2682374339929,896.2682374339929,896.2682374339929,0.008890323006198741,896.2682374339929,45,45,[-0.0075],[-0.2975],[1],[0],[0],[5.141750634997152],['tijiao'],-0.2,0,,[],[],[],[],[],[],[],901.4380546199973,901.4380546199973,901.4380546199973,901.4380546199973,4.975,1.1578514220018405,902.6169797320035,904.5615345050028,,,,,,,,,,,,,,,,,,,283,f,19,2023-04-05_13h47.30.249,RL,2022.2.4,60.00107522186719,
1,-0.3,-0.225,0,56,56,56,,,,,,,,,,None,904.5615345050028,904.5615345050028,904.5615345050028,904.5615345050028,904.5615345050028,904.5615345050028,i,0.26619317098811734,904.8676255159953,904.8676255159953,904.8676255159953,904.8676255159953,904.8676255159953,904.8676255159953,905.1360751210013,905.1360751210013,906.8592081379902,906.8592081379902,906.8995938919979,906.8995938919979,906.8995938919979,906.8995938919979,906.8995938919979,906.8995938919979,906.8995938919979,906.8995938919979,906.8995938919979,906.8995938919979,906.8995938919979,906.8995938919979,906.8995938919979,906.8995938919979,906.8995938919979,40,49,49,69,49,90,1.0,2.1833150909951655,,,,,,,,,,,,,[],[],[],[],[],[],[],-0.6,3,,[],[],[],[],[],[],[],,,,,None,None,911.6405823059904,913.5652777049982,,,,,,,,,,,909.4102833609941,909.4102833609941,909.4102833609941,909.4102833609941,909.4102833609941,,,,283,f,19,2023-04-05_13h47.30.249,RL,2022.2.4,60.00107522186719,
0,0.3,0.225,0,57,57,57,,,,,,,,,,None,913.5652777049982,913.5652777049982,913.5652777049982,913.5652777049982,913.5652777049982,913.5652777049982,i,0.4307805419957731,914.0363251859962,914.0363251859962,914.0363251859962,914.0363251859962,914.0363251859962,914.0363251859962,914.3070012800017,914.3070012800017,915.8259250699921,915.8259250699921,915.8658900570008,915.8658900570008,915.8658900570008,915.8658900570008,915.8658900570008,915.8658900570008,915.8658900570008,915.8658900570008,915.8658900570008,915.8658900570008,915.8658900570008,915.8658900570008,915.8658900570008,915.8658900570008,915.8658900570008,32,49,61,79,61,89,None,None,918.3796534369903,918.3796534369903,918.3796534369903,918.3796534369903,918.3796534369903,918.3796534369903,918.3796534369903,918.3796534369903,0.009196886996505782,918.3796534369903,65,65,[-0.01],[-0.32375],[1],[0],[0],[3.9672092989931116],['tijiao'],0.2,0,,[],[],[],[],[],[],[],922.377903458997,922.377903458997,922.377903458997,922.377903458997,4.075,3.4563648470066255,925.8541823669948,927.8230895040033,,,,,,,,,,,,,,,,,,,283,f,19,2023-04-05_13h47.30.249,RL,2022.2.4,60.00107522186719,
1,-0.3,-0.225,0,58,58,58,,,,,,,,,,None,927.8230895040033,927.8230895040033,927.8230895040033,927.8230895040033,927.8230895040033,927.8230895040033,i,0.25232652299746405,928.12487186199,928.12487186199,928.12487186199,928.12487186199,928.12487186199,928.12487186199,928.3987569699966,928.3987569699966,929.4021308869997,929.4021308869997,929.4242690949904,929.4242690949904,929.4242690949904,929.4242690949904,929.4242690949904,929.4242690949904,929.4242690949904,929.4242690949904,929.4242690949904,929.4242690949904,929.4242690949904,929.4242690949904,929.4242690949904,929.4242690949904,929.4242690949904,37,50,59,71,59,92,None,None,,,,,,,,,,,,,[],[],[],[],[],[],[],0.2,1,60,[-0.0175],[-0.3025],[1],[0],[0],[4.9138484459981555],['tijiao_random_2'],936.8818951639987,936.8818951639987,936.8818951639987,936.8818951639987,5.0625,5.709484680002788,942.6146873559919,944.3644040039944,931.951238469992,931.951238469992,931.951238469992,931.951238469992,931.951238469992,931.951238469992,931.951238469992,931.951238469992,0.009997378991101868,931.951238469992,,,,,,,,,283,f,19,2023-04-05_13h47.30.249,RL,2022.2.4,60.00107522186719,
0,0.3,0.225,0,59,59,59,,,,,,,,,,None,944.3644040039944,944.3644040039944,944.3644040039944,944.3644040039944,944.3644040039944,944.3644040039944,f,0.28485995400114916,944.7012789569999,944.7012789569999,944.7012789569999,944.7012789569999,944.7012789569999,944.7012789569999,944.9782783589908,944.9782783589908,945.9230057709938,945.9230057709938,945.9474175229989,945.9474175229989,945.9474175229989,945.9474175229989,945.9474175229989,945.9474175229989,945.9474175229989,945.9474175229989,945.9474175229989,945.9474175229989,945.9474175229989,945.9474175229989,945.9474175229989,945.9474175229989,945.9474175229989,38,45,62,69,45,16,6.0,6.115980328002479,,,,,,,,,,,,,[],[],[],[],[],[],[],0.6,3,,[],[],[],[],[],[],[],,,,,None,None,954.6162743070017,956.3532362510014,,,,,,,,,,,948.4513374809903,948.4513374809903,948.4513374809903,948.4513374809903,948.4513374809903,,,,283,f,19,2023-04-05_13h47.30.249,RL,2022.2.4,60.00107522186719,
1,-0.3,-0.225,0,60,60,60,,,,,,,,,,None,956.3532362510014,956.3532362510014,956.3532362510014,956.3532362510014,956.3532362510014,956.3532362510014,f,0.4522665499971481,956.8574439310032,956.8574439310032,956.8574439310032,956.8574439310032,956.8574439310032,956.8574439310032,957.127410999994,957.127410999994,959.079665887999,959.079665887999,959.1202498579951,959.1202498579951,959.1202498579951,959.1202498579951,959.1202498579951,959.1202498579951,959.1202498579951,959.1202498579951,959.1202498579951,959.1202498579951,959.1202498579951,959.1202498579951,959.1202498579951,959.1202498579951,959.1202498579951,41,48,51,63,48,83,None,None,,,,,,,,,,,,,[],[],[],[],[],[],[],-0.2,1,50,"[0.06625, 0.055]","[-0.39, -0.31375]","[1, 1]","[0, 0]","[0, 0]","[4.391492106005899, 5.260689663991798]",['tijiao_random_2'],966.9282007189904,966.9282007189904,966.9282007189904,966.9282007189904,6.05,2.407487971999217,969.3605911689956,970.8780812339974,961.6514376440027,961.6514376440027,961.6514376440027,961.6514376440027,961.6514376440027,961.6514376440027,961.6514376440027,961.6514376440027,0.009949731000233442,961.6514376440027,,,,,,,,,283,f,19,2023-04-05_13h47.30.249,RL,2022.2.4,60.00107522186719,
0,0.3,0.225,0,61,61,61,,,,,,,,,,None,970.8780812339974,970.8780812339974,970.8780812339974,970.8780812339974,970.8780812339974,970.8780812339974,f,0.25459892700018827,971.1795984920027,971.1795984920027,971.1795984920027,971.1795984920027,971.1795984920027,971.1795984920027,971.4496019270009,971.4496019270009,972.8497046699922,972.8497046699922,972.8905487930024,972.8905487930024,972.8905487930024,972.8905487930024,972.8905487930024,972.8905487930024,972.8905487930024,972.8905487930024,972.8905487930024,972.8905487930024,972.8905487930024,972.8905487930024,972.8905487930024,972.8905487930024,972.8905487930024,36,51,50,60,51,87,None,None,,,,,,,,,,,,,[],[],[],[],[],[],[],0.2,1,60,[0.02],[-0.27625],[1],[0],[0],[3.360408712993376],['tijiao_random_2'],978.796110493,978.796110493,978.796110493,978.796110493,5.875,2.2777157370001078,981.0948911790038,983.0325590159919,975.4215428239986,975.4215428239986,975.4215428239986,975.4215428239986,975.4215428239986,975.4215428239986,975.4215428239986,975.4215428239986,0.010017217005952261,975.4215428239986,,,,,,,,,283,f,19,2023-04-05_13h47.30.249,RL,2022.2.4,60.00107522186719,
1,-0.3,-0.225,0,62,62,62,,,,,,,,,,None,983.0325590159919,983.0325590159919,983.0325590159919,983.0325590159919,983.0325590159919,983.0325590159919,i,0.3036573720019078,983.372026387995,983.372026387995,983.372026387995,983.372026387995,983.372026387995,983.372026387995,983.6396713799913,983.6396713799913,985.1702291120018,985.1702291120018,985.1936910160002,985.1936910160002,985.1936910160002,985.1936910160002,985.1936910160002,985.1936910160002,985.1936910160002,985.1936910160002,985.1936910160002,985.1936910160002,985.1936910160002,985.1936910160002,985.1936910160002,985.1936910160002,985.1936910160002,25,49,54,65,54,88,2.0,1.963256155999261,,,,,,,,,,,,,[],[],[],[],[],[],[],-0.2,3,,[],[],[],[],[],[],[],,,,,None,None,989.7127209640021,991.4522647589911,,,,,,,,,,,987.7031181289931,987.7031181289931,987.7031181289931,987.7031181289931,987.7031181289931,,,,283,f,19,2023-04-05_13h47.30.249,RL,2022.2.4,60.00107522186719,
0,0.3,0.225,0,63,63,63,,,,,,,,,,None,991.4522647589911,991.4522647589911,991.4522647589911,991.4522647589911,991.4522647589911,991.4522647589911,j,0.27687323999998625,991.7730941109912,991.7730941109912,991.7730941109912,991.7730941109912,991.7730941109912,991.7730941109912,992.0416959349968,992.0416959349968,993.6497162509913,993.6497162509913,993.6892539660039,993.6892539660039,993.6892539660039,993.6892539660039,993.6892539660039,993.6892539660039,993.6892539660039,993.6892539660039,993.6892539660039,993.6892539660039,993.6892539660039,993.6892539660039,993.6892539660039,993.6892539660039,993.6892539660039,36,43,62,70,70,88,2.0,2.0029554110078607,,,,,,,,,,,,,[],[],[],[],[],[],[],0.2,3,,[],[],[],[],[],[],[],,,,,None,None,998.2478370739991,999.9233100540005,,,,,,,,,,,996.1982581149932,996.1982581149932,996.1982581149932,996.1982581149932,996.1982581149932,,,,283,f,19,2023-04-05_13h47.30.249,RL,2022.2.4,60.00107522186719,
1,-0.3,-0.225,0,64,64,64,,,,,,,,,,None,999.9233100540005,999.9233100540005,999.9233100540005,999.9233100540005,999.9233100540005,999.9233100540005,j,0.6702227619971382,1000.6448233999981,1000.6448233999981,1000.6448233999981,1000.6448233999981,1000.6448233999981,1000.6448233999981,1000.9134323460021,1000.9134323460021,1001.9791956809931,1001.9791956809931,1002.0204949850013,1002.0204949850013,1002.0204949850013,1002.0204949850013,1002.0204949850013,1002.0204949850013,1002.0204949850013,1002.0204949850013,1002.0204949850013,1002.0204949850013,1002.0204949850013,1002.0204949850013,1002.0204949850013,1002.0204949850013,1002.0204949850013,41,48,61,78,78,90,None,None,,,,,,,,,,,,,[],[],[],[],[],[],[],-0.6,1,25,[0.0675],[-0.27],[1],[0],[0],[4.939331118002883],['tijiao_random_2'],1009.5070734309993,1009.5070734309993,1009.5070734309993,1009.5070734309993,5.074999999999999,2.011763607006287,1011.5394566949981,1013.4137027129909,1004.5477841919928,1004.5477841919928,1004.5477841919928,1004.5477841919928,1004.5477841919928,1004.5477841919928,1004.5477841919928,1004.5477841919928,0.010041984001873061,1004.5477841919928,,,,,,,,,283,f,19,2023-04-05_13h47.30.249,RL,2022.2.4,60.00107522186719,
0,0.3,0.225,0,65,65,65,,,,,,,,,,None,1013.4137027129909,1013.4137027129909,1013.4137027129909,1013.4137027129909,1013.4137027129909,1013.4137027129909,j,0.3326724819926312,1013.7880290729954,1013.7880290729954,1013.7880290729954,1013.7880290729954,1013.7880290729954,1013.7880290729954,1014.054585135993,1014.054585135993,1014.8871342310013,1014.8871342310013,1014.9294004830008,1014.9294004830008,1014.9294004830008,1014.9294004830008,1014.9294004830008,1014.9294004830008,1014.9294004830008,1014.9294004830008,1014.9294004830008,1014.9294004830008,1014.9294004830008,1014.9294004830008,1014.9294004830008,1014.9294004830008,1014.9294004830008,39,40,60,69,69,86,None,None,1017.441575356992,1017.441575356992,1017.441575356992,1017.441575356992,1017.441575356992,1017.441575356992,1017.441575356992,1017.441575356992,0.008385405002627522,1017.441575356992,65,65,[0.01375],[-0.31625],[1],[0],[0],[9.401248988011503],['tijiao'],0.2,0,,[],[],[],[],[],[],[],1026.8746533609956,1026.8746533609956,1026.8746533609956,1026.8746533609956,5.1499999999999995,2.569181364000542,1029.4645528419933,1031.0225787169911,,,,,,,,,,,,,,,,,,,283,f,19,2023-04-05_13h47.30.249,RL,2022.2.4,60.00107522186719,
1,-0.3,-0.225,0,66,66,66,,,,,,,,,,None,1031.0225787169911,1031.0225787169911,1031.0225787169911,1031.0225787169911,1031.0225787169911,1031.0225787169911,j,0.35405279201222584,1031.4253972400038,1031.4253972400038,1031.4253972400038,1031.4253972400038,1031.4253972400038,1031.4253972400038,1031.694919941001,1031.694919941001,1033.191442544994,1033.191442544994,1033.211394507991,1033.211394507991,1033.211394507991,1033.211394507991,1033.211394507991,1033.211394507991,1033.211394507991,1033.211394507991,1033.211394507991,1033.211394507991,1033.211394507991,1033.211394507991,1033.211394507991,1033.211394507991,1033.211394507991,50,42,70,79,79,90,3.0,3.0217567549989326,,,,,,,,,,,,,[],[],[],[],[],[],[],0.6,3,,[],[],[],[],[],[],[],,,,,None,None,1038.784777998997,1040.3771351909963,,,,,,,,,,,1035.7171826319973,1035.7171826319973,1035.7171826319973,1035.7171826319973,1035.7171826319973,,,,283,f,19,2023-04-05_13h47.30.249,RL,2022.2.4,60.00107522186719,
0,0.3,0.225,0,67,67,67,,,,,,,,,,None,1040.3771351909963,1040.3771351909963,1040.3771351909963,1040.3771351909963,1040.3771351909963,1040.3771351909963,j,0.4413641879946226,1040.8681930309976,1040.8681930309976,1040.8681930309976,1040.8681930309976,1040.8681930309976,1040.8681930309976,1041.1513913149975,1041.1513913149975,1042.5012576699955,1042.5012576699955,1042.5257121189934,1042.5257121189934,1042.5257121189934,1042.5257121189934,1042.5257121189934,1042.5257121189934,1042.5257121189934,1042.5257121189934,1042.5257121189934,1042.5257121189934,1042.5257121189934,1042.5257121189934,1042.5257121189934,1042.5257121189934,1042.5257121189934,41,38,63,71,71,94,2.0,2.3292346020025434,,,,,,,,,,,,,[],[],[],[],[],[],[],-0.6,2,,[],[],[],[],[],[],[],,,,,None,None,1047.405235897997,1049.2808590069908,,,,,,,,,,,1045.0312223590008,1045.0312223590008,1045.0312223590008,1045.0312223590008,1045.0312223590008,,,,283,f,19,2023-04-05_13h47.30.249,RL,2022.2.4,60.00107522186719,
1,-0.3,-0.225,0,68,68,68,,,,,,,,,,None,1049.2808590069908,1049.2808590069908,1049.2808590069908,1049.2808590069908,1049.2808590069908,1049.2808590069908,i,0.3007177629915532,1049.620957416002,1049.620957416002,1049.620957416002,1049.620957416002,1049.620957416002,1049.620957416002,1049.887406185997,1049.887406185997,1050.8450035159913,1050.8450035159913,1050.8856943179999,1050.8856943179999,1050.8856943179999,1050.8856943179999,1050.8856943179999,1050.8856943179999,1050.8856943179999,1050.8856943179999,1050.8856943179999,1050.8856943179999,1050.8856943179999,1050.8856943179999,1050.8856943179999,1050.8856943179999,1050.8856943179999,40,40,63,80,63,91,1.0,4.098146798001835,,,,,,,,,,,,,[],[],[],[],[],[],[],0.6,2,,[],[],[],[],[],[],[],,,,,None,None,1057.5305990100023,1059.36734728,,,,,,,,,,,1053.3837854009907,1053.3837854009907,1053.3837854009907,1053.3837854009907,1053.3837854009907,,,,283,f,19,2023-04-05_13h47.30.249,RL,2022.2.4,60.00107522186719,
0,0.3,0.225,0,69,69,69,,,,,,,,,,None,1059.36734728,1059.36734728,1059.36734728,1059.36734728,1059.36734728,1059.36734728,j,0.44469676399603486,1059.8706267410016,1059.8706267410016,1059.8706267410016,1059.8706267410016,1059.8706267410016,1059.8706267410016,1060.1421193389979,1060.1421193389979,1061.0690578740032,1061.0690578740032,1061.090341652991,1061.090341652991,1061.090341652991,1061.090341652991,1061.090341652991,1061.090341652991,1061.090341652991,1061.090341652991,1061.090341652991,1061.090341652991,1061.090341652991,1061.090341652991,1061.090341652991,1061.090341652991,1061.090341652991,41,42,70,74,74,92,None,None,1063.61464956899,1063.61464956899,1063.61464956899,1063.61464956899,1063.61464956899,1063.61464956899,1063.61464956899,1063.61464956899,0.009110243001487106,1063.61464956899,79,79,[-0.07375],[-0.3],[1],[0],[0],[5.546623676011222],['tijiao'],-0.2,0,,[],[],[],[],[],[],[],1069.1939613400027,1069.1939613400027,1069.1939613400027,1069.1939613400027,4.95,3.4443559320061468,1072.6527946449933,1074.2089395319927,,,,,,,,,,,,,,,,,,,283,f,19,2023-04-05_13h47.30.249,RL,2022.2.4,60.00107522186719,
1,-0.3,-0.225,0,70,70,70,,,,,,,,,,None,1074.2089395319927,1074.2089395319927,1074.2089395319927,1074.2089395319927,1074.2089395319927,1074.2089395319927,i,0.3726028060045792,1074.629857063992,1074.629857063992,1074.629857063992,1074.629857063992,1074.629857063992,1074.629857063992,1074.8989626519906,1074.8989626519906,1076.6262146099907,1076.6262146099907,1076.664080046001,1076.664080046001,1076.664080046001,1076.664080046001,1076.664080046001,1076.664080046001,1076.664080046001,1076.664080046001,1076.664080046001,1076.664080046001,1076.664080046001,1076.664080046001,1076.664080046001,1076.664080046001,1076.664080046001,47,39,69,80,69,90,2.0,3.004873669007793,,,,,,,,,,,,,[],[],[],[],[],[],[],-0.2,2,,[],[],[],[],[],[],[],,,,,None,None,1082.2244177870016,1084.0634018589917,,,,,,,,,,,1079.1722236920032,1079.1722236920032,1079.1722236920032,1079.1722236920032,1079.1722236920032,,,,283,f,19,2023-04-05_13h47.30.249,RL,2022.2.4,60.00107522186719,
0,0.3,0.225,0,71,71,71,,,,,,,,,,None,1084.0634018589917,1084.0634018589917,1084.0634018589917,1084.0634018589917,1084.0634018589917,1084.0634018589917,j,0.25717109499964863,1084.3723597899952,1084.3723597899952,1084.3723597899952,1084.3723597899952,1084.3723597899952,1084.3723597899952,1084.6377414009912,1084.6377414009912,1085.7739793279907,1085.7739793279907,1085.8137101509928,1085.8137101509928,1085.8137101509928,1085.8137101509928,1085.8137101509928,1085.8137101509928,1085.8137101509928,1085.8137101509928,1085.8137101509928,1085.8137101509928,1085.8137101509928,1085.8137101509928,1085.8137101509928,1085.8137101509928,1085.8137101509928,49,33,63,86,86,80,6.0,2.456283085004543,,,,,,,,,,,,,[],[],[],[],[],[],[],-0.2,3,,[],[],[],[],[],[],[],,,,,None,None,1090.8210647550004,1092.5178928840032,,,,,,,,,,,1088.3214151720022,1088.3214151720022,1088.3214151720022,1088.3214151720022,1088.3214151720022,,,,283,f,19,2023-04-05_13h47.30.249,RL,2022.2.4,60.00107522186719,
1,-0.3,-0.225,0,72,72,72,,,,,,,,,,None,1092.5178928840032,1092.5178928840032,1092.5178928840032,1092.5178928840032,1092.5178928840032,1092.5178928840032,i,0.38698119499895256,1092.9545510099997,1092.9545510099997,1092.9545510099997,1092.9545510099997,1092.9545510099997,1092.9545510099997,1093.225810650998,1093.225810650998,1094.3112323550013,1094.3112323550013,1094.3518520479993,1094.3518520479993,1094.3518520479993,1094.3518520479993,1094.3518520479993,1094.3518520479993,1094.3518520479993,1094.3518520479993,1094.3518520479993,1094.3518520479993,1094.3518520479993,1094.3518520479993,1094.3518520479993,1094.3518520479993,1094.3518520479993,47,42,66,80,66,92,None,None,,,,,,,,,,,,,[],[],[],[],[],[],[],-0.2,1,50,[0.095],[-0.26875],[1],[0],[0],[7.813311947000329],['tijiao_random_2'],1104.713435216996,1104.713435216996,1104.713435216996,1104.713435216996,5.074999999999999,4.254562270012684,1108.9863527319976,1110.526064206002,1096.882287927001,1096.882287927001,1096.882287927001,1096.882287927001,1096.882287927001,1096.882287927001,1096.882287927001,1096.882287927001,0.00983572100813035,1096.882287927001,,,,,,,,,283,f,19,2023-04-05_13h47.30.249,RL,2022.2.4,60.00107522186719,
0,0.3,0.225,0,73,73,73,,,,,,,,,,None,1110.526064206002,1110.526064206002,1110.526064206002,1110.526064206002,1110.526064206002,1110.526064206002,f,0.27411727599974256,1110.850761351001,1110.850761351001,1110.850761351001,1110.850761351001,1110.850761351001,1110.850761351001,1111.1169157529948,1111.1169157529948,1112.652323066999,1112.652323066999,1112.6936059419968,1112.6936059419968,1112.6936059419968,1112.6936059419968,1112.6936059419968,1112.6936059419968,1112.6936059419968,1112.6936059419968,1112.6936059419968,1112.6936059419968,1112.6936059419968,1112.6936059419968,1112.6936059419968,1112.6936059419968,1112.6936059419968,48,36,66,77,36,86,1.0,1.8387071579927579,,,,,,,,,,,,,[],[],[],[],[],[],[],-0.6,2,,[],[],[],[],[],[],[],,,,,None,None,1117.0878395559994,1118.813868532001,,,,,,,,,,,1115.2032920399943,1115.2032920399943,1115.2032920399943,1115.2032920399943,1115.2032920399943,,,,283,f,19,2023-04-05_13h47.30.249,RL,2022.2.4,60.00107522186719,
1,-0.3,-0.225,0,74,74,74,,,,,,,,,,None,1118.813868532001,1118.813868532001,1118.813868532001,1118.813868532001,1118.813868532001,1118.813868532001,j,0.2991163190017687,1119.1519444559963,1119.1519444559963,1119.1519444559963,1119.1519444559963,1119.1519444559963,1119.1519444559963,1119.419880454996,1119.419880454996,1120.3571580799908,1120.3571580799908,1120.396867043004,1120.396867043004,1120.396867043004,1120.396867043004,1120.396867043004,1120.396867043004,1120.396867043004,1120.396867043004,1120.396867043004,1120.396867043004,1120.396867043004,1120.396867043004,1120.396867043004,1120.396867043004,1120.396867043004,44,34,66,79,79,95,None,None,,,,,,,,,,,,,[],[],[],[],[],[],[],-0.6,1,25,[-0.03125],[-0.3075],[1],[0],[0],[5.928724598008557],['tijiao_random_2'],1128.8783342899987,1128.8783342899987,1128.8783342899987,1128.8783342899987,4.05,2.383582595997723,1131.2799583899905,1133.151916556002,1122.9333660289994,1122.9333660289994,1122.9333660289994,1122.9333660289994,1122.9333660289994,1122.9333660289994,1122.9333660289994,1122.9333660289994,0.010167366999667138,1122.9333660289994,,,,,,,,,283,f,19,2023-04-05_13h47.30.249,RL,2022.2.4,60.00107522186719,
0,0.3,0.225,0,75,75,75,,,,,,,,,,q,1185.9680322229979,1185.9680322229979,1185.9680322229979,1185.9680322229979,1185.9680322229979,1185.9680322229979,i,0.6695030209957622,1186.6883289980033,1186.6883289980033,1186.6883289980033,1186.6883289980033,1186.6883289980033,1186.6883289980033,1186.9696621039911,1186.9696621039911,1188.2590684469906,1188.2590684469906,1188.298042837996,1188.298042837996,1188.298042837996,1188.298042837996,1188.298042837996,1188.298042837996,1188.298042837996,1188.298042837996,1188.298042837996,1188.298042837996,1188.298042837996,1188.298042837996,1188.298042837996,1188.298042837996,1188.298042837996,46,45,68,82,68,81,None,None,1190.8311226130027,1190.8311226130027,1190.8311226130027,1190.8311226130027,1190.8311226130027,1190.8311226130027,1190.8311226130027,1190.8311226130027,0.009145665011601523,1190.8311226130027,70,70,[0.04375],[-0.32375],[1],[0],[0],[4.209483806989738],['tijiao'],0.2,0,,[],[],[],[],[],[],[],1195.0717944219941,1195.0717944219941,1195.0717944219941,1195.0717944219941,6.0375000000000005,4.913376460011932,1200.0031403640023,1201.7534512050042,,,,,,,,,,,,,,,,1133.151916556002,1133.151916556002,52.79086782799277,283,f,19,2023-04-05_13h47.30.249,RL,2022.2.4,60.00107522186719,
1,-0.3,-0.225,0,76,76,76,,,,,,,,,,None,1201.7534512050042,1201.7534512050042,1201.7534512050042,1201.7534512050042,1201.7534512050042,1201.7534512050042,i,0.29912674899969716,1202.0947674420022,1202.0947674420022,1202.0947674420022,1202.0947674420022,1202.0947674420022,1202.0947674420022,1202.3604259720014,1202.3604259720014,1204.1103586329991,1204.1103586329991,1204.1527455079922,1204.1527455079922,1204.1527455079922,1204.1527455079922,1204.1527455079922,1204.1527455079922,1204.1527455079922,1204.1527455079922,1204.1527455079922,1204.1527455079922,1204.1527455079922,1204.1527455079922,1204.1527455079922,1204.1527455079922,1204.1527455079922,49,42,64,82,64,88,3.0,5.200101487003849,,,,,,,,,,,,,[],[],[],[],[],[],[],-0.6,2,,[],[],[],[],[],[],[],,,,,None,None,1211.8994349400018,1213.5574522009993,,,,,,,,,,,1206.6555780479976,1206.6555780479976,1206.6555780479976,1206.6555780479976,1206.6555780479976,,,,283,f,19,2023-04-05_13h47.30.249,RL,2022.2.4,60.00107522186719,
0,0.3,0.225,0,77,77,77,,,,,,,,,,None,1213.5574522009993,1213.5574522009993,1213.5574522009993,1213.5574522009993,1213.5574522009993,1213.5574522009993,r,0.47510135400807485,1214.0848985519988,1214.0848985519988,1214.0848985519988,1214.0848985519988,1214.0848985519988,1214.0848985519988,1214.3508791670029,1214.3508791670029,1216.2193877480022,1216.2193877480022,1216.2611157630017,1216.2611157630017,1216.2611157630017,1216.2611157630017,1216.2611157630017,1216.2611157630017,1216.2611157630017,1216.2611157630017,1216.2611157630017,1216.2611157630017,1216.2611157630017,1216.2611157630017,1216.2611157630017,1216.2611157630017,1216.2611157630017,52,49,61,75,52,88,3.0,2.212813044010545,,,,,,,,,,,,,[],[],[],[],[],[],[],-0.6,2,,[],[],[],[],[],[],[],,,,,None,None,1221.0200951119914,1222.9800659250031,,,,,,,,,,,1218.7605058320041,1218.7605058320041,1218.7605058320041,1218.7605058320041,1218.7605058320041,,,,283,f,19,2023-04-05_13h47.30.249,RL,2022.2.4,60.00107522186719,
1,-0.3,-0.225,0,78,78,78,,,,,,,,,,None,1222.9800659250031,1222.9800659250031,1222.9800659250031,1222.9800659250031,1222.9800659250031,1222.9800659250031,f,0.2788389460038161,1223.3058449380042,1223.3058449380042,1223.3058449380042,1223.3058449380042,1223.3058449380042,1223.3058449380042,1223.570921637991,1223.570921637991,1224.6041293809976,1224.6041293809976,1224.6451033850026,1224.6451033850026,1224.6451033850026,1224.6451033850026,1224.6451033850026,1224.6451033850026,1224.6451033850026,1224.6451033850026,1224.6451033850026,1224.6451033850026,1224.6451033850026,1224.6451033850026,1224.6451033850026,1224.6451033850026,1224.6451033850026,40,40,62,72,40,98,None,None,,,,,,,,,,,,,[],[],[],[],[],[],[],-0.2,1,50,[0.02],[-0.2875],[1],[0],[0],[3.251701779998257],['tijiao_random_2'],1230.4462429370033,1230.4462429370033,1230.4462429370033,1230.4462429370033,7.0625,2.631798037007684,1233.095369128001,1234.9355980059918,1227.1756730089983,1227.1756730089983,1227.1756730089983,1227.1756730089983,1227.1756730089983,1227.1756730089983,1227.1756730089983,1227.1756730089983,0.01016508300381247,1227.1756730089983,,,,,,,,,283,f,19,2023-04-05_13h47.30.249,RL,2022.2.4,60.00107522186719,
0,0.3,0.225,0,79,79,79,,,,,,,,,,None,1234.9355980059918,1234.9355980059918,1234.9355980059918,1234.9355980059918,1234.9355980059918,1234.9355980059918,i,0.40767580599640496,1235.3933283359947,1235.3933283359947,1235.3933283359947,1235.3933283359947,1235.3933283359947,1235.3933283359947,1235.6701328479976,1235.6701328479976,1236.5635211859917,1236.5635211859917,1236.585168894002,1236.585168894002,1236.585168894002,1236.585168894002,1236.585168894002,1236.585168894002,1236.585168894002,1236.585168894002,1236.585168894002,1236.585168894002,1236.585168894002,1236.585168894002,1236.585168894002,1236.585168894002,1236.585168894002,40,45,62,71,62,91,None,None,,,,,,,,,,,,,[],[],[],[],[],[],[],-0.2,1,50,[0.075],[-0.32125],[1],[0],[0],[4.107834149996052],['tijiao_random_2'],1243.2468591119978,1243.2468591119978,1243.2468591119978,1243.2468591119978,6.9750000000000005,1.7769335710036103,1245.0437080209958,1246.9743227360013,1239.1236718439905,1239.1236718439905,1239.1236718439905,1239.1236718439905,1239.1236718439905,1239.1236718439905,1239.1236718439905,1239.1236718439905,0.010123622996616177,1239.1236718439905,,,,,,,,,283,f,19,2023-04-05_13h47.30.249,RL,2022.2.4,60.00107522186719,
1,-0.3,-0.225,0,80,80,80,,,,,,,,,,None,1246.9743227360013,1246.9743227360013,1246.9743227360013,1246.9743227360013,1246.9743227360013,1246.9743227360013,f,0.4790716299903579,1247.5010249129991,1247.5010249129991,1247.5010249129991,1247.5010249129991,1247.5010249129991,1247.5010249129991,1247.766080396992,1247.766080396992,1248.902700673003,1248.902700673003,1248.9407788629906,1248.9407788629906,1248.9407788629906,1248.9407788629906,1248.9407788629906,1248.9407788629906,1248.9407788629906,1248.9407788629906,1248.9407788629906,1248.9407788629906,1248.9407788629906,1248.9407788629906,1248.9407788629906,1248.9407788629906,1248.9407788629906,53,48,68,81,48,91,1.0,1.7031204759987304,,,,,,,,,,,,,[],[],[],[],[],[],[],-0.6,2,,[],[],[],[],[],[],[],,,,,None,None,1253.2031204550003,1255.011446710996,,,,,,,,,,,1251.453908851996,1251.453908851996,1251.453908851996,1251.453908851996,1251.453908851996,,,,283,f,19,2023-04-05_13h47.30.249,RL,2022.2.4,60.00107522186719,
0,0.3,0.225,0,81,81,81,,,,,,,,,,None,1255.011446710996,1255.011446710996,1255.011446710996,1255.011446710996,1255.011446710996,1255.011446710996,j,0.6152943859924562,1255.6822002989938,1255.6822002989938,1255.6822002989938,1255.6822002989938,1255.6822002989938,1255.6822002989938,1255.9548128199967,1255.9548128199967,1256.7718153390015,1256.7718153390015,1256.7955603849987,1256.7955603849987,1256.7955603849987,1256.7955603849987,1256.7955603849987,1256.7955603849987,1256.7955603849987,1256.7955603849987,1256.7955603849987,1256.7955603849987,1256.7955603849987,1256.7955603849987,1256.7955603849987,1256.7955603849987,1256.7955603849987,51,47,62,74,74,23,None,None,,,,,,,,,,,,,[],[],[],[],[],[],[],-0.6,1,60,[-0.06],[-0.28875],[1],[0],[0],[8.64852014000644],['tijiao_random_2'],1268.0006833249936,1268.0006833249936,1268.0006833249936,1268.0006833249936,6.0,1.8655831369978841,1269.8890228489909,1271.5199097119912,1259.3337212879997,1259.3337212879997,1259.3337212879997,1259.3337212879997,1259.3337212879997,1259.3337212879997,1259.3337212879997,1259.3337212879997,0.009822357998928055,1259.3337212879997,,,,,,,,,283,f,19,2023-04-05_13h47.30.249,RL,2022.2.4,60.00107522186719,
1,-0.3,-0.225,0,82,82,82,,,,,,,,,,None,1271.5199097119912,1271.5199097119912,1271.5199097119912,1271.5199097119912,1271.5199097119912,1271.5199097119912,j,0.291690687998198,1271.871668427004,1271.871668427004,1271.871668427004,1271.871668427004,1271.871668427004,1271.871668427004,1272.1436671190022,1272.1436671190022,1273.5987727199972,1273.5987727199972,1273.6367930279957,1273.6367930279957,1273.6367930279957,1273.6367930279957,1273.6367930279957,1273.6367930279957,1273.6367930279957,1273.6367930279957,1273.6367930279957,1273.6367930279957,1273.6367930279957,1273.6367930279957,1273.6367930279957,1273.6367930279957,1273.6367930279957,53,51,65,80,80,83,3.0,1.4153883289982332,,,,,,,,,,,,,[],[],[],[],[],[],[],-0.2,2,,[],[],[],[],[],[],[],,,,,None,None,1277.5982953149942,1279.3731820169924,,,,,,,,,,,1276.1377549259923,1276.1377549259923,1276.1377549259923,1276.1377549259923,1276.1377549259923,,,,283,f,19,2023-04-05_13h47.30.249,RL,2022.2.4,60.00107522186719,
0,0.3,0.225,0,83,83,83,,,,,,,,,,None,1279.3731820169924,1279.3731820169924,1279.3731820169924,1279.3731820169924,1279.3731820169924,1279.3731820169924,j,0.3234204519976629,1279.7500802680006,1279.7500802680006,1279.7500802680006,1279.7500802680006,1279.7500802680006,1279.7500802680006,1280.0318737219932,1280.0318737219932,1281.3134512329998,1281.3134512329998,1281.3391815439973,1281.3391815439973,1281.3391815439973,1281.3391815439973,1281.3391815439973,1281.3391815439973,1281.3391815439973,1281.3391815439973,1281.3391815439973,1281.3391815439973,1281.3391815439973,1281.3391815439973,1281.3391815439973,1281.3391815439973,1281.3391815439973,58,59,62,82,82,83,3.0,1.419936232996406,,,,,,,,,,,,,[],[],[],[],[],[],[],0.2,2,,[],[],[],[],[],[],[],,,,,None,None,1285.3149086149933,1287.1768102839997,,,,,,,,,,,1283.8490196420025,1283.8490196420025,1283.8490196420025,1283.8490196420025,1283.8490196420025,,,,283,f,19,2023-04-05_13h47.30.249,RL,2022.2.4,60.00107522186719,
1,-0.3,-0.225,0,84,84,84,,,,,,,,,,None,1287.1768102839997,1287.1768102839997,1287.1768102839997,1287.1768102839997,1287.1768102839997,1287.1768102839997,j,0.6454824480024399,1287.8669242729957,1287.8669242729957,1287.8669242729957,1287.8669242729957,1287.8669242729957,1287.8669242729957,1288.1340187739988,1288.1340187739988,1290.0486897359951,1290.0486897359951,1290.0910494550044,1290.0910494550044,1290.0910494550044,1290.0910494550044,1290.0910494550044,1290.0910494550044,1290.0910494550044,1290.0910494550044,1290.0910494550044,1290.0910494550044,1290.0910494550044,1290.0910494550044,1290.0910494550044,1290.0910494550044,1290.0910494550044,42,59,71,81,81,88,None,None,,,,,,,,,,,,,[],[],[],[],[],[],[],-0.6,1,60,[0.0475],[-0.30875],[1],[0],[0],[3.9237487460050033],['tijiao_random_2'],1296.5661208579986,1296.5661208579986,1296.5661208579986,1296.5661208579986,4.05,1.54415334200894,1298.1276765569928,1299.9201984959946,1292.6232044200005,1292.6232044200005,1292.6232044200005,1292.6232044200005,1292.6232044200005,1292.6232044200005,1292.6232044200005,1292.6232044200005,0.010356590006267652,1292.6232044200005,,,,,,,,,283,f,19,2023-04-05_13h47.30.249,RL,2022.2.4,60.00107522186719,
0,0.3,0.225,0,85,85,85,,,,,,,,,,None,1299.9201984959946,1299.9201984959946,1299.9201984959946,1299.9201984959946,1299.9201984959946,1299.9201984959946,r,0.5527037840074627,1300.5243066129915,1300.5243066129915,1300.5243066129915,1300.5243066129915,1300.5243066129915,1300.5243066129915,1300.7902443399944,1300.7902443399944,1302.2566156510002,1302.2566156510002,1302.2986432339967,1302.2986432339967,1302.2986432339967,1302.2986432339967,1302.2986432339967,1302.2986432339967,1302.2986432339967,1302.2986432339967,1302.2986432339967,1302.2986432339967,1302.2986432339967,1302.2986432339967,1302.2986432339967,1302.2986432339967,1302.2986432339967,45,52,58,75,45,88,None,None,,,,,,,,,,,,,[],[],[],[],[],[],[],-0.2,1,25,[-0.02125],[-0.305],[1],[0],[0],[5.804647939992719],['tijiao_random_2'],1310.6462318220001,1310.6462318220001,1310.6462318220001,1310.6462318220001,2.1375,1.2260261570045259,1311.8929630259954,1313.6734360260016,1304.8235771710024,1304.8235771710024,1304.8235771710024,1304.8235771710024,1304.8235771710024,1304.8235771710024,1304.8235771710024,1304.8235771710024,0.011066392995417118,1304.8235771710024,,,,,,,,,283,f,19,2023-04-05_13h47.30.249,RL,2022.2.4,60.00107522186719,
1,-0.3,-0.225,0,86,86,86,,,,,,,,,,None,1313.6734360260016,1313.6734360260016,1313.6734360260016,1313.6734360260016,1313.6734360260016,1313.6734360260016,f,0.2945754309912445,1314.0084862459917,1314.0084862459917,1314.0084862459917,1314.0084862459917,1314.0084862459917,1314.0084862459917,1314.2790901019907,1314.2790901019907,1315.1355647299933,1315.1355647299933,1315.1580880779948,1315.1580880779948,1315.1580880779948,1315.1580880779948,1315.1580880779948,1315.1580880779948,1315.1580880779948,1315.1580880779948,1315.1580880779948,1315.1580880779948,1315.1580880779948,1315.1580880779948,1315.1580880779948,1315.1580880779948,1315.1580880779948,58,52,54,68,52,88,None,None,1317.6768671219907,1317.6768671219907,1317.6768671219907,1317.6768671219907,1317.6768671219907,1317.6768671219907,1317.6768671219907,1317.6768671219907,0.009945129000698216,1317.6768671219907,52,52,"[-0.01875, -0.01875]","[-0.24625, -0.2925]","[1, 1]","[0, 0]","[0, 0]","[5.133568299992476, 6.745424010005081]",['tijiao'],0.2,0,,[],[],[],[],[],[],[],1324.4571308349987,1324.4571308349987,1324.4571308349987,1324.4571308349987,4.075,2.9169913249934325,1327.392139752992,1329.1300933689927,,,,,,,,,,,,,,,,,,,283,f,19,2023-04-05_13h47.30.249,RL,2022.2.4,60.00107522186719,
0,0.3,0.225,0,87,87,87,,,,,,,,,,None,1329.1300933689927,1329.1300933689927,1329.1300933689927,1329.1300933689927,1329.1300933689927,1329.1300933689927,i,0.22907812100311276,1329.404245754995,1329.404245754995,1329.404245754995,1329.404245754995,1329.404245754995,1329.404245754995,1329.6746835739905,1329.6746835739905,1330.50855749099,1330.50855749099,1330.5469659200025,1330.5469659200025,1330.5469659200025,1330.5469659200025,1330.5469659200025,1330.5469659200025,1330.5469659200025,1330.5469659200025,1330.5469659200025,1330.5469659200025,1330.5469659200025,1330.5469659200025,1330.5469659200025,1330.5469659200025,1330.5469659200025,51,53,48,59,48,84,None,None,,,,,,,,,,,,,[],[],[],[],[],[],[],-0.2,1,55,[0.045],[-0.305],[1],[0],[0],[6.5499213300063275],['tijiao_random_2'],1339.6519947769993,1339.6519947769993,1339.6519947769993,1339.6519947769993,4.95,6.237249454992707,1345.9053513519902,1347.673015471999,1333.0769612229924,1333.0769612229924,1333.0769612229924,1333.0769612229924,1333.0769612229924,1333.0769612229924,1333.0769612229924,1333.0769612229924,0.010062159009976313,1333.0769612229924,,,,,,,,,283,f,19,2023-04-05_13h47.30.249,RL,2022.2.4,60.00107522186719,
1,-0.3,-0.225,0,88,88,88,,,,,,,,,,None,1347.673015471999,1347.673015471999,1347.673015471999,1347.673015471999,1347.673015471999,1347.673015471999,f,0.36962243099696934,1348.0970900730026,1348.0970900730026,1348.0970900730026,1348.0970900730026,1348.0970900730026,1348.0970900730026,1348.372783726998,1348.372783726998,1349.6286390869936,1349.6286390869936,1349.6526267839945,1349.6526267839945,1349.6526267839945,1349.6526267839945,1349.6526267839945,1349.6526267839945,1349.6526267839945,1349.6526267839945,1349.6526267839945,1349.6526267839945,1349.6526267839945,1349.6526267839945,1349.6526267839945,1349.6526267839945,1349.6526267839945,48,54,45,68,54,73,2.0,2.2801908050023485,,,,,,,,,,,,,[],[],[],[],[],[],[],-0.2,2,,[],[],[],[],[],[],[],,,,,None,None,1354.4773668999987,1356.3260370329954,,,,,,,,,,,1352.1553028079943,1352.1553028079943,1352.1553028079943,1352.1553028079943,1352.1553028079943,,,,283,f,19,2023-04-05_13h47.30.249,RL,2022.2.4,60.00107522186719,
0,0.3,0.225,0,89,89,89,,,,,,,,,,None,1356.3260370329954,1356.3260370329954,1356.3260370329954,1356.3260370329954,1356.3260370329954,1356.3260370329954,r,0.3657320000056643,1356.7320762320014,1356.7320762320014,1356.7320762320014,1356.7320762320014,1356.7320762320014,1356.7320762320014,1357.0020209319919,1357.0020209319919,1358.9026258950034,1358.9026258950034,1358.94342662899,1358.94342662899,1358.94342662899,1358.94342662899,1358.94342662899,1358.94342662899,1358.94342662899,1358.94342662899,1358.94342662899,1358.94342662899,1358.94342662899,1358.94342662899,1358.94342662899,1358.94342662899,1358.94342662899,51,60,50,68,51,80,1.0,1.535489140995196,,,,,,,,,,,,,[],[],[],[],[],[],[],0.6,2,,[],[],[],[],[],[],[],,,,,None,None,1363.0315871289931,1364.9311712579947,,,,,,,,,,,1361.4472894259961,1361.4472894259961,1361.4472894259961,1361.4472894259961,1361.4472894259961,,,,283,f,19,2023-04-05_13h47.30.249,RL,2022.2.4,60.00107522186719,
