bandit0,black_x_pos_random,black_y_pos_random,trials.thisRepN,trials.thisTrialN,trials.thisN,trials.thisIndex,instru_img1.started,instru_resp.started,instru_resp.keys,instru_resp.rt,instru_img2.started,instru_resp2.started,instru_resp2.keys,instru_resp2.rt,fixbefore_2.started,rest_response.keys,red.started,green.started,yellow.started,blue.started,choose_bandit.started,Fixation.started,choose_bandit.keys,choose_bandit.rt,black.started,red_2.started,green_2.started,yellow_2.started,blue_2.started,fixation_2.started,docs.started,wait_playerB.started,docs.stopped,wait_playerB.stopped,black.stopped,red_2.stopped,green_2.stopped,yellow_2.stopped,blue_2.stopped,fixation_2.stopped,black_com.started,reward_sub.started,palyerb.started,reward__sub.started,compare.started,red_compare.started,green_com.started,yellow_com.started,blue_com.started,image_3.started,slider.started,text.started,image_4.started,image_5.started,rewardyellow,rewardred,rewardblue,rewardgreen,subchoose,playerb,slider.response,slider.rt,expectself.text,value_expect_self,tijiao_click.x,tijiao_click.y,tijiao_click.leftButton,tijiao_click.midButton,tijiao_click.rightButton,tijiao_click.time,tijiao_click.clicked_name,random_whicharm,whether_ask,expect_random_3.text,tijiao_random.x,tijiao_random.y,tijiao_random.leftButton,tijiao_random.midButton,tijiao_random.rightButton,tijiao_random.time,tijiao_random.clicked_name,slider_2.response,slider_2.rt,intertrialfix.started,intertrialfix.stopped,expectself.started,expect_self_black.started,expect_self.started,expect_self_red.started,expect_self_green.started,expect_self_yellow.started,expect_self_blue.started,tijiao.started,tijiao_click.started,check.started,slider_2.started,image_7.started,confi.started,notconfi.started,jiantou_random.started,expect_red.started,expect_green.started,expect_yellow.started,expect_blue.started,expect_random_2.started,expect_random_3.started,tijiao_random_2.started,tijiao_random.started,check_2.started,rest_image.started,rest_response.started,rest_response.rt,bigx.started,bigx.stopped,participant,Gender,Age,date,expName,psychopyVersion,frameRate,
,,,,,,,67.84835190000013,67.84835190000013,space,9.151531499810517,,,,,,,,,,,,,,,,,,,,,,,,,,,,,,,,,,,,,,,,,,,,,,,,,,,,,,,,,,,,,,,,,,,,,,,,,,,,,,,,,,,,,,,,,,,,,,,,,,,,,,,,,284,f,19,2023-04-05_13h47.30.929,RL,2022.2.4,60.14285132396947,
,,,,,,,,,,,77.03641770011745,77.03641770011745,s,52.78648599982262,,,,,,,,,,,,,,,,,,,,,,,,,,,,,,,,,,,,,,,,,,,,,,,,,,,,,,,,,,,,,,,,,,,,,,,,,,,,,,,,,,,,,,,,,,,,,,,,,,,,,284,f,19,2023-04-05_13h47.30.929,RL,2022.2.4,60.14285132396947,
1,-0.3,-0.225,0,0,0,0,,,,,,,,,129.85178490006365,None,130.88982879999094,130.88982879999094,130.88982879999094,130.88982879999094,130.88982879999094,130.88982879999094,r,0.631837299792096,131.57015580008738,131.57015580008738,131.57015580008738,131.57015580008738,131.57015580008738,131.57015580008738,131.8460783001501,131.8460783001501,133.42452240013517,133.42452240013517,133.46302070003003,133.46302070003003,133.46302070003003,133.46302070003003,133.46302070003003,133.46302070003003,133.46302070003003,133.46302070003003,133.46302070003003,133.46302070003003,133.46302070003003,133.46302070003003,133.46302070003003,133.46302070003003,133.46302070003003,135.9677556999959,135.9677556999959,135.9677556999959,135.9677556999959,135.9677556999959,73,46,48,54,73,52,7.0,2.159884100081399,,,[],[],[],[],[],[],[],-0.2,2,,[],[],[],[],[],[],[],None,None,138.31743609998375,140.13966420013458,,,,,,,,,,,,,,,,,,,,,,,,,,,,,,284,f,19,2023-04-05_13h47.30.929,RL,2022.2.4,60.14285132396947,
0,0.3,0.225,0,1,1,1,,,,,,,,,,None,140.13966420013458,140.13966420013458,140.13966420013458,140.13966420013458,140.13966420013458,140.13966420013458,i,0.47461070003919303,140.64524139999412,140.64524139999412,140.64524139999412,140.64524139999412,140.64524139999412,140.64524139999412,140.93798650009558,140.93798650009558,142.7362508000806,142.7362508000806,142.7362508000806,142.7362508000806,142.7362508000806,142.7362508000806,142.7362508000806,142.7362508000806,142.7362508000806,142.7362508000806,142.7362508000806,142.7362508000806,142.7362508000806,142.7362508000806,142.7362508000806,142.7362508000806,142.7362508000806,,,,,,80,43,39,48,39,46,None,None,50,50,[0.05277777777777778],[-0.28703703703703703],[1],[0],[0],[5.310058200033382],['tijiao'],0.6,0,,[],[],[],[],[],[],[],1.1203703703703702,1.6292905998416245,152.23904770007357,154.00167930009775,145.2687634001486,145.2687634001486,145.2687634001486,145.2687634001486,145.2687634001486,145.2687634001486,145.2687634001486,145.2687634001486,0.006620500003919005,145.2687634001486,150.59780470002443,150.59780470002443,150.59780470002443,150.59780470002443,,,,,,,,,,,,,,,,284,f,19,2023-04-05_13h47.30.929,RL,2022.2.4,60.14285132396947,
1,-0.3,-0.225,0,2,2,2,,,,,,,,,,None,154.00167930009775,154.00167930009775,154.00167930009775,154.00167930009775,154.00167930009775,154.00167930009775,f,0.7320769000798464,154.76700290013105,154.76700290013105,154.76700290013105,154.76700290013105,154.76700290013105,154.76700290013105,155.06598820001818,155.06598820001818,155.9964644999709,155.9964644999709,155.9964644999709,155.9964644999709,155.9964644999709,155.9964644999709,155.9964644999709,155.9964644999709,155.9964644999709,155.9964644999709,155.9964644999709,155.9964644999709,155.9964644999709,155.9964644999709,155.9964644999709,155.9964644999709,155.9964644999709,,,,,,76,52,49,59,52,67,None,None,55,55,[0.012037037037037037],[-0.2796296296296296],[1],[0],[0],[6.720202399883419],['tijiao'],-0.6,0,,[],[],[],[],[],[],[],3.1203703703703702,2.2772894999943674,167.54728260007687,169.49253139994107,158.50855010002851,158.50855010002851,158.50855010002851,158.50855010002851,158.50855010002851,158.50855010002851,158.50855010002851,158.50855010002851,0.0075777999591082335,158.50855010002851,165.25309250014834,165.25309250014834,165.25309250014834,165.25309250014834,,,,,,,,,,,,,,,,284,f,19,2023-04-05_13h47.30.929,RL,2022.2.4,60.14285132396947,
0,0.3,0.225,0,3,3,3,,,,,,,,,,None,169.49253139994107,169.49253139994107,169.49253139994107,169.49253139994107,169.49253139994107,169.49253139994107,j,0.9529973000753671,170.47910150000826,170.47910150000826,170.47910150000826,170.47910150000826,170.47910150000826,170.47910150000826,170.77313060010783,170.77313060010783,172.43508359999396,172.43508359999396,172.43508359999396,172.43508359999396,172.43508359999396,172.43508359999396,172.43508359999396,172.43508359999396,172.43508359999396,172.43508359999396,172.43508359999396,172.43508359999396,172.43508359999396,172.43508359999396,172.43508359999396,172.43508359999396,172.43508359999396,174.94389320001937,174.94389320001937,174.94389320001937,174.94389320001937,174.94389320001937,67,55,39,52,52,53,3.0,1.9770885000471026,,,[],[],[],[],[],[],[],-0.6,3,,[],[],[],[],[],[],[],None,None,176.94864420010708,178.75063170003705,,,,,,,,,,,,,,,,,,,,,,,,,,,,,,284,f,19,2023-04-05_13h47.30.929,RL,2022.2.4,60.14285132396947,
1,-0.3,-0.225,0,4,4,4,,,,,,,,,,None,178.75063170003705,178.75063170003705,178.75063170003705,178.75063170003705,178.75063170003705,178.75063170003705,r,0.44298629998229444,179.21665369998664,179.21665369998664,179.21665369998664,179.21665369998664,179.21665369998664,179.21665369998664,179.51584220002405,179.51584220002405,181.5099266001489,181.5099266001489,181.5099266001489,181.5099266001489,181.5099266001489,181.5099266001489,181.5099266001489,181.5099266001489,181.5099266001489,181.5099266001489,181.5099266001489,181.5099266001489,181.5099266001489,181.5099266001489,181.5099266001489,181.5099266001489,181.5099266001489,184.01935030007735,184.01935030007735,184.01935030007735,184.01935030007735,184.01935030007735,70,59,41,50,70,61,6.0,2.924353800015524,,,[],[],[],[],[],[],[],-0.6,3,,[],[],[],[],[],[],[],None,None,186.96851329994388,188.67404399998486,,,,,,,,,,,,,,,,,,,,,,,,,,,,,,284,f,19,2023-04-05_13h47.30.929,RL,2022.2.4,60.14285132396947,
0,0.3,0.225,0,5,5,5,,,,,,,,,,None,188.67404399998486,188.67404399998486,188.67404399998486,188.67404399998486,188.67404399998486,188.67404399998486,f,0.7461395999416709,189.43882949999534,189.43882949999534,189.43882949999534,189.43882949999534,189.43882949999534,189.43882949999534,189.7377232001163,189.7377232001163,190.90099730016664,190.90099730016664,190.90099730016664,190.90099730016664,190.90099730016664,190.90099730016664,190.90099730016664,190.90099730016664,190.90099730016664,190.90099730016664,190.90099730016664,190.90099730016664,190.90099730016664,190.90099730016664,190.90099730016664,190.90099730016664,190.90099730016664,,,,,,71,54,38,45,54,52,None,None,,,[],[],[],[],[],[],[],0.6,1,53,[0.12685185185185185],[-0.2851851851851852],[1],[0],[0],[4.68674619984813],['tijiao_random_2'],7.027777777777778,1.8882298998069018,200.02520190016367,201.73803180013783,,,,,,,,,,,198.11856350000016,198.11856350000016,198.11856350000016,198.11856350000016,193.42311850003898,193.42311850003898,193.42311850003898,193.42311850003898,193.42311850003898,193.42311850003898,193.42311850003898,193.42311850003898,0.006258300039917231,193.42311850003898,,,,,,284,f,19,2023-04-05_13h47.30.929,RL,2022.2.4,60.14285132396947,
1,-0.3,-0.225,0,6,6,6,,,,,,,,,,None,201.73803180013783,201.73803180013783,201.73803180013783,201.73803180013783,201.73803180013783,201.73803180013783,j,0.9472409998998046,202.71956440014765,202.71956440014765,202.71956440014765,202.71956440014765,202.71956440014765,202.71956440014765,203.01841789996251,203.01841789996251,204.5140691001434,204.5140691001434,204.5140691001434,204.5140691001434,204.5140691001434,204.5140691001434,204.5140691001434,204.5140691001434,204.5140691001434,204.5140691001434,204.5140691001434,204.5140691001434,204.5140691001434,204.5140691001434,204.5140691001434,204.5140691001434,204.5140691001434,207.0231964001432,207.0231964001432,207.0231964001432,207.0231964001432,207.0231964001432,72,57,43,49,49,72,2.0,3.0410011000931263,,,[],[],[],[],[],[],[],-0.2,2,,[],[],[],[],[],[],[],None,None,210.09100920008495,212.01001510000788,,,,,,,,,,,,,,,,,,,,,,,,,,,,,,284,f,19,2023-04-05_13h47.30.929,RL,2022.2.4,60.14285132396947,
0,0.3,0.225,0,7,7,7,,,,,,,,,,None,212.01001510000788,212.01001510000788,212.01001510000788,212.01001510000788,212.01001510000788,212.01001510000788,r,1.196080300025642,213.22378810006194,213.22378810006194,213.22378810006194,213.22378810006194,213.22378810006194,213.22378810006194,213.5230096001178,213.5230096001178,214.5702364000026,214.5702364000026,214.5702364000026,214.5702364000026,214.5702364000026,214.5702364000026,214.5702364000026,214.5702364000026,214.5702364000026,214.5702364000026,214.5702364000026,214.5702364000026,214.5702364000026,214.5702364000026,214.5702364000026,214.5702364000026,214.5702364000026,217.07923949998803,217.07923949998803,217.07923949998803,217.07923949998803,217.07923949998803,74,56,45,58,74,70,6.0,2.5756759999785572,,,[],[],[],[],[],[],[],-0.6,3,,[],[],[],[],[],[],[],None,None,219.68001620005816,221.45116730011068,,,,,,,,,,,,,,,,,,,,,,,,,,,,,,284,f,19,2023-04-05_13h47.30.929,RL,2022.2.4,60.14285132396947,
1,-0.3,-0.225,0,8,8,8,,,,,,,,,,None,221.45116730011068,221.45116730011068,221.45116730011068,221.45116730011068,221.45116730011068,221.45116730011068,r,1.0229575000703335,222.50047550001182,222.50047550001182,222.50047550001182,222.50047550001182,222.50047550001182,222.50047550001182,222.7977138001006,222.7977138001006,224.70989189995453,224.70989189995453,224.70989189995453,224.70989189995453,224.70989189995453,224.70989189995453,224.70989189995453,224.70989189995453,224.70989189995453,224.70989189995453,224.70989189995453,224.70989189995453,224.70989189995453,224.70989189995453,224.70989189995453,224.70989189995453,224.70989189995453,,,,,,81,54,51,46,81,58,None,None,80,80,[0.018518518518518517],[-0.2962962962962963],[1],[0],[0],[8.914869399974123],['tijiao'],0.6,0,,[],[],[],[],[],[],[],8.00925925925926,2.5602963999845088,238.73627600003965,240.61522010015324,227.22172180004418,227.22172180004418,227.22172180004418,227.22172180004418,227.22172180004418,227.22172180004418,227.22172180004418,227.22172180004418,0.007893200032413006,227.22172180004418,236.15723030013032,236.15723030013032,236.15723030013032,236.15723030013032,,,,,,,,,,,,,,,,284,f,19,2023-04-05_13h47.30.929,RL,2022.2.4,60.14285132396947,
0,0.3,0.225,0,9,9,9,,,,,,,,,,None,240.61522010015324,240.61522010015324,240.61522010015324,240.61522010015324,240.61522010015324,240.61522010015324,r,0.3538661999627948,240.99926199996844,240.99926199996844,240.99926199996844,240.99926199996844,240.99926199996844,240.99926199996844,241.29688680008985,241.29688680008985,242.17814400000498,242.17814400000498,242.1945766999852,242.1945766999852,242.1945766999852,242.1945766999852,242.1945766999852,242.1945766999852,242.1945766999852,242.1945766999852,242.1945766999852,242.1945766999852,242.1945766999852,242.1945766999852,242.1945766999852,242.1945766999852,242.1945766999852,,,,,,93,58,50,43,93,60,None,None,,,[],[],[],[],[],[],[],-0.2,1,60,[0.07314814814814814],[-0.2833333333333333],[1],[0],[0],[6.698030499974266],['tijiao_random_2'],8.027777777777777,2.6360359999816865,254.0777936000377,255.79069970012642,,,,,,,,,,,251.42312859999947,251.42312859999947,251.42312859999947,251.42312859999947,244.71216070000082,244.71216070000082,244.71216070000082,244.71216070000082,244.71216070000082,244.71216070000082,244.71216070000082,244.71216070000082,0.0063322000205516815,244.71216070000082,,,,,,284,f,19,2023-04-05_13h47.30.929,RL,2022.2.4,60.14285132396947,
1,-0.3,-0.225,0,10,10,10,,,,,,,,,,None,255.79069970012642,255.79069970012642,255.79069970012642,255.79069970012642,255.79069970012642,255.79069970012642,f,0.6909352999646217,256.50654440000653,256.50654440000653,256.50654440000653,256.50654440000653,256.50654440000653,256.50654440000653,256.8048805000726,256.8048805000726,258.1177916000597,258.1177916000597,258.1177916000597,258.1177916000597,258.1177916000597,258.1177916000597,258.1177916000597,258.1177916000597,258.1177916000597,258.1177916000597,258.1177916000597,258.1177916000597,258.1177916000597,258.1177916000597,258.1177916000597,258.1177916000597,258.1177916000597,,,,,,85,54,43,48,54,59,None,None,,,[],[],[],[],[],[],[],-0.6,1,90,[0.11944444444444445],[-0.2777777777777778],[1],[0],[0],[3.985378700075671],['tijiao_random_2'],8.037037037037038,2.5860371000599116,267.2416703000199,269.05423639994115,,,,,,,,,,,264.63713650009595,264.63713650009595,264.63713650009595,264.63713650009595,260.63873380003497,260.63873380003497,260.63873380003497,260.63873380003497,260.63873380003497,260.63873380003497,260.63873380003497,260.63873380003497,0.006828200072050095,260.63873380003497,,,,,,284,f,19,2023-04-05_13h47.30.929,RL,2022.2.4,60.14285132396947,
0,0.3,0.225,0,11,11,11,,,,,,,,,,None,269.05423639994115,269.05423639994115,269.05423639994115,269.05423639994115,269.05423639994115,269.05423639994115,r,0.29746320005506277,269.372438600054,269.372438600054,269.372438600054,269.372438600054,269.372438600054,269.372438600054,269.669832700165,269.669832700165,271.49828039994463,271.49828039994463,271.49828039994463,271.49828039994463,271.49828039994463,271.49828039994463,271.49828039994463,271.49828039994463,271.49828039994463,271.49828039994463,271.49828039994463,271.49828039994463,271.49828039994463,271.49828039994463,271.49828039994463,271.49828039994463,271.49828039994463,274.00719920010306,274.00719920010306,274.00719920010306,274.00719920010306,274.00719920010306,90,50,47,49,90,73,7.0,2.3089713999070227,,,[],[],[],[],[],[],[],-0.6,2,,[],[],[],[],[],[],[],None,None,276.3451644999441,278.1295036000665,,,,,,,,,,,,,,,,,,,,,,,,,,,,,,284,f,19,2023-04-05_13h47.30.929,RL,2022.2.4,60.14285132396947,
1,-0.3,-0.225,0,12,12,12,,,,,,,,,,None,278.1295036000665,278.1295036000665,278.1295036000665,278.1295036000665,278.1295036000665,278.1295036000665,r,0.6494590998627245,278.8140686999541,278.8140686999541,278.8140686999541,278.8140686999541,278.8140686999541,278.8140686999541,279.110725000035,279.110725000035,280.5067112999968,280.5067112999968,280.5067112999968,280.5067112999968,280.5067112999968,280.5067112999968,280.5067112999968,280.5067112999968,280.5067112999968,280.5067112999968,280.5067112999968,280.5067112999968,280.5067112999968,280.5067112999968,280.5067112999968,280.5067112999968,280.5067112999968,,,,,,88,50,37,48,88,72,None,None,,,[],[],[],[],[],[],[],-0.2,1,54,[0.08148148148148149],[-0.2898148148148148],[1],[0],[0],[4.436205700039864],['tijiao_random_2'],6.916666666666667,2.536983600119129,290.02951869997196,291.5432506001089,,,,,,,,,,,287.47410320001654,287.47410320001654,287.47410320001654,287.47410320001654,283.025765000144,283.025765000144,283.025765000144,283.025765000144,283.025765000144,283.025765000144,283.025765000144,283.025765000144,0.006274799816310406,283.025765000144,,,,,,284,f,19,2023-04-05_13h47.30.929,RL,2022.2.4,60.14285132396947,
0,0.3,0.225,0,13,13,13,,,,,,,,,,None,291.5432506001089,291.5432506001089,291.5432506001089,291.5432506001089,291.5432506001089,291.5432506001089,i,0.5496805000584573,292.1257573000621,292.1257573000621,292.1257573000621,292.1257573000621,292.1257573000621,292.1257573000621,292.4244173001498,292.4244173001498,294.35238169995137,294.35238169995137,294.35238169995137,294.35238169995137,294.35238169995137,294.35238169995137,294.35238169995137,294.35238169995137,294.35238169995137,294.35238169995137,294.35238169995137,294.35238169995137,294.35238169995137,294.35238169995137,294.35238169995137,294.35238169995137,294.35238169995137,296.86167290015146,296.86167290015146,296.86167290015146,296.86167290015146,296.86167290015146,82,47,39,52,39,66,2.0,2.5596114001236856,,,[],[],[],[],[],[],[],0.6,2,,[],[],[],[],[],[],[],None,None,299.4484006999992,301.3994347001426,,,,,,,,,,,,,,,,,,,,,,,,,,,,,,284,f,19,2023-04-05_13h47.30.929,RL,2022.2.4,60.14285132396947,
1,-0.3,-0.225,0,14,14,14,,,,,,,,,,None,301.3994347001426,301.3994347001426,301.3994347001426,301.3994347001426,301.3994347001426,301.3994347001426,r,0.7206888999789953,302.1507950001396,302.1507950001396,302.1507950001396,302.1507950001396,302.1507950001396,302.1507950001396,302.44695560005493,302.44695560005493,303.84303580014966,303.84303580014966,303.85969260009006,303.85969260009006,303.85969260009006,303.85969260009006,303.85969260009006,303.85969260009006,303.85969260009006,303.85969260009006,303.85969260009006,303.85969260009006,303.85969260009006,303.85969260009006,303.85969260009006,303.85969260009006,303.85969260009006,,,,,,76,52,45,53,76,62,None,None,,,[],[],[],[],[],[],[],0.2,1,33,[-0.09444444444444444],[-0.2712962962962963],[1],[0],[0],[7.179036799818277],['tijiao_random_2'],6.972222222222222,1.987736300099641,315.57697870000266,317.57216910016723,,,,,,,,,,,313.5713909000624,313.5713909000624,313.5713909000624,313.5713909000624,306.37834229995497,306.37834229995497,306.37834229995497,306.37834229995497,306.37834229995497,306.37834229995497,306.37834229995497,306.37834229995497,0.006222299998626113,306.37834229995497,,,,,,284,f,19,2023-04-05_13h47.30.929,RL,2022.2.4,60.14285132396947,
0,0.3,0.225,0,15,15,15,,,,,,,,,,None,317.57216910016723,317.57216910016723,317.57216910016723,317.57216910016723,317.57216910016723,317.57216910016723,j,0.8899176998529583,318.4889547000639,318.4889547000639,318.4889547000639,318.4889547000639,318.4889547000639,318.4889547000639,318.7857356001623,318.7857356001623,320.2981879999861,320.2981879999861,320.2981879999861,320.2981879999861,320.2981879999861,320.2981879999861,320.2981879999861,320.2981879999861,320.2981879999861,320.2981879999861,320.2981879999861,320.2981879999861,320.2981879999861,320.2981879999861,320.2981879999861,320.2981879999861,320.2981879999861,322.8073692000471,322.8073692000471,322.8073692000471,322.8073692000471,322.8073692000471,76,57,48,64,64,31,4.0,2.2101845999713987,,,[],[],[],[],[],[],[],0.2,2,,[],[],[],[],[],[],[],None,None,325.0461628001649,326.8465673001483,,,,,,,,,,,,,,,,,,,,,,,,,,,,,,284,f,19,2023-04-05_13h47.30.929,RL,2022.2.4,60.14285132396947,
1,-0.3,-0.225,0,16,16,16,,,,,,,,,,None,326.8465673001483,326.8465673001483,326.8465673001483,326.8465673001483,326.8465673001483,326.8465673001483,r,1.2430304998997599,328.11054410017096,328.11054410017096,328.11054410017096,328.11054410017096,328.11054410017096,328.11054410017096,328.40951599995606,328.40951599995606,330.10465290001594,330.10465290001594,330.10465290001594,330.10465290001594,330.10465290001594,330.10465290001594,330.10465290001594,330.10465290001594,330.10465290001594,330.10465290001594,330.10465290001594,330.10465290001594,330.10465290001594,330.10465290001594,330.10465290001594,330.10465290001594,330.10465290001594,,,,,,81,54,48,46,81,67,None,None,,,[],[],[],[],[],[],[],-0.6,1,85,[-0.032407407407407406],[-0.2898148148148148],[1],[0],[0],[3.9045011999551207],['tijiao_random_2'],8.907407407407408,2.20657330006361,338.75138789997436,340.5096259000711,,,,,,,,,,,336.54051410011016,336.54051410011016,336.54051410011016,336.54051410011016,332.62359840003774,332.62359840003774,332.62359840003774,332.62359840003774,332.62359840003774,332.62359840003774,332.62359840003774,332.62359840003774,0.006945400033146143,332.62359840003774,,,,,,284,f,19,2023-04-05_13h47.30.929,RL,2022.2.4,60.14285132396947,
0,0.3,0.225,0,17,17,17,,,,,,,,,,None,340.5096259000711,340.5096259000711,340.5096259000711,340.5096259000711,340.5096259000711,340.5096259000711,r,0.3840974001213908,340.9254397000186,340.9254397000186,340.9254397000186,340.9254397000186,340.9254397000186,340.9254397000186,341.2245877000969,341.2245877000969,342.15517330006696,342.15517330006696,342.15517330006696,342.15517330006696,342.15517330006696,342.15517330006696,342.15517330006696,342.15517330006696,342.15517330006696,342.15517330006696,342.15517330006696,342.15517330006696,342.15517330006696,342.15517330006696,342.15517330006696,342.15517330006696,342.15517330006696,,,,,,77,60,45,58,77,61,None,None,76,76,[0.058333333333333334],[-0.2916666666666667],[1],[0],[0],[8.084357100073248],['tijiao'],0.6,0,,[],[],[],[],[],[],[],8.925925925925926,2.727104099933058,355.51750140008517,357.43005220009945,344.66645330004394,344.66645330004394,344.66645330004394,344.66645330004394,344.66645330004394,344.66645330004394,344.66645330004394,344.66645330004394,0.006816200213506818,344.66645330004394,352.771863900125,352.771863900125,352.771863900125,352.771863900125,,,,,,,,,,,,,,,,284,f,19,2023-04-05_13h47.30.929,RL,2022.2.4,60.14285132396947,
1,-0.3,-0.225,0,18,18,18,,,,,,,,,,None,357.43005220009945,357.43005220009945,357.43005220009945,357.43005220009945,357.43005220009945,357.43005220009945,r,0.3703842000104487,357.8307731000241,357.8307731000241,357.8307731000241,357.8307731000241,357.8307731000241,357.8307731000241,358.1281104001682,358.1281104001682,359.6907820000779,359.6907820000779,359.6907820000779,359.6907820000779,359.6907820000779,359.6907820000779,359.6907820000779,359.6907820000779,359.6907820000779,359.6907820000779,359.6907820000779,359.6907820000779,359.6907820000779,359.6907820000779,359.6907820000779,359.6907820000779,359.6907820000779,362.1999562000856,362.1999562000856,362.1999562000856,362.1999562000856,362.1999562000856,71,56,46,59,71,53,6.0,2.3924054000526667,,,[],[],[],[],[],[],[],0.6,2,,[],[],[],[],[],[],[],None,None,364.61836219998077,366.4220499000512,,,,,,,,,,,,,,,,,,,,,,,,,,,,,,284,f,19,2023-04-05_13h47.30.929,RL,2022.2.4,60.14285132396947,
0,0.3,0.225,0,19,19,19,,,,,,,,,,None,366.4220499000512,366.4220499000512,366.4220499000512,366.4220499000512,366.4220499000512,366.4220499000512,i,0.8260029000230134,367.27018730016425,367.27018730016425,367.27018730016425,367.27018730016425,367.27018730016425,367.27018730016425,367.5693800000008,367.5693800000008,368.4002257999964,368.4002257999964,368.4002257999964,368.4002257999964,368.4002257999964,368.4002257999964,368.4002257999964,368.4002257999964,368.4002257999964,368.4002257999964,368.4002257999964,368.4002257999964,368.4002257999964,368.4002257999964,368.4002257999964,368.4002257999964,368.4002257999964,,,,,,69,53,44,66,44,55,None,None,,,[],[],[],[],[],[],[],-0.2,1,38,[0.1037037037037037],[-0.2916666666666667],[1],[0],[0],[6.279608299955726],['tijiao_random_2'],6.972222222222222,1.8209836999885738,379.0535683000926,380.8162446001079,,,,,,,,,,,377.2138281001244,377.2138281001244,377.2138281001244,377.2138281001244,370.92027210001834,370.92027210001834,370.92027210001834,370.92027210001834,370.92027210001834,370.92027210001834,370.92027210001834,370.92027210001834,0.0076772000174969435,370.92027210001834,,,,,,284,f,19,2023-04-05_13h47.30.929,RL,2022.2.4,60.14285132396947,
1,-0.3,-0.225,0,20,20,20,,,,,,,,,,None,380.8162446001079,380.8162446001079,380.8162446001079,380.8162446001079,380.8162446001079,380.8162446001079,r,0.7460413000080734,381.58209770009853,381.58209770009853,381.58209770009853,381.58209770009853,381.58209770009853,381.58209770009853,381.8802243000828,381.8802243000828,383.10982330003753,383.10982330003753,383.10982330003753,383.10982330003753,383.10982330003753,383.10982330003753,383.10982330003753,383.10982330003753,383.10982330003753,383.10982330003753,383.10982330003753,383.10982330003753,383.10982330003753,383.10982330003753,383.10982330003753,383.10982330003753,383.10982330003753,385.6191327001434,385.6191327001434,385.6191327001434,385.6191327001434,385.6191327001434,79,59,41,59,79,74,5.0,4.254789199912921,,,[],[],[],[],[],[],[],0.2,2,,[],[],[],[],[],[],[],None,None,389.9021102001425,391.5203297000844,,,,,,,,,,,,,,,,,,,,,,,,,,,,,,284,f,19,2023-04-05_13h47.30.929,RL,2022.2.4,60.14285132396947,
0,0.3,0.225,0,21,21,21,,,,,,,,,,None,391.5203297000844,391.5203297000844,391.5203297000844,391.5203297000844,391.5203297000844,391.5203297000844,r,1.2778046999592334,392.81916099996306,392.81916099996306,392.81916099996306,392.81916099996306,392.81916099996306,392.81916099996306,393.1163157001138,393.1163157001138,394.6120850001462,394.6120850001462,394.62869170005433,394.62869170005433,394.62869170005433,394.62869170005433,394.62869170005433,394.62869170005433,394.62869170005433,394.62869170005433,394.62869170005433,394.62869170005433,394.62869170005433,394.62869170005433,394.62869170005433,394.62869170005433,394.62869170005433,397.1377584999427,397.1377584999427,397.1377584999427,397.1377584999427,397.1377584999427,76,65,34,58,76,61,7.0,2.7915825000964105,,,[],[],[],[],[],[],[],-0.6,3,,[],[],[],[],[],[],[],None,None,399.9547133001033,401.84221819997765,,,,,,,,,,,,,,,,,,,,,,,,,,,,,,284,f,19,2023-04-05_13h47.30.929,RL,2022.2.4,60.14285132396947,
1,-0.3,-0.225,0,22,22,22,,,,,,,,,,None,401.84221819997765,401.84221819997765,401.84221819997765,401.84221819997765,401.84221819997765,401.84221819997765,j,1.032783200033009,402.9073604999576,402.9073604999576,402.9073604999576,402.9073604999576,402.9073604999576,402.9073604999576,403.20527280005626,403.20527280005626,405.0336223000195,405.0336223000195,405.0336223000195,405.0336223000195,405.0336223000195,405.0336223000195,405.0336223000195,405.0336223000195,405.0336223000195,405.0336223000195,405.0336223000195,405.0336223000195,405.0336223000195,405.0336223000195,405.0336223000195,405.0336223000195,405.0336223000195,,,,,,80,67,34,58,58,71,None,None,55,55,[0.11388888888888889],[-0.29444444444444445],[1],[0],[0],[7.037670599995181],['tijiao'],-0.6,0,,[],[],[],[],[],[],[],7.953703703703704,3.026237600017339,417.6479074000381,419.5438792000059,407.5449644001201,407.5449644001201,407.5449644001201,407.5449644001201,407.5449644001201,407.5449644001201,407.5449644001201,407.5449644001201,0.006571900099515915,407.5449644001201,414.6025992000941,414.6025992000941,414.6025992000941,414.6025992000941,,,,,,,,,,,,,,,,284,f,19,2023-04-05_13h47.30.929,RL,2022.2.4,60.14285132396947,
0,0.3,0.225,0,23,23,23,,,,,,,,,,None,419.5438792000059,419.5438792000059,419.5438792000059,419.5438792000059,419.5438792000059,419.5438792000059,j,0.6680746998172253,420.2422365001403,420.2422365001403,420.2422365001403,420.2422365001403,420.2422365001403,420.2422365001403,420.5414758999832,420.5414758999832,421.37231640005484,421.37231640005484,421.37231640005484,421.37231640005484,421.37231640005484,421.37231640005484,421.37231640005484,421.37231640005484,421.37231640005484,421.37231640005484,421.37231640005484,421.37231640005484,421.37231640005484,421.37231640005484,421.37231640005484,421.37231640005484,421.37231640005484,423.88163990015164,423.88163990015164,423.88163990015164,423.88163990015164,423.88163990015164,80,69,40,58,58,73,3.0,3.772407100070268,,,[],[],[],[],[],[],[],0.6,3,,[],[],[],[],[],[],[],None,None,427.68156550009735,429.3671454000287,,,,,,,,,,,,,,,,,,,,,,,,,,,,,,284,f,19,2023-04-05_13h47.30.929,RL,2022.2.4,60.14285132396947,
1,-0.3,-0.225,0,24,24,24,,,,,,,,,,None,429.3671454000287,429.3671454000287,429.3671454000287,429.3671454000287,429.3671454000287,429.3671454000287,f,0.9018243001773953,430.29992550006136,430.29992550006136,430.29992550006136,430.29992550006136,430.29992550006136,430.29992550006136,430.5973521999549,430.5973521999549,432.42544280015863,432.42544280015863,432.42544280015863,432.42544280015863,432.42544280015863,432.42544280015863,432.42544280015863,432.42544280015863,432.42544280015863,432.42544280015863,432.42544280015863,432.42544280015863,432.42544280015863,432.42544280015863,432.42544280015863,432.42544280015863,432.42544280015863,434.9347127000801,434.9347127000801,434.9347127000801,434.9347127000801,434.9347127000801,88,67,36,61,67,60,6.0,2.1936363000422716,,,[],[],[],[],[],[],[],-0.2,2,,[],[],[],[],[],[],[],None,None,437.1550436001271,439.1073503000662,,,,,,,,,,,,,,,,,,,,,,,,,,,,,,284,f,19,2023-04-05_13h47.30.929,RL,2022.2.4,60.14285132396947,
0,0.3,0.225,0,25,25,25,,,,,,,,,,None,439.1073503000662,439.1073503000662,439.1073503000662,439.1073503000662,439.1073503000662,439.1073503000662,r,0.6290722999256104,439.7567060999572,439.7567060999572,439.7567060999572,439.7567060999572,439.7567060999572,439.7567060999572,440.0547248001676,440.0547248001676,441.4676039000042,441.4676039000042,441.4676039000042,441.4676039000042,441.4676039000042,441.4676039000042,441.4676039000042,441.4676039000042,441.4676039000042,441.4676039000042,441.4676039000042,441.4676039000042,441.4676039000042,441.4676039000042,441.4676039000042,441.4676039000042,441.4676039000042,,,,,,83,68,35,53,83,73,None,None,78,78,[0.011111111111111112],[-0.2796296296296296],[1],[0],[0],[8.765468599973246],['tijiao'],-0.2,0,,[],[],[],[],[],[],[],7.9907407407407405,2.160561499884352,454.94651630008593,456.6424716000911,443.97851649997756,443.97851649997756,443.97851649997756,443.97851649997756,443.97851649997756,443.97851649997756,443.97851649997756,443.97851649997756,0.00700199999846518,443.97851649997756,452.76792929996736,452.76792929996736,452.76792929996736,452.76792929996736,,,,,,,,,,,,,,,,284,f,19,2023-04-05_13h47.30.929,RL,2022.2.4,60.14285132396947,
1,-0.3,-0.225,0,26,26,26,,,,,,,,,,None,456.6424716000911,456.6424716000911,456.6424716000911,456.6424716000911,456.6424716000911,456.6424716000911,f,1.1144789000973105,457.7898646001704,457.7898646001704,457.7898646001704,457.7898646001704,457.7898646001704,457.7898646001704,458.08862109994516,458.08862109994516,459.1026365000289,459.1026365000289,459.11941500008106,459.11941500008106,459.11941500008106,459.11941500008106,459.11941500008106,459.11941500008106,459.11941500008106,459.11941500008106,459.11941500008106,459.11941500008106,459.11941500008106,459.11941500008106,459.11941500008106,459.11941500008106,459.11941500008106,461.6285803001374,461.6285803001374,461.6285803001374,461.6285803001374,461.6285803001374,77,65,34,61,65,55,4.0,3.522930199978873,,,[],[],[],[],[],[],[],0.6,3,,[],[],[],[],[],[],[],None,None,465.1778583000414,467.1639306000434,,,,,,,,,,,,,,,,,,,,,,,,,,,,,,284,f,19,2023-04-05_13h47.30.929,RL,2022.2.4,60.14285132396947,
0,0.3,0.225,0,27,27,27,,,,,,,,,,None,467.1639306000434,467.1639306000434,467.1639306000434,467.1639306000434,467.1639306000434,467.1639306000434,r,0.660900600021705,467.84611309994943,467.84611309994943,467.84611309994943,467.84611309994943,467.84611309994943,467.84611309994943,468.14480430004187,468.14480430004187,469.357854800066,469.357854800066,469.357854800066,469.357854800066,469.357854800066,469.357854800066,469.357854800066,469.357854800066,469.357854800066,469.357854800066,469.357854800066,469.357854800066,469.357854800066,469.357854800066,469.357854800066,469.357854800066,469.357854800066,,,,,,67,63,37,64,67,67,None,None,75,75,[0.053703703703703705],[-0.2833333333333333],[1],[0],[0],[6.040717799915001],['tijiao'],0.6,0,,[],[],[],[],[],[],[],5.046296296296296,3.125913699856028,481.0750816001091,482.68813330004923,471.8681789999828,471.8681789999828,471.8681789999828,471.8681789999828,471.8681789999828,471.8681789999828,471.8681789999828,471.8681789999828,0.006264300085604191,471.8681789999828,477.92985219997354,477.92985219997354,477.92985219997354,477.92985219997354,,,,,,,,,,,,,,,,284,f,19,2023-04-05_13h47.30.929,RL,2022.2.4,60.14285132396947,
1,-0.3,-0.225,0,28,28,28,,,,,,,,,,None,482.68813330004923,482.68813330004923,482.68813330004923,482.68813330004923,482.68813330004923,482.68813330004923,i,0.698660199996084,483.4201501000207,483.4201501000207,483.4201501000207,483.4201501000207,483.4201501000207,483.4201501000207,483.7190239999909,483.7190239999909,484.84933730005287,484.84933730005287,484.84933730005287,484.84933730005287,484.84933730005287,484.84933730005287,484.84933730005287,484.84933730005287,484.84933730005287,484.84933730005287,484.84933730005287,484.84933730005287,484.84933730005287,484.84933730005287,484.84933730005287,484.84933730005287,484.84933730005287,487.3579452999402,487.3579452999402,487.3579452999402,487.3579452999402,487.3579452999402,68,66,40,58,40,55,2.0,3.3070722001139075,,,[],[],[],[],[],[],[],0.2,3,,[],[],[],[],[],[],[],None,None,490.6918719999958,492.3286802000366,,,,,,,,,,,,,,,,,,,,,,,,,,,,,,284,f,19,2023-04-05_13h47.30.929,RL,2022.2.4,60.14285132396947,
0,0.3,0.225,0,29,29,29,,,,,,,,,,None,492.3286802000366,492.3286802000366,492.3286802000366,492.3286802000366,492.3286802000366,492.3286802000366,f,1.086654300102964,493.4442366999574,493.4442366999574,493.4442366999574,493.4442366999574,493.4442366999574,493.4442366999574,493.7416851001326,493.7416851001326,495.5202063000761,495.5202063000761,495.5202063000761,495.5202063000761,495.5202063000761,495.5202063000761,495.5202063000761,495.5202063000761,495.5202063000761,495.5202063000761,495.5202063000761,495.5202063000761,495.5202063000761,495.5202063000761,495.5202063000761,495.5202063000761,495.5202063000761,498.0289424001239,498.0289424001239,498.0289424001239,498.0289424001239,498.0289424001239,72,68,40,68,68,68,4.0,3.207274600164965,,,[],[],[],[],[],[],[],-0.6,2,,[],[],[],[],[],[],[],None,None,501.26463029999286,503.232229599962,,,,,,,,,,,,,,,,,,,,,,,,,,,,,,284,f,19,2023-04-05_13h47.30.929,RL,2022.2.4,60.14285132396947,
1,-0.3,-0.225,0,30,30,30,,,,,,,,,,None,503.232229599962,503.232229599962,503.232229599962,503.232229599962,503.232229599962,503.232229599962,r,0.2996029001660645,503.5649429000914,503.5649429000914,503.5649429000914,503.5649429000914,503.5649429000914,503.5649429000914,503.86406220006756,503.86406220006756,505.5261826000642,505.5261826000642,505.5261826000642,505.5261826000642,505.5261826000642,505.5261826000642,505.5261826000642,505.5261826000642,505.5261826000642,505.5261826000642,505.5261826000642,505.5261826000642,505.5261826000642,505.5261826000642,505.5261826000642,505.5261826000642,505.5261826000642,508.03524590004236,508.03524590004236,508.03524590004236,508.03524590004236,508.03524590004236,63,64,31,58,63,65,2.0,2.80791229987517,,,[],[],[],[],[],[],[],-0.2,3,,[],[],[],[],[],[],[],None,None,510.8710452001542,512.7225631000474,,,,,,,,,,,,,,,,,,,,,,,,,,,,,,284,f,19,2023-04-05_13h47.30.929,RL,2022.2.4,60.14285132396947,
0,0.3,0.225,0,31,31,31,,,,,,,,,,None,512.7225631000474,512.7225631000474,512.7225631000474,512.7225631000474,512.7225631000474,512.7225631000474,r,0.4613857001531869,513.2057772001717,513.2057772001717,513.2057772001717,513.2057772001717,513.2057772001717,513.2057772001717,513.5045388001017,513.5045388001017,515.3821768001653,515.3821768001653,515.3821768001653,515.3821768001653,515.3821768001653,515.3821768001653,515.3821768001653,515.3821768001653,515.3821768001653,515.3821768001653,515.3821768001653,515.3821768001653,515.3821768001653,515.3821768001653,515.3821768001653,515.3821768001653,515.3821768001653,,,,,,78,69,38,58,78,68,None,None,74,74,[-0.10925925925925926],[-0.30925925925925923],[1],[0],[0],[6.372709499904886],['tijiao'],-0.2,0,,[],[],[],[],[],[],[],7.12037037037037,4.388913800008595,528.6950485000852,530.5738276001066,517.8923786000814,517.8923786000814,517.8923786000814,517.8923786000814,517.8923786000814,517.8923786000814,517.8923786000814,517.8923786000814,0.005874799797311425,517.8923786000814,524.286931199953,524.286931199953,524.286931199953,524.286931199953,,,,,,,,,,,,,,,,284,f,19,2023-04-05_13h47.30.929,RL,2022.2.4,60.14285132396947,
1,-0.3,-0.225,0,32,32,32,,,,,,,,,,None,530.5738276001066,530.5738276001066,530.5738276001066,530.5738276001066,530.5738276001066,530.5738276001066,r,0.5116987000219524,531.1072037999984,531.1072037999984,531.1072037999984,531.1072037999984,531.1072037999984,531.1072037999984,531.405621800106,531.405621800106,532.9679000000469,532.9679000000469,532.9679000000469,532.9679000000469,532.9679000000469,532.9679000000469,532.9679000000469,532.9679000000469,532.9679000000469,532.9679000000469,532.9679000000469,532.9679000000469,532.9679000000469,532.9679000000469,532.9679000000469,532.9679000000469,532.9679000000469,535.4770983001217,535.4770983001217,535.4770983001217,535.4770983001217,535.4770983001217,75,68,31,58,75,63,5.0,4.304641699884087,,,[],[],[],[],[],[],[],-0.6,3,,[],[],[],[],[],[],[],None,None,539.8071322001051,541.3945643999614,,,,,,,,,,,,,,,,,,,,,,,,,,,,,,284,f,19,2023-04-05_13h47.30.929,RL,2022.2.4,60.14285132396947,
0,0.3,0.225,0,33,33,33,,,,,,,,,,None,541.3945643999614,541.3945643999614,541.3945643999614,541.3945643999614,541.3945643999614,541.3945643999614,j,0.7716616000980139,542.1943157000933,542.1943157000933,542.1943157000933,542.1943157000933,542.1943157000933,542.1943157000933,542.4920282999519,542.4920282999519,543.8216455001384,543.8216455001384,543.8382952001411,543.8382952001411,543.8382952001411,543.8382952001411,543.8382952001411,543.8382952001411,543.8382952001411,543.8382952001411,543.8382952001411,543.8382952001411,543.8382952001411,543.8382952001411,543.8382952001411,543.8382952001411,543.8382952001411,,,,,,69,66,37,68,68,73,None,None,,,[],[],[],[],[],[],[],-0.2,1,60,[0.05462962962962963],[-0.2824074074074074],[1],[0],[0],[7.06364560010843],['tijiao_random_2'],7.083333333333334,2.2034214998129755,555.6551157999784,557.4837974000257,,,,,,,,,,,553.4333707999904,553.4333707999904,553.4333707999904,553.4333707999904,546.3554776001256,546.3554776001256,546.3554776001256,546.3554776001256,546.3554776001256,546.3554776001256,546.3554776001256,546.3554776001256,0.0057384001556783915,546.3554776001256,,,,,,284,f,19,2023-04-05_13h47.30.929,RL,2022.2.4,60.14285132396947,
1,-0.3,-0.225,0,34,34,34,,,,,,,,,,None,557.4837974000257,557.4837974000257,557.4837974000257,557.4837974000257,557.4837974000257,557.4837974000257,r,0.2757353999186307,557.7852543999907,557.7852543999907,557.7852543999907,557.7852543999907,557.7852543999907,557.7852543999907,558.082798999967,558.082798999967,558.9470448000357,558.9470448000357,558.9470448000357,558.9470448000357,558.9470448000357,558.9470448000357,558.9470448000357,558.9470448000357,558.9470448000357,558.9470448000357,558.9470448000357,558.9470448000357,558.9470448000357,558.9470448000357,558.9470448000357,558.9470448000357,558.9470448000357,561.4558058001567,561.4558058001567,561.4558058001567,561.4558058001567,561.4558058001567,63,67,29,59,63,72,2.0,3.0071789999492466,,,[],[],[],[],[],[],[],-0.6,3,,[],[],[],[],[],[],[],None,None,564.4922746999655,566.4595031000208,,,,,,,,,,,,,,,,,,,,,,,,,,,,,,284,f,19,2023-04-05_13h47.30.929,RL,2022.2.4,60.14285132396947,
0,0.3,0.225,0,35,35,35,,,,,,,,,,None,566.4595031000208,566.4595031000208,566.4595031000208,566.4595031000208,566.4595031000208,566.4595031000208,r,0.35251110000535846,566.8435252001509,566.8435252001509,566.8435252001509,566.8435252001509,566.8435252001509,566.8435252001509,567.141472700052,567.141472700052,568.4539809001144,568.4539809001144,568.4539809001144,568.4539809001144,568.4539809001144,568.4539809001144,568.4539809001144,568.4539809001144,568.4539809001144,568.4539809001144,568.4539809001144,568.4539809001144,568.4539809001144,568.4539809001144,568.4539809001144,568.4539809001144,568.4539809001144,,,,,,71,67,32,66,71,66,None,None,,,[],[],[],[],[],[],[],0.6,1,53,[0.018518518518518517],[-0.2861111111111111],[1],[0],[0],[7.12937769992277],['tijiao_random_2'],7.9907407407407405,2.8024032001849264,580.9358967000153,582.5491772999521,,,,,,,,,,,578.1162590000313,578.1162590000313,578.1162590000313,578.1162590000313,570.972736600088,570.972736600088,570.972736600088,570.972736600088,570.972736600088,570.972736600088,570.972736600088,570.972736600088,0.006933000171557069,570.972736600088,,,,,,284,f,19,2023-04-05_13h47.30.929,RL,2022.2.4,60.14285132396947,
1,-0.3,-0.225,0,36,36,36,,,,,,,,,,None,582.5491772999521,582.5491772999521,582.5491772999521,582.5491772999521,582.5491772999521,582.5491772999521,j,0.5900133000686765,583.166372000007,583.166372000007,583.166372000007,583.166372000007,583.166372000007,583.166372000007,583.4635475999676,583.4635475999676,584.3609444999602,584.3609444999602,584.3609444999602,584.3609444999602,584.3609444999602,584.3609444999602,584.3609444999602,584.3609444999602,584.3609444999602,584.3609444999602,584.3609444999602,584.3609444999602,584.3609444999602,584.3609444999602,584.3609444999602,584.3609444999602,584.3609444999602,586.8697391001042,586.8697391001042,586.8697391001042,586.8697391001042,586.8697391001042,67,67,13,68,68,51,7.0,1.1127275999169797,,,[],[],[],[],[],[],[],0.2,2,,[],[],[],[],[],[],[],None,None,588.0083932001144,589.9119963999838,,,,,,,,,,,,,,,,,,,,,,,,,,,,,,284,f,19,2023-04-05_13h47.30.929,RL,2022.2.4,60.14285132396947,
0,0.3,0.225,0,37,37,37,,,,,,,,,,None,589.9119963999838,589.9119963999838,589.9119963999838,589.9119963999838,589.9119963999838,589.9119963999838,j,0.9361035001929849,590.8795478001703,590.8795478001703,590.8795478001703,590.8795478001703,590.8795478001703,590.8795478001703,591.175697900122,591.175697900122,593.0375054001343,593.0375054001343,593.0375054001343,593.0375054001343,593.0375054001343,593.0375054001343,593.0375054001343,593.0375054001343,593.0375054001343,593.0375054001343,593.0375054001343,593.0375054001343,593.0375054001343,593.0375054001343,593.0375054001343,593.0375054001343,593.0375054001343,,,,,,66,63,22,74,74,65,None,None,67,67,[0.10925925925925926],[-0.2935185185185185],[1],[0],[0],[5.374899099813774],['tijiao'],0.2,0,,[],[],[],[],[],[],[],7.768518518518518,2.261808499926701,603.2250234000385,605.1040950999595,595.5493695000187,595.5493695000187,595.5493695000187,595.5493695000187,595.5493695000187,595.5493695000187,595.5493695000187,595.5493695000187,0.007795399986207485,595.5493695000187,600.9442033001687,600.9442033001687,600.9442033001687,600.9442033001687,,,,,,,,,,,,,,,,284,f,19,2023-04-05_13h47.30.929,RL,2022.2.4,60.14285132396947,
1,-0.3,-0.225,0,38,38,38,,,,,,,,,,None,605.1040950999595,605.1040950999595,605.1040950999595,605.1040950999595,605.1040950999595,605.1040950999595,j,0.4875751999206841,605.6229322000872,605.6229322000872,605.6229322000872,605.6229322000872,605.6229322000872,605.6229322000872,605.9189124000259,605.9189124000259,607.0654017000925,607.0654017000925,607.08231540001,607.08231540001,607.08231540001,607.08231540001,607.08231540001,607.08231540001,607.08231540001,607.08231540001,607.08231540001,607.08231540001,607.08231540001,607.08231540001,607.08231540001,607.08231540001,607.08231540001,609.5914714001119,609.5914714001119,609.5914714001119,609.5914714001119,609.5914714001119,72,59,27,60,60,51,3.0,4.0877628000453115,,,[],[],[],[],[],[],[],-0.2,2,,[],[],[],[],[],[],[],None,None,613.7041105001699,615.4259900001343,,,,,,,,,,,,,,,,,,,,,,,,,,,,,,284,f,19,2023-04-05_13h47.30.929,RL,2022.2.4,60.14285132396947,
0,0.3,0.225,0,39,39,39,,,,,,,,,,None,615.4259900001343,615.4259900001343,615.4259900001343,615.4259900001343,615.4259900001343,615.4259900001343,j,0.5325929999817163,615.9918101001531,615.9918101001531,615.9918101001531,615.9918101001531,615.9918101001531,615.9918101001531,616.2902884001378,616.2902884001378,617.6703101000749,617.6703101000749,617.6703101000749,617.6703101000749,617.6703101000749,617.6703101000749,617.6703101000749,617.6703101000749,617.6703101000749,617.6703101000749,617.6703101000749,617.6703101000749,617.6703101000749,617.6703101000749,617.6703101000749,617.6703101000749,617.6703101000749,,,,,,71,59,32,76,76,62,None,None,,,[],[],[],[],[],[],[],0.6,1,70,[0.010185185185185186],[-0.29814814814814816],[1],[0],[0],[6.480175399919972],['tijiao_random_2'],7.148148148148148,1.5059633001219481,628.2066550001036,630.1192964001093,,,,,,,,,,,626.6823124000803,626.6823124000803,626.6823124000803,626.6823124000803,620.1896186000668,620.1896186000668,620.1896186000668,620.1896186000668,620.1896186000668,620.1896186000668,620.1896186000668,620.1896186000668,0.006575699895620346,620.1896186000668,,,,,,284,f,19,2023-04-05_13h47.30.929,RL,2022.2.4,60.14285132396947,
1,-0.3,-0.225,0,40,40,40,,,,,,,,,,None,630.1192964001093,630.1192964001093,630.1192964001093,630.1192964001093,630.1192964001093,630.1192964001093,i,0.8271182999014854,630.970562600065,630.970562600065,630.970562600065,630.970562600065,630.970562600065,630.970562600065,631.2660944000818,631.2660944000818,633.2109533001203,633.2109533001203,633.2109533001203,633.2109533001203,633.2109533001203,633.2109533001203,633.2109533001203,633.2109533001203,633.2109533001203,633.2109533001203,633.2109533001203,633.2109533001203,633.2109533001203,633.2109533001203,633.2109533001203,633.2109533001203,633.2109533001203,635.7197659001686,635.7197659001686,635.7197659001686,635.7197659001686,635.7197659001686,71,60,28,70,28,71,1.0,2.143508499953896,,,[],[],[],[],[],[],[],-0.6,3,,[],[],[],[],[],[],[],None,None,637.8894512001425,639.5265172000509,,,,,,,,,,,,,,,,,,,,,,,,,,,,,,284,f,19,2023-04-05_13h47.30.929,RL,2022.2.4,60.14285132396947,
0,0.3,0.225,0,41,41,41,,,,,,,,,,None,639.5265172000509,639.5265172000509,639.5265172000509,639.5265172000509,639.5265172000509,639.5265172000509,i,1.161894500022754,640.7088457001373,640.7088457001373,640.7088457001373,640.7088457001373,640.7088457001373,640.7088457001373,641.0064574000426,641.0064574000426,642.4356697001494,642.4356697001494,642.4356697001494,642.4356697001494,642.4356697001494,642.4356697001494,642.4356697001494,642.4356697001494,642.4356697001494,642.4356697001494,642.4356697001494,642.4356697001494,642.4356697001494,642.4356697001494,642.4356697001494,642.4356697001494,642.4356697001494,644.9450544000138,644.9450544000138,644.9450544000138,644.9450544000138,644.9450544000138,72,61,30,70,30,53,1.0,1.578163699945435,,,[],[],[],[],[],[],[],0.6,2,,[],[],[],[],[],[],[],None,None,646.5495071001351,648.4524868000299,,,,,,,,,,,,,,,,,,,,,,,,,,,,,,284,f,19,2023-04-05_13h47.30.929,RL,2022.2.4,60.14285132396947,
1,-0.3,-0.225,0,42,42,42,,,,,,,,,,None,648.4524868000299,648.4524868000299,648.4524868000299,648.4524868000299,648.4524868000299,648.4524868000299,r,0.2752675998490304,648.7524678001646,648.7524678001646,648.7524678001646,648.7524678001646,648.7524678001646,648.7524678001646,649.0508080001455,649.0508080001455,650.6134752000216,650.6134752000216,650.6134752000216,650.6134752000216,650.6134752000216,650.6134752000216,650.6134752000216,650.6134752000216,650.6134752000216,650.6134752000216,650.6134752000216,650.6134752000216,650.6134752000216,650.6134752000216,650.6134752000216,650.6134752000216,650.6134752000216,,,,,,70,61,27,67,70,45,None,None,,,[],[],[],[],[],[],[],-0.6,1,75,[-0.08981481481481482],[-0.2777777777777778],[1],[0],[0],[4.553141599986702],['tijiao_random_2'],8.083333333333334,2.4524898000527173,660.1696744000074,661.9821170000359,,,,,,,,,,,657.6997822001576,657.6997822001576,657.6997822001576,657.6997822001576,653.1319333999418,653.1319333999418,653.1319333999418,653.1319333999418,653.1319333999418,653.1319333999418,653.1319333999418,653.1319333999418,0.00624629994854331,653.1319333999418,,,,,,284,f,19,2023-04-05_13h47.30.929,RL,2022.2.4,60.14285132396947,
0,0.3,0.225,0,43,43,43,,,,,,,,,,None,661.9821170000359,661.9821170000359,661.9821170000359,661.9821170000359,661.9821170000359,661.9821170000359,r,0.33982780016958714,662.3493360001594,662.3493360001594,662.3493360001594,662.3493360001594,662.3493360001594,662.3493360001594,662.6474671999458,662.6474671999458,664.1098836001474,664.1098836001474,664.1098836001474,664.1098836001474,664.1098836001474,664.1098836001474,664.1098836001474,664.1098836001474,664.1098836001474,664.1098836001474,664.1098836001474,664.1098836001474,664.1098836001474,664.1098836001474,664.1098836001474,664.1098836001474,664.1098836001474,666.6188499999698,666.6188499999698,666.6188499999698,666.6188499999698,666.6188499999698,68,66,31,70,68,62,5.0,2.2927884999662638,,,[],[],[],[],[],[],[],0.2,3,,[],[],[],[],[],[],[],None,None,668.9402234000154,670.8747434001416,,,,,,,,,,,,,,,,,,,,,,,,,,,,,,284,f,19,2023-04-05_13h47.30.929,RL,2022.2.4,60.14285132396947,
1,-0.3,-0.225,0,44,44,44,,,,,,,,,,None,670.8747434001416,670.8747434001416,670.8747434001416,670.8747434001416,670.8747434001416,670.8747434001416,r,0.5889751999638975,671.4899266001303,671.4899266001303,671.4899266001303,671.4899266001303,671.4899266001303,671.4899266001303,671.7888558001723,671.7888558001723,673.2019480001181,673.2019480001181,673.2019480001181,673.2019480001181,673.2019480001181,673.2019480001181,673.2019480001181,673.2019480001181,673.2019480001181,673.2019480001181,673.2019480001181,673.2019480001181,673.2019480001181,673.2019480001181,673.2019480001181,673.2019480001181,673.2019480001181,,,,,,63,62,29,73,63,52,None,None,,,[],[],[],[],[],[],[],-0.2,1,48,[0.13240740740740742],[-0.2953703703703704],[1],[0],[0],[8.508433900075033],['tijiao_random_2'],4.046296296296296,1.7055842000991106,685.9657857001293,687.5624846999999,,,,,,,,,,,684.2414806999732,684.2414806999732,684.2414806999732,684.2414806999732,675.7204601000994,675.7204601000994,675.7204601000994,675.7204601000994,675.7204601000994,675.7204601000994,675.7204601000994,675.7204601000994,0.006014799932017922,675.7204601000994,,,,,,284,f,19,2023-04-05_13h47.30.929,RL,2022.2.4,60.14285132396947,
0,0.3,0.225,0,45,45,45,,,,,,,,,,None,687.5624846999999,687.5624846999999,687.5624846999999,687.5624846999999,687.5624846999999,687.5624846999999,f,0.3586686998605728,687.9484590000939,687.9484590000939,687.9484590000939,687.9484590000939,687.9484590000939,687.9484590000939,688.2439328001346,688.2439328001346,689.4239555001259,689.4239555001259,689.4407733001281,689.4407733001281,689.4407733001281,689.4407733001281,689.4407733001281,689.4407733001281,689.4407733001281,689.4407733001281,689.4407733001281,689.4407733001281,689.4407733001281,689.4407733001281,689.4407733001281,689.4407733001281,689.4407733001281,691.949982700171,691.949982700171,691.949982700171,691.949982700171,691.949982700171,63,64,33,66,64,58,6.0,2.160745200002566,,,[],[],[],[],[],[],[],-0.2,3,,[],[],[],[],[],[],[],None,None,694.1350122001022,695.7065703000408,,,,,,,,,,,,,,,,,,,,,,,,,,,,,,284,f,19,2023-04-05_13h47.30.929,RL,2022.2.4,60.14285132396947,
1,-0.3,-0.225,0,46,46,46,,,,,,,,,,None,695.7065703000408,695.7065703000408,695.7065703000408,695.7065703000408,695.7065703000408,695.7065703000408,r,0.6226506000384688,696.3572672000155,696.3572672000155,696.3572672000155,696.3572672000155,696.3572672000155,696.3572672000155,696.6543215999845,696.6543215999845,697.7511812001467,697.7511812001467,697.7511812001467,697.7511812001467,697.7511812001467,697.7511812001467,697.7511812001467,697.7511812001467,697.7511812001467,697.7511812001467,697.7511812001467,697.7511812001467,697.7511812001467,697.7511812001467,697.7511812001467,697.7511812001467,697.7511812001467,700.260681200074,700.260681200074,700.260681200074,700.260681200074,700.260681200074,54,54,42,67,54,52,4.0,2.5254044998437166,,,[],[],[],[],[],[],[],-0.6,3,,[],[],[],[],[],[],[],None,None,702.8125706999563,704.7490463000722,,,,,,,,,,,,,,,,,,,,,,,,,,,,,,284,f,19,2023-04-05_13h47.30.929,RL,2022.2.4,60.14285132396947,
0,0.3,0.225,0,47,47,47,,,,,,,,,,None,704.7490463000722,704.7490463000722,704.7490463000722,704.7490463000722,704.7490463000722,704.7490463000722,r,0.4426189998630434,705.2147307000123,705.2147307000123,705.2147307000123,705.2147307000123,705.2147307000123,705.2147307000123,705.5135687999427,705.5135687999427,707.474888100056,707.474888100056,707.474888100056,707.474888100056,707.474888100056,707.474888100056,707.474888100056,707.474888100056,707.474888100056,707.474888100056,707.474888100056,707.474888100056,707.474888100056,707.474888100056,707.474888100056,707.474888100056,707.474888100056,709.984180000145,709.984180000145,709.984180000145,709.984180000145,709.984180000145,50,63,35,64,50,60,2.0,2.359485099790618,,,[],[],[],[],[],[],[],0.6,2,,[],[],[],[],[],[],[],None,None,712.3685715999454,714.1732869001571,,,,,,,,,,,,,,,,,,,,,,,,,,,,,,284,f,19,2023-04-05_13h47.30.929,RL,2022.2.4,60.14285132396947,
1,-0.3,-0.225,0,48,48,48,,,,,,,,,,None,714.1732869001571,714.1732869001571,714.1732869001571,714.1732869001571,714.1732869001571,714.1732869001571,j,0.49627300002612174,714.689466800075,714.689466800075,714.689466800075,714.689466800075,714.689466800075,714.689466800075,714.9875378001016,714.9875378001016,716.2008708000649,716.2008708000649,716.2174563000444,716.2174563000444,716.2174563000444,716.2174563000444,716.2174563000444,716.2174563000444,716.2174563000444,716.2174563000444,716.2174563000444,716.2174563000444,716.2174563000444,716.2174563000444,716.2174563000444,716.2174563000444,716.2174563000444,,,,,,58,60,34,72,72,61,None,None,67,67,[-0.07962962962962963],[-0.2796296296296296],[1],[0],[0],[4.0959954999852926],['tijiao'],0.2,0,,[],[],[],[],[],[],[],8.88888888888889,2.2792433998547494,725.1423172999639,726.6888854000717,718.72801670013,718.72801670013,718.72801670013,718.72801670013,718.72801670013,718.72801670013,718.72801670013,718.72801670013,0.005761299980804324,718.72801670013,722.8448596999515,722.8448596999515,722.8448596999515,722.8448596999515,,,,,,,,,,,,,,,,284,f,19,2023-04-05_13h47.30.929,RL,2022.2.4,60.14285132396947,
0,0.3,0.225,0,49,49,49,,,,,,,,,,None,726.6888854000717,726.6888854000717,726.6888854000717,726.6888854000717,726.6888854000717,726.6888854000717,j,0.5709081999957561,727.2903587999754,727.2903587999754,727.2903587999754,727.2903587999754,727.2903587999754,727.2903587999754,727.5869911999907,727.5869911999907,729.1159576000646,729.1159576000646,729.1159576000646,729.1159576000646,729.1159576000646,729.1159576000646,729.1159576000646,729.1159576000646,729.1159576000646,729.1159576000646,729.1159576000646,729.1159576000646,729.1159576000646,729.1159576000646,729.1159576000646,729.1159576000646,729.1159576000646,,,,,,62,60,37,68,68,50,None,None,68,68,[-0.03796296296296296],[-0.30092592592592593],[1],[0],[0],[4.693836599821225],['tijiao'],0.6,0,,[],[],[],[],[],[],[],9.046296296296296,2.9272568998858333,739.2874125000089,741.2658774999436,731.6267093000934,731.6267093000934,731.6267093000934,731.6267093000934,731.6267093000934,731.6267093000934,731.6267093000934,731.6267093000934,0.006655099801719189,731.6267093000934,736.3410756001249,736.3410756001249,736.3410756001249,736.3410756001249,,,,,,,,,,,,,,,,284,f,19,2023-04-05_13h47.30.929,RL,2022.2.4,60.14285132396947,
1,-0.3,-0.225,0,50,50,50,,,,,,,,,,None,741.2658774999436,741.2658774999436,741.2658774999436,741.2658774999436,741.2658774999436,741.2658774999436,j,0.31140529992990196,741.599768999964,741.599768999964,741.599768999964,741.599768999964,741.599768999964,741.599768999964,741.8977545001544,741.8977545001544,743.7594572000671,743.7594572000671,743.7594572000671,743.7594572000671,743.7594572000671,743.7594572000671,743.7594572000671,743.7594572000671,743.7594572000671,743.7594572000671,743.7594572000671,743.7594572000671,743.7594572000671,743.7594572000671,743.7594572000671,743.7594572000671,743.7594572000671,746.2682952999603,746.2682952999603,746.2682952999603,746.2682952999603,746.2682952999603,62,74,34,73,73,53,7.0,1.9270732998847961,,,[],[],[],[],[],[],[],0.2,3,,[],[],[],[],[],[],[],None,None,748.2209877001587,750.1913399000186,,,,,,,,,,,,,,,,,,,,,,,,,,,,,,284,f,19,2023-04-05_13h47.30.929,RL,2022.2.4,60.14285132396947,
0,0.3,0.225,0,51,51,51,,,,,,,,,,None,750.1913399000186,750.1913399000186,750.1913399000186,750.1913399000186,750.1913399000186,750.1913399000186,j,1.0685864998959005,751.2913573000114,751.2913573000114,751.2913573000114,751.2913573000114,751.2913573000114,751.2913573000114,751.5879379999824,751.5879379999824,752.9343673000112,752.9343673000112,752.9343673000112,752.9343673000112,752.9343673000112,752.9343673000112,752.9343673000112,752.9343673000112,752.9343673000112,752.9343673000112,752.9343673000112,752.9343673000112,752.9343673000112,752.9343673000112,752.9343673000112,752.9343673000112,752.9343673000112,,,,,,52,68,33,71,71,74,None,None,72,72,[0.1398148148148148],[-0.2740740740740741],[1],[0],[0],[6.072444199817255],['tijiao'],-0.6,0,,[],[],[],[],[],[],[],8.055555555555555,2.8261458999477327,764.385406400077,766.2476727000903,755.4464506001677,755.4464506001677,755.4464506001677,755.4464506001677,755.4464506001677,755.4464506001677,755.4464506001677,755.4464506001677,0.007383099989965558,755.4464506001677,761.5422448001336,761.5422448001336,761.5422448001336,761.5422448001336,,,,,,,,,,,,,,,,284,f,19,2023-04-05_13h47.30.929,RL,2022.2.4,60.14285132396947,
1,-0.3,-0.225,0,52,52,52,,,,,,,,,,None,766.2476727000903,766.2476727000903,766.2476727000903,766.2476727000903,766.2476727000903,766.2476727000903,r,0.24208620004355907,766.5156179000624,766.5156179000624,766.5156179000624,766.5156179000624,766.5156179000624,766.5156179000624,766.8128983001225,766.8128983001225,767.6942293001339,767.6942293001339,767.6942293001339,767.6942293001339,767.6942293001339,767.6942293001339,767.6942293001339,767.6942293001339,767.6942293001339,767.6942293001339,767.6942293001339,767.6942293001339,767.6942293001339,767.6942293001339,767.6942293001339,767.6942293001339,767.6942293001339,,,,,,59,72,43,76,59,47,None,None,,,[],[],[],[],[],[],[],-0.2,1,63,[0.12962962962962962],[-0.2953703703703704],[1],[0],[0],[6.0160846000071615],['tijiao_random_2'],6.962962962962964,5.027808399870992,781.2890622999985,783.151695900131,,,,,,,,,,,776.2434582000133,776.2434582000133,776.2434582000133,776.2434582000133,770.2126665001269,770.2126665001269,770.2126665001269,770.2126665001269,770.2126665001269,770.2126665001269,770.2126665001269,770.2126665001269,0.006939399987459183,770.2126665001269,,,,,,284,f,19,2023-04-05_13h47.30.929,RL,2022.2.4,60.14285132396947,
0,0.3,0.225,0,53,53,53,,,,,,,,,,None,783.151695900131,783.151695900131,783.151695900131,783.151695900131,783.151695900131,783.151695900131,j,0.7669179998338223,783.9509132001549,783.9509132001549,783.9509132001549,783.9509132001549,783.9509132001549,783.9509132001549,784.2489700999577,784.2489700999577,785.5951833000872,785.5951833000872,785.5951833000872,785.5951833000872,785.5951833000872,785.5951833000872,785.5951833000872,785.5951833000872,785.5951833000872,785.5951833000872,785.5951833000872,785.5951833000872,785.5951833000872,785.5951833000872,785.5951833000872,785.5951833000872,785.5951833000872,,,,,,52,72,39,73,73,56,None,None,75,75,[0.075],[-0.29814814814814816],[1],[0],[0],[5.39117780001834],['tijiao'],0.6,0,,[],[],[],[],[],[],[],9.416666666666666,1.8616313999518752,795.4006678001024,797.0801971000619,788.1067097999621,788.1067097999621,788.1067097999621,788.1067097999621,788.1067097999621,788.1067097999621,788.1067097999621,788.1067097999621,0.007366100093349814,788.1067097999621,793.5206160000525,793.5206160000525,793.5206160000525,793.5206160000525,,,,,,,,,,,,,,,,284,f,19,2023-04-05_13h47.30.929,RL,2022.2.4,60.14285132396947,
1,-0.3,-0.225,0,54,54,54,,,,,,,,,,None,797.0801971000619,797.0801971000619,797.0801971000619,797.0801971000619,797.0801971000619,797.0801971000619,j,0.5508614000864327,797.6628227001056,797.6628227001056,797.6628227001056,797.6628227001056,797.6628227001056,797.6628227001056,797.9612173000351,797.9612173000351,799.5403861999512,799.5403861999512,799.5403861999512,799.5403861999512,799.5403861999512,799.5403861999512,799.5403861999512,799.5403861999512,799.5403861999512,799.5403861999512,799.5403861999512,799.5403861999512,799.5403861999512,799.5403861999512,799.5403861999512,799.5403861999512,799.5403861999512,802.0495480000973,802.0495480000973,802.0495480000973,802.0495480000973,802.0495480000973,53,67,37,71,71,53,7.0,2.459309099940583,,,[],[],[],[],[],[],[],0.2,2,,[],[],[],[],[],[],[],None,None,804.5340410000645,806.4713469000999,,,,,,,,,,,,,,,,,,,,,,,,,,,,,,284,f,19,2023-04-05_13h47.30.929,RL,2022.2.4,60.14285132396947,
0,0.3,0.225,0,55,55,55,,,,,,,,,,None,806.4713469000999,806.4713469000999,806.4713469000999,806.4713469000999,806.4713469000999,806.4713469000999,j,0.7277216999791563,807.2206778000109,807.2206778000109,807.2206778000109,807.2206778000109,807.2206778000109,807.2206778000109,807.5184856001288,807.5184856001288,808.4662163001485,808.4662163001485,808.4662163001485,808.4662163001485,808.4662163001485,808.4662163001485,808.4662163001485,808.4662163001485,808.4662163001485,808.4662163001485,808.4662163001485,808.4662163001485,808.4662163001485,808.4662163001485,808.4662163001485,808.4662163001485,808.4662163001485,,,,,,54,67,30,70,70,56,None,None,73,73,[0.11574074074074074],[-0.2777777777777778],[1],[0],[0],[6.2236560001038015],['tijiao'],0.2,0,,[],[],[],[],[],[],[],10.0,2.7139731000643224,819.9500172999687,821.5801212999504,810.9762322001625,810.9762322001625,810.9762322001625,810.9762322001625,810.9762322001625,810.9762322001625,810.9762322001625,810.9762322001625,0.006041599903255701,810.9762322001625,817.2202027000021,817.2202027000021,817.2202027000021,817.2202027000021,,,,,,,,,,,,,,,,284,f,19,2023-04-05_13h47.30.929,RL,2022.2.4,60.14285132396947,
1,-0.3,-0.225,0,56,56,56,,,,,,,,,,None,821.5801212999504,821.5801212999504,821.5801212999504,821.5801212999504,821.5801212999504,821.5801212999504,j,0.5711694001220167,822.1801404999569,822.1801404999569,822.1801404999569,822.1801404999569,822.1801404999569,822.1801404999569,822.477852600161,822.477852600161,823.5249999000225,823.5249999000225,823.5249999000225,823.5249999000225,823.5249999000225,823.5249999000225,823.5249999000225,823.5249999000225,823.5249999000225,823.5249999000225,823.5249999000225,823.5249999000225,823.5249999000225,823.5249999000225,823.5249999000225,823.5249999000225,823.5249999000225,826.033837800147,826.033837800147,826.033837800147,826.033837800147,826.033837800147,58,67,33,73,73,49,7.0,2.2934491001069546,,,[],[],[],[],[],[],[],-0.2,3,,[],[],[],[],[],[],[],None,None,828.3519011000171,830.3399148001336,,,,,,,,,,,,,,,,,,,,,,,,,,,,,,284,f,19,2023-04-05_13h47.30.929,RL,2022.2.4,60.14285132396947,
0,0.3,0.225,0,57,57,57,,,,,,,,,,None,830.3399148001336,830.3399148001336,830.3399148001336,830.3399148001336,830.3399148001336,830.3399148001336,r,0.3873028999660164,830.7556688000914,830.7556688000914,830.7556688000914,830.7556688000914,830.7556688000914,830.7556688000914,831.0542079999577,831.0542079999577,833.0324130000081,833.0324130000081,833.0324130000081,833.0324130000081,833.0324130000081,833.0324130000081,833.0324130000081,833.0324130000081,833.0324130000081,833.0324130000081,833.0324130000081,833.0324130000081,833.0324130000081,833.0324130000081,833.0324130000081,833.0324130000081,833.0324130000081,,,,,,73,70,32,81,73,72,None,None,,,[],[],[],[],[],[],[],-0.2,1,57,[0.05185185185185185],[-0.30092592592592593],[1],[0],[0],[6.397129700053483],['tijiao_random_2'],5.083333333333333,2.5020391000434756,844.4835475001018,846.0133351001423,,,,,,,,,,,841.9631449000444,841.9631449000444,841.9631449000444,841.9631449000444,835.5521100000478,835.5521100000478,835.5521100000478,835.5521100000478,835.5521100000478,835.5521100000478,835.5521100000478,835.5521100000478,0.007607199950143695,835.5521100000478,,,,,,284,f,19,2023-04-05_13h47.30.929,RL,2022.2.4,60.14285132396947,
1,-0.3,-0.225,0,58,58,58,,,,,,,,,,None,846.0133351001423,846.0133351001423,846.0133351001423,846.0133351001423,846.0133351001423,846.0133351001423,f,0.30628010001964867,846.3493695999496,846.3493695999496,846.3493695999496,846.3493695999496,846.3493695999496,846.3493695999496,846.6453434999567,846.6453434999567,848.1742312000133,848.1742312000133,848.1742312000133,848.1742312000133,848.1742312000133,848.1742312000133,848.1742312000133,848.1742312000133,848.1742312000133,848.1742312000133,848.1742312000133,848.1742312000133,848.1742312000133,848.1742312000133,848.1742312000133,848.1742312000133,848.1742312000133,,,,,,63,72,28,82,72,64,None,None,66,66,[-0.06574074074074074],[-0.2824074074074074],[1],[0],[0],[5.70805610017851],['tijiao'],0.2,0,,[],[],[],[],[],[],[],7.981481481481482,4.007647200021893,860.4402587001678,862.4020865999628,850.6843799999915,850.6843799999915,850.6843799999915,850.6843799999915,850.6843799999915,850.6843799999915,850.6843799999915,850.6843799999915,0.006100199883803725,850.6843799999915,856.4141327000689,856.4141327000689,856.4141327000689,856.4141327000689,,,,,,,,,,,,,,,,284,f,19,2023-04-05_13h47.30.929,RL,2022.2.4,60.14285132396947,
0,0.3,0.225,0,59,59,59,,,,,,,,,,None,862.4020865999628,862.4020865999628,862.4020865999628,862.4020865999628,862.4020865999628,862.4020865999628,f,0.22463100007735193,862.6521664001048,862.6521664001048,862.6521664001048,862.6521664001048,862.6521664001048,862.6521664001048,862.9506082001608,862.9506082001608,863.7653598999605,863.7653598999605,863.7653598999605,863.7653598999605,863.7653598999605,863.7653598999605,863.7653598999605,863.7653598999605,863.7653598999605,863.7653598999605,863.7653598999605,863.7653598999605,863.7653598999605,863.7653598999605,863.7653598999605,863.7653598999605,863.7653598999605,866.2741424001288,866.2741424001288,866.2741424001288,866.2741424001288,866.2741424001288,55,63,29,72,63,66,4.0,2.7076733000576496,,,[],[],[],[],[],[],[],-0.2,2,,[],[],[],[],[],[],[],None,None,869.0073951000813,870.8290623000357,,,,,,,,,,,,,,,,,,,,,,,,,,,,,,284,f,19,2023-04-05_13h47.30.929,RL,2022.2.4,60.14285132396947,
1,-0.3,-0.225,0,60,60,60,,,,,,,,,,None,870.8290623000357,870.8290623000357,870.8290623000357,870.8290623000357,870.8290623000357,870.8290623000357,r,0.5000486997887492,871.3613772001117,871.3613772001117,871.3613772001117,871.3613772001117,871.3613772001117,871.3613772001117,871.6602948000655,871.6602948000655,872.5078744001221,872.5078744001221,872.5078744001221,872.5078744001221,872.5078744001221,872.5078744001221,872.5078744001221,872.5078744001221,872.5078744001221,872.5078744001221,872.5078744001221,872.5078744001221,872.5078744001221,872.5078744001221,872.5078744001221,872.5078744001221,872.5078744001221,,,,,,54,69,21,67,54,51,None,None,67,67,[0.011111111111111112],[-0.2814814814814815],[1],[0],[0],[8.31766439997591],['tijiao'],0.6,0,,[],[],[],[],[],[],[],5.972222222222222,3.275387000059709,886.6515918001533,888.514106699964,875.0180651000701,875.0180651000701,875.0180651000701,875.0180651000701,875.0180651000701,875.0180651000701,875.0180651000701,875.0180651000701,0.005817400058731437,875.0180651000701,883.3576083001681,883.3576083001681,883.3576083001681,883.3576083001681,,,,,,,,,,,,,,,,284,f,19,2023-04-05_13h47.30.929,RL,2022.2.4,60.14285132396947,
0,0.3,0.225,0,61,61,61,,,,,,,,,,None,888.514106699964,888.514106699964,888.514106699964,888.514106699964,888.514106699964,888.514106699964,r,0.2503585999365896,888.798176900018,888.798176900018,888.798176900018,888.798176900018,888.798176900018,888.798176900018,889.0961186999921,889.0961186999921,890.159595400095,890.159595400095,890.159595400095,890.159595400095,890.159595400095,890.159595400095,890.159595400095,890.159595400095,890.159595400095,890.159595400095,890.159595400095,890.159595400095,890.159595400095,890.159595400095,890.159595400095,890.159595400095,890.159595400095,892.6687559999991,892.6687559999991,892.6687559999991,892.6687559999991,892.6687559999991,60,62,30,68,60,67,2.0,3.439930299995467,,,[],[],[],[],[],[],[],-0.2,2,,[],[],[],[],[],[],[],None,None,896.1350879000966,897.8050661000889,,,,,,,,,,,,,,,,,,,,,,,,,,,,,,284,f,19,2023-04-05_13h47.30.929,RL,2022.2.4,60.14285132396947,
1,-0.3,-0.225,0,62,62,62,,,,,,,,,,None,897.8050661000889,897.8050661000889,897.8050661000889,897.8050661000889,897.8050661000889,897.8050661000889,j,0.34716530004516244,898.1729546000715,898.1729546000715,898.1729546000715,898.1729546000715,898.1729546000715,898.1729546000715,898.4706238999497,898.4706238999497,899.3681121999398,899.3681121999398,899.3681121999398,899.3681121999398,899.3681121999398,899.3681121999398,899.3681121999398,899.3681121999398,899.3681121999398,899.3681121999398,899.3681121999398,899.3681121999398,899.3681121999398,899.3681121999398,899.3681121999398,899.3681121999398,899.3681121999398,901.8769308000337,901.8769308000337,901.8769308000337,901.8769308000337,901.8769308000337,59,68,24,69,69,56,5.0,3.0579148000106215,,,[],[],[],[],[],[],[],0.6,3,,[],[],[],[],[],[],[],None,None,904.9618321999442,906.8474189999979,,,,,,,,,,,,,,,,,,,,,,,,,,,,,,284,f,19,2023-04-05_13h47.30.929,RL,2022.2.4,60.14285132396947,
0,0.3,0.225,0,63,63,63,,,,,,,,,,None,906.8474189999979,906.8474189999979,906.8474189999979,906.8474189999979,906.8474189999979,906.8474189999979,j,0.6312296998221427,907.4967833999544,907.4967833999544,907.4967833999544,907.4967833999544,907.4967833999544,907.4967833999544,907.7948652000632,907.7948652000632,909.2245672999416,909.2245672999416,909.2245672999416,909.2245672999416,909.2245672999416,909.2245672999416,909.2245672999416,909.2245672999416,909.2245672999416,909.2245672999416,909.2245672999416,909.2245672999416,909.2245672999416,909.2245672999416,909.2245672999416,909.2245672999416,909.2245672999416,911.7334591001272,911.7334591001272,911.7334591001272,911.7334591001272,911.7334591001272,66,67,25,67,67,57,5.0,3.905193599872291,,,[],[],[],[],[],[],[],0.6,2,,[],[],[],[],[],[],[],None,None,915.666251800023,917.4186575999483,,,,,,,,,,,,,,,,,,,,,,,,,,,,,,284,f,19,2023-04-05_13h47.30.929,RL,2022.2.4,60.14285132396947,
1,-0.3,-0.225,0,64,64,64,,,,,,,,,,None,917.4186575999483,917.4186575999483,917.4186575999483,917.4186575999483,917.4186575999483,917.4186575999483,j,1.1606746998149902,918.5990985000972,918.5990985000972,918.5990985000972,918.5990985000972,918.5990985000972,918.5990985000972,918.8980783999432,918.8980783999432,919.7619084001053,919.7619084001053,919.7619084001053,919.7619084001053,919.7619084001053,919.7619084001053,919.7619084001053,919.7619084001053,919.7619084001053,919.7619084001053,919.7619084001053,919.7619084001053,919.7619084001053,919.7619084001053,919.7619084001053,919.7619084001053,919.7619084001053,922.2714116999414,922.2714116999414,922.2714116999414,922.2714116999414,922.2714116999414,75,71,25,56,56,54,4.0,3.0408487000968307,,,[],[],[],[],[],[],[],-0.6,2,,[],[],[],[],[],[],[],None,None,925.3390775001608,927.2583584999666,,,,,,,,,,,,,,,,,,,,,,,,,,,,,,284,f,19,2023-04-05_13h47.30.929,RL,2022.2.4,60.14285132396947,
0,0.3,0.225,0,65,65,65,,,,,,,,,,None,927.2583584999666,927.2583584999666,927.2583584999666,927.2583584999666,927.2583584999666,927.2583584999666,r,0.2927263998426497,927.5748564000241,927.5748564000241,927.5748564000241,927.5748564000241,927.5748564000241,927.5748564000241,927.8732893001288,927.8732893001288,929.1031387001276,929.1031387001276,929.1200690001715,929.1200690001715,929.1200690001715,929.1200690001715,929.1200690001715,929.1200690001715,929.1200690001715,929.1200690001715,929.1200690001715,929.1200690001715,929.1200690001715,929.1200690001715,929.1200690001715,929.1200690001715,929.1200690001715,931.6293489001691,931.6293489001691,931.6293489001691,931.6293489001691,931.6293489001691,66,70,27,58,66,70,2.0,2.6588264000602067,,,[],[],[],[],[],[],[],0.6,3,,[],[],[],[],[],[],[],None,None,934.3141728001647,936.2837608000264,,,,,,,,,,,,,,,,,,,,,,,,,,,,,,284,f,19,2023-04-05_13h47.30.929,RL,2022.2.4,60.14285132396947,
1,-0.3,-0.225,0,66,66,66,,,,,,,,,,None,936.2837608000264,936.2837608000264,936.2837608000264,936.2837608000264,936.2837608000264,936.2837608000264,r,0.6040431000292301,936.9182941000909,936.9182941000909,936.9182941000909,936.9182941000909,936.9182941000909,936.9182941000909,937.2147768000141,937.2147768000141,939.1095738001168,939.1095738001168,939.1095738001168,939.1095738001168,939.1095738001168,939.1095738001168,939.1095738001168,939.1095738001168,939.1095738001168,939.1095738001168,939.1095738001168,939.1095738001168,939.1095738001168,939.1095738001168,939.1095738001168,939.1095738001168,939.1095738001168,941.6188580000307,941.6188580000307,941.6188580000307,941.6188580000307,941.6188580000307,69,68,27,60,69,78,2.0,2.326169300125912,,,[],[],[],[],[],[],[],-0.6,3,,[],[],[],[],[],[],[],None,None,943.9718953999691,945.6914703999646,,,,,,,,,,,,,,,,,,,,,,,,,,,,,,284,f,19,2023-04-05_13h47.30.929,RL,2022.2.4,60.14285132396947,
0,0.3,0.225,0,67,67,67,,,,,,,,,,None,945.6914703999646,945.6914703999646,945.6914703999646,945.6914703999646,945.6914703999646,945.6914703999646,f,0.3841545998584479,946.1082276001107,946.1082276001107,946.1082276001107,946.1082276001107,946.1082276001107,946.1082276001107,946.406061100075,946.406061100075,947.9688548000995,947.9688548000995,947.9688548000995,947.9688548000995,947.9688548000995,947.9688548000995,947.9688548000995,947.9688548000995,947.9688548000995,947.9688548000995,947.9688548000995,947.9688548000995,947.9688548000995,947.9688548000995,947.9688548000995,947.9688548000995,947.9688548000995,950.4779024999589,950.4779024999589,950.4779024999589,950.4779024999589,950.4779024999589,70,80,42,56,80,47,7.0,2.2265973000321537,,,[],[],[],[],[],[],[],-0.6,2,,[],[],[],[],[],[],[],None,None,952.7326811000239,954.3179027000442,,,,,,,,,,,,,,,,,,,,,,,,,,,,,,284,f,19,2023-04-05_13h47.30.929,RL,2022.2.4,60.14285132396947,
1,-0.3,-0.225,0,68,68,68,,,,,,,,,,None,954.3179027000442,954.3179027000442,954.3179027000442,954.3179027000442,954.3179027000442,954.3179027000442,f,0.594579900149256,954.9338624000084,954.9338624000084,954.9338624000084,954.9338624000084,954.9338624000084,954.9338624000084,955.2320346999913,955.2320346999913,956.445700700162,956.445700700162,956.445700700162,956.445700700162,956.445700700162,956.445700700162,956.445700700162,956.445700700162,956.445700700162,956.445700700162,956.445700700162,956.445700700162,956.445700700162,956.445700700162,956.445700700162,956.445700700162,956.445700700162,958.9547733999789,958.9547733999789,958.9547733999789,958.9547733999789,958.9547733999789,70,67,33,56,67,79,2.0,2.3759767999872565,,,[],[],[],[],[],[],[],-0.6,3,,[],[],[],[],[],[],[],None,None,961.3554857999552,963.3263662001118,,,,,,,,,,,,,,,,,,,,,,,,,,,,,,284,f,19,2023-04-05_13h47.30.929,RL,2022.2.4,60.14285132396947,
0,0.3,0.225,0,69,69,69,,,,,,,,,,None,963.3263662001118,963.3263662001118,963.3263662001118,963.3263662001118,963.3263662001118,963.3263662001118,j,0.6839719000272453,964.0424105999991,964.0424105999991,964.0424105999991,964.0424105999991,964.0424105999991,964.0424105999991,964.3409063001163,964.3409063001163,966.1355932001024,966.1355932001024,966.1355932001024,966.1355932001024,966.1355932001024,966.1355932001024,966.1355932001024,966.1355932001024,966.1355932001024,966.1355932001024,966.1355932001024,966.1355932001024,966.1355932001024,966.1355932001024,966.1355932001024,966.1355932001024,966.1355932001024,,,,,,75,63,40,49,49,73,None,None,,,[],[],[],[],[],[],[],0.2,1,35,[-0.09537037037037037],[-0.2824074074074074],[1],[0],[0],[6.462928300024942],['tijiao_random_2'],7.046296296296296,1.2893254000227898,976.4397380000446,978.0195713001303,,,,,,,,,,,975.132340000011,975.132340000011,975.132340000011,975.132340000011,968.654893900035,968.654893900035,968.654893900035,968.654893900035,968.654893900035,968.654893900035,968.654893900035,968.654893900035,0.0066327000968158245,968.654893900035,,,,,,284,f,19,2023-04-05_13h47.30.929,RL,2022.2.4,60.14285132396947,
1,-0.3,-0.225,0,70,70,70,,,,,,,,,,None,978.0195713001303,978.0195713001303,978.0195713001303,978.0195713001303,978.0195713001303,978.0195713001303,f,0.6774919000454247,978.7203731001355,978.7203731001355,978.7203731001355,978.7203731001355,978.7203731001355,978.7203731001355,979.0174936000258,979.0174936000258,980.9788393999916,980.9788393999916,980.9788393999916,980.9788393999916,980.9788393999916,980.9788393999916,980.9788393999916,980.9788393999916,980.9788393999916,980.9788393999916,980.9788393999916,980.9788393999916,980.9788393999916,980.9788393999916,980.9788393999916,980.9788393999916,980.9788393999916,,,,,,68,68,37,52,68,51,None,None,65,65,[0.03333333333333333],[-0.2953703703703704],[1],[0],[0],[6.006506999954581],['tijiao'],-0.2,0,,[],[],[],[],[],[],[],6.981481481481481,2.9918756999541074,992.5291276001371,994.3582313000225,983.4895587000065,983.4895587000065,983.4895587000065,983.4895587000065,983.4895587000065,983.4895587000065,983.4895587000065,983.4895587000065,0.007188000017777085,983.4895587000065,989.5187493001577,989.5187493001577,989.5187493001577,989.5187493001577,,,,,,,,,,,,,,,,284,f,19,2023-04-05_13h47.30.929,RL,2022.2.4,60.14285132396947,
0,0.3,0.225,0,71,71,71,,,,,,,,,,None,994.3582313000225,994.3582313000225,994.3582313000225,994.3582313000225,994.3582313000225,994.3582313000225,f,0.5338302999734879,994.9263319000602,994.9263319000602,994.9263319000602,994.9263319000602,994.9263319000602,994.9263319000602,995.2231882000342,995.2231882000342,997.0514724000823,997.0514724000823,997.0680724999402,997.0680724999402,997.0680724999402,997.0680724999402,997.0680724999402,997.0680724999402,997.0680724999402,997.0680724999402,997.0680724999402,997.0680724999402,997.0680724999402,997.0680724999402,997.0680724999402,997.0680724999402,997.0680724999402,999.576965500135,999.576965500135,999.576965500135,999.576965500135,999.576965500135,53,71,36,62,71,54,4.0,3.5897994998376817,,,[],[],[],[],[],[],[],0.2,2,,[],[],[],[],[],[],[],None,None,1003.1943606999703,1004.9464120001066,,,,,,,,,,,,,,,,,,,,,,,,,,,,,,284,f,19,2023-04-05_13h47.30.929,RL,2022.2.4,60.14285132396947,
1,-0.3,-0.225,0,72,72,72,,,,,,,,,,None,1004.9464120001066,1004.9464120001066,1004.9464120001066,1004.9464120001066,1004.9464120001066,1004.9464120001066,j,0.766565800178796,1005.7449225001037,1005.7449225001037,1005.7449225001037,1005.7449225001037,1005.7449225001037,1005.7449225001037,1006.0435450000223,1006.0435450000223,1007.5557971000671,1007.5557971000671,1007.5557971000671,1007.5557971000671,1007.5557971000671,1007.5557971000671,1007.5557971000671,1007.5557971000671,1007.5557971000671,1007.5557971000671,1007.5557971000671,1007.5557971000671,1007.5557971000671,1007.5557971000671,1007.5557971000671,1007.5557971000671,1007.5557971000671,1010.0649529001676,1010.0649529001676,1010.0649529001676,1010.0649529001676,1010.0649529001676,68,59,22,52,52,79,1.0,2.5752536000218242,,,[],[],[],[],[],[],[],-0.6,2,,[],[],[],[],[],[],[],None,None,1012.6662848000415,1014.5198387999553,,,,,,,,,,,,,,,,,,,,,,,,,,,,,,284,f,19,2023-04-05_13h47.30.929,RL,2022.2.4,60.14285132396947,
0,0.3,0.225,0,73,73,73,,,,,,,,,,None,1014.5198387999553,1014.5198387999553,1014.5198387999553,1014.5198387999553,1014.5198387999553,1014.5198387999553,r,0.5604586999397725,1015.1029189000838,1015.1029189000838,1015.1029189000838,1015.1029189000838,1015.1029189000838,1015.1029189000838,1015.401495500002,1015.401495500002,1016.7643504000735,1016.7643504000735,1016.7643504000735,1016.7643504000735,1016.7643504000735,1016.7643504000735,1016.7643504000735,1016.7643504000735,1016.7643504000735,1016.7643504000735,1016.7643504000735,1016.7643504000735,1016.7643504000735,1016.7643504000735,1016.7643504000735,1016.7643504000735,1016.7643504000735,1019.2732550001238,1019.2732550001238,1019.2732550001238,1019.2732550001238,1019.2732550001238,66,62,35,58,66,70,1.0,3.7058145999908447,,,[],[],[],[],[],[],[],-0.2,2,,[],[],[],[],[],[],[],None,None,1023.0042417000514,1024.6426846000832,,,,,,,,,,,,,,,,,,,,,,,,,,,,,,284,f,19,2023-04-05_13h47.30.929,RL,2022.2.4,60.14285132396947,
1,-0.3,-0.225,0,74,74,74,,,,,,,,,,None,1024.6426846000832,1024.6426846000832,1024.6426846000832,1024.6426846000832,1024.6426846000832,1024.6426846000832,f,0.9286960000172257,1025.5926858000457,1025.5926858000457,1025.5926858000457,1025.5926858000457,1025.5926858000457,1025.5926858000457,1025.889149799943,1025.889149799943,1026.8700451999903,1026.8700451999903,1026.8869348999579,1026.8869348999579,1026.8869348999579,1026.8869348999579,1026.8869348999579,1026.8869348999579,1026.8869348999579,1026.8869348999579,1026.8869348999579,1026.8869348999579,1026.8869348999579,1026.8869348999579,1026.8869348999579,1026.8869348999579,1026.8869348999579,,,,,,68,60,30,60,60,66,None,None,,,[],[],[],[],[],[],[],-0.2,1,64,[-0.10092592592592593],[-0.30277777777777776],[1],[0],[0],[7.527972599957138],['tijiao_random_2'],7.712962962962963,3.0017023000400513,1039.9668246000074,1041.9118639000226,,,,,,,,,,,1036.9464412999805,1036.9464412999805,1036.9464412999805,1036.9464412999805,1029.405538200168,1029.405538200168,1029.405538200168,1029.405538200168,1029.405538200168,1029.405538200168,1029.405538200168,1029.405538200168,0.006213200045749545,1029.405538200168,,,,,,284,f,19,2023-04-05_13h47.30.929,RL,2022.2.4,60.14285132396947,
0,0.3,0.225,0,75,75,75,,,,,,,,,,q,1215.0908447999973,1215.0908447999973,1215.0908447999973,1215.0908447999973,1215.0908447999973,1215.0908447999973,r,0.7662529000081122,1215.8893985999748,1215.8893985999748,1215.8893985999748,1215.8893985999748,1215.8893985999748,1215.8893985999748,1216.1869528000243,1216.1869528000243,1217.5997318001464,1217.5997318001464,1217.5997318001464,1217.5997318001464,1217.5997318001464,1217.5997318001464,1217.5997318001464,1217.5997318001464,1217.5997318001464,1217.5997318001464,1217.5997318001464,1217.5997318001464,1217.5997318001464,1217.5997318001464,1217.5997318001464,1217.5997318001464,1217.5997318001464,1220.1089368001558,1220.1089368001558,1220.1089368001558,1220.1089368001558,1220.1089368001558,71,62,28,54,71,37,6.0,2.3091266001574695,,,[],[],[],[],[],[],[],-0.2,3,,[],[],[],[],[],[],[],None,None,1222.4452168000862,1224.3306055001449,,,,,,,,,,,,,,,,,,,,,,,,,1041.9118639000226,1041.9118639000226,173.15081640006974,,,284,f,19,2023-04-05_13h47.30.929,RL,2022.2.4,60.14285132396947,
1,-0.3,-0.225,0,76,76,76,,,,,,,,,,None,1224.3306055001449,1224.3306055001449,1224.3306055001449,1224.3306055001449,1224.3306055001449,1224.3306055001449,j,0.3578135999850929,1224.7135046999902,1224.7135046999902,1224.7135046999902,1224.7135046999902,1224.7135046999902,1224.7135046999902,1225.012455600081,1225.012455600081,1226.1097181001678,1226.1097181001678,1226.1097181001678,1226.1097181001678,1226.1097181001678,1226.1097181001678,1226.1097181001678,1226.1097181001678,1226.1097181001678,1226.1097181001678,1226.1097181001678,1226.1097181001678,1226.1097181001678,1226.1097181001678,1226.1097181001678,1226.1097181001678,1226.1097181001678,,,,,,70,60,29,61,61,73,None,None,,,[],[],[],[],[],[],[],0.6,1,65,[0.09537037037037037],[-0.2953703703703704],[1],[0],[0],[5.033721100073308],['tijiao_random_2'],8.0,4.116493900073692,1237.8100147000514,1239.672502500005,,,,,,,,,,,1233.674851699965,1233.674851699965,1233.674851699965,1233.674851699965,1228.6288785000797,1228.6288785000797,1228.6288785000797,1228.6288785000797,1228.6288785000797,1228.6288785000797,1228.6288785000797,1228.6288785000797,0.006756199989467859,1228.6288785000797,,,,,,284,f,19,2023-04-05_13h47.30.929,RL,2022.2.4,60.14285132396947,
0,0.3,0.225,0,77,77,77,,,,,,,,,,None,1239.672502500005,1239.672502500005,1239.672502500005,1239.672502500005,1239.672502500005,1239.672502500005,i,0.2674694999586791,1239.9730185000226,1239.9730185000226,1239.9730185000226,1239.9730185000226,1239.9730185000226,1239.9730185000226,1240.2711700999644,1240.2711700999644,1241.6838500001468,1241.6838500001468,1241.6838500001468,1241.6838500001468,1241.6838500001468,1241.6838500001468,1241.6838500001468,1241.6838500001468,1241.6838500001468,1241.6838500001468,1241.6838500001468,1241.6838500001468,1241.6838500001468,1241.6838500001468,1241.6838500001468,1241.6838500001468,1241.6838500001468,1244.193029300077,1244.193029300077,1244.193029300077,1244.193029300077,1244.193029300077,77,58,37,53,37,44,3.0,2.6582459998317063,,,[],[],[],[],[],[],[],-0.2,2,,[],[],[],[],[],[],[],None,None,1246.8794806001242,1248.5651791000273,,,,,,,,,,,,,,,,,,,,,,,,,,,,,,284,f,19,2023-04-05_13h47.30.929,RL,2022.2.4,60.14285132396947,
1,-0.3,-0.225,0,78,78,78,,,,,,,,,,None,1248.5651791000273,1248.5651791000273,1248.5651791000273,1248.5651791000273,1248.5651791000273,1248.5651791000273,f,0.3279999999795109,1248.914761400083,1248.914761400083,1248.914761400083,1248.914761400083,1248.914761400083,1248.914761400083,1249.2135385000147,1249.2135385000147,1251.075066300109,1251.075066300109,1251.075066300109,1251.075066300109,1251.075066300109,1251.075066300109,1251.075066300109,1251.075066300109,1251.075066300109,1251.075066300109,1251.075066300109,1251.075066300109,1251.075066300109,1251.075066300109,1251.075066300109,1251.075066300109,1251.075066300109,1253.5840603001416,1253.5840603001416,1253.5840603001416,1253.5840603001416,1253.5840603001416,68,60,36,60,60,59,4.0,2.6917920000851154,,,[],[],[],[],[],[],[],-0.2,3,,[],[],[],[],[],[],[],None,None,1256.3010567000601,1257.855964000104,,,,,,,,,,,,,,,,,,,,,,,,,,,,,,284,f,19,2023-04-05_13h47.30.929,RL,2022.2.4,60.14285132396947,
0,0.3,0.225,0,79,79,79,,,,,,,,,,None,1257.855964000104,1257.855964000104,1257.855964000104,1257.855964000104,1257.855964000104,1257.855964000104,r,0.3980040999595076,1258.273533000145,1258.273533000145,1258.273533000145,1258.273533000145,1258.273533000145,1258.273533000145,1258.5709478000645,1258.5709478000645,1260.5492585999891,1260.5492585999891,1260.5492585999891,1260.5492585999891,1260.5492585999891,1260.5492585999891,1260.5492585999891,1260.5492585999891,1260.5492585999891,1260.5492585999891,1260.5492585999891,1260.5492585999891,1260.5492585999891,1260.5492585999891,1260.5492585999891,1260.5492585999891,1260.5492585999891,1263.058326000115,1263.058326000115,1263.058326000115,1263.058326000115,1263.058326000115,63,67,33,58,63,53,5.0,2.6914507001638412,,,[],[],[],[],[],[],[],0.6,2,,[],[],[],[],[],[],[],None,None,1265.7774173000362,1267.5297902000602,,,,,,,,,,,,,,,,,,,,,,,,,,,,,,284,f,19,2023-04-05_13h47.30.929,RL,2022.2.4,60.14285132396947,
1,-0.3,-0.225,0,80,80,80,,,,,,,,,,None,1267.5297902000602,1267.5297902000602,1267.5297902000602,1267.5297902000602,1267.5297902000602,1267.5297902000602,j,0.31096939998678863,1267.8652689999435,1267.8652689999435,1267.8652689999435,1267.8652689999435,1267.8652689999435,1267.8652689999435,1268.1616844001692,1268.1616844001692,1269.7737851000857,1269.7737851000857,1269.7904972999822,1269.7904972999822,1269.7904972999822,1269.7904972999822,1269.7904972999822,1269.7904972999822,1269.7904972999822,1269.7904972999822,1269.7904972999822,1269.7904972999822,1269.7904972999822,1269.7904972999822,1269.7904972999822,1269.7904972999822,1269.7904972999822,1272.2993757999502,1272.2993757999502,1272.2993757999502,1272.2993757999502,1272.2993757999502,64,59,35,64,64,41,6.0,2.5751374000683427,,,[],[],[],[],[],[],[],0.2,2,,[],[],[],[],[],[],[],None,None,1274.9026703001,1276.5884342000354,,,,,,,,,,,,,,,,,,,,,,,,,,,,,,284,f,19,2023-04-05_13h47.30.929,RL,2022.2.4,60.14285132396947,
0,0.3,0.225,0,81,81,81,,,,,,,,,,None,1276.5884342000354,1276.5884342000354,1276.5884342000354,1276.5884342000354,1276.5884342000354,1276.5884342000354,f,0.33866290003061295,1276.9553261001129,1276.9553261001129,1276.9553261001129,1276.9553261001129,1276.9553261001129,1276.9553261001129,1277.2536418000236,1277.2536418000236,1278.4834986000787,1278.4834986000787,1278.4834986000787,1278.4834986000787,1278.4834986000787,1278.4834986000787,1278.4834986000787,1278.4834986000787,1278.4834986000787,1278.4834986000787,1278.4834986000787,1278.4834986000787,1278.4834986000787,1278.4834986000787,1278.4834986000787,1278.4834986000787,1278.4834986000787,,,,,,58,57,29,58,57,53,None,None,,,[],[],[],[],[],[],[],-0.6,1,72,[0.13703703703703704],[-0.3055555555555556],[1],[0],[0],[6.846062700031325],['tijiao_random_2'],8.546296296296298,2.302230300148949,1290.1835762001574,1291.9964040000923,,,,,,,,,,,1287.8633896000683,1287.8633896000683,1287.8633896000683,1287.8633896000683,1281.0035497001372,1281.0035497001372,1281.0035497001372,1281.0035497001372,1281.0035497001372,1281.0035497001372,1281.0035497001372,1281.0035497001372,0.005736399907618761,1281.0035497001372,,,,,,284,f,19,2023-04-05_13h47.30.929,RL,2022.2.4,60.14285132396947,
1,-0.3,-0.225,0,82,82,82,,,,,,,,,,None,1291.9964040000923,1291.9964040000923,1291.9964040000923,1291.9964040000923,1291.9964040000923,1291.9964040000923,r,0.2770212998148054,1292.297372699948,1292.297372699948,1292.297372699948,1292.297372699948,1292.297372699948,1292.297372699948,1292.5952014001086,1292.5952014001086,1294.4731795000844,1294.4731795000844,1294.4731795000844,1294.4731795000844,1294.4731795000844,1294.4731795000844,1294.4731795000844,1294.4731795000844,1294.4731795000844,1294.4731795000844,1294.4731795000844,1294.4731795000844,1294.4731795000844,1294.4731795000844,1294.4731795000844,1294.4731795000844,1294.4731795000844,,,,,,56,63,32,63,56,59,None,None,64,64,[0.06666666666666667],[-0.2861111111111111],[1],[0],[0],[6.138979899929836],['tijiao'],-0.6,0,,[],[],[],[],[],[],[],4.0092592592592595,3.5584970000199974,1306.72187629994,1308.2688768000808,1296.984640300041,1296.984640300041,1296.984640300041,1296.984640300041,1296.984640300041,1296.984640300041,1296.984640300041,1296.984640300041,0.0074593001045286655,1296.984640300041,1303.1447278000414,1303.1447278000414,1303.1447278000414,1303.1447278000414,,,,,,,,,,,,,,,,284,f,19,2023-04-05_13h47.30.929,RL,2022.2.4,60.14285132396947,
0,0.3,0.225,0,83,83,83,,,,,,,,,,None,1308.2688768000808,1308.2688768000808,1308.2688768000808,1308.2688768000808,1308.2688768000808,1308.2688768000808,r,0.28033660002984107,1308.570583099965,1308.570583099965,1308.570583099965,1308.570583099965,1308.570583099965,1308.570583099965,1308.8673258000053,1308.8673258000053,1310.4130055001006,1310.4130055001006,1310.4294249999803,1310.4294249999803,1310.4294249999803,1310.4294249999803,1310.4294249999803,1310.4294249999803,1310.4294249999803,1310.4294249999803,1310.4294249999803,1310.4294249999803,1310.4294249999803,1310.4294249999803,1310.4294249999803,1310.4294249999803,1310.4294249999803,1312.9385452000424,1312.9385452000424,1312.9385452000424,1312.9385452000424,1312.9385452000424,52,57,28,66,52,58,2.0,2.5425484001170844,,,[],[],[],[],[],[],[],-0.2,2,,[],[],[],[],[],[],[],None,None,1315.507675100118,1317.0447109001689,,,,,,,,,,,,,,,,,,,,,,,,,,,,,,284,f,19,2023-04-05_13h47.30.929,RL,2022.2.4,60.14285132396947,
1,-0.3,-0.225,0,84,84,84,,,,,,,,,,None,1317.0447109001689,1317.0447109001689,1317.0447109001689,1317.0447109001689,1317.0447109001689,1317.0447109001689,f,0.5814787999261171,1317.645116199972,1317.645116199972,1317.645116199972,1317.645116199972,1317.645116199972,1317.645116199972,1317.9426772999577,1317.9426772999577,1319.5382414001506,1319.5382414001506,1319.5382414001506,1319.5382414001506,1319.5382414001506,1319.5382414001506,1319.5382414001506,1319.5382414001506,1319.5382414001506,1319.5382414001506,1319.5382414001506,1319.5382414001506,1319.5382414001506,1319.5382414001506,1319.5382414001506,1319.5382414001506,1319.5382414001506,,,,,,49,56,24,65,56,59,None,None,61,61,[-0.12314814814814815],[-0.28425925925925927],[1],[0],[0],[5.2429420000407845],['tijiao'],-0.2,0,,[],[],[],[],[],[],[],7.953703703703704,1.7965264001395553,1329.127287399955,1330.8069236001465,1322.0483324001543,1322.0483324001543,1322.0483324001543,1322.0483324001543,1322.0483324001543,1322.0483324001543,1322.0483324001543,1322.0483324001543,0.00609039980918169,1322.0483324001543,1327.3117396000307,1327.3117396000307,1327.3117396000307,1327.3117396000307,,,,,,,,,,,,,,,,284,f,19,2023-04-05_13h47.30.929,RL,2022.2.4,60.14285132396947,
0,0.3,0.225,0,85,85,85,,,,,,,,,,None,1330.8069236001465,1330.8069236001465,1330.8069236001465,1330.8069236001465,1330.8069236001465,1330.8069236001465,j,0.31733609992079437,1331.1587048000656,1331.1587048000656,1331.1587048000656,1331.1587048000656,1331.1587048000656,1331.1587048000656,1331.4555945000611,1331.4555945000611,1332.6522186000366,1332.6522186000366,1332.6522186000366,1332.6522186000366,1332.6522186000366,1332.6522186000366,1332.6522186000366,1332.6522186000366,1332.6522186000366,1332.6522186000366,1332.6522186000366,1332.6522186000366,1332.6522186000366,1332.6522186000366,1332.6522186000366,1332.6522186000366,1332.6522186000366,1335.1614943000022,1335.1614943000022,1335.1614943000022,1335.1614943000022,1335.1614943000022,45,57,27,67,67,61,4.0,2.293336399830878,,,[],[],[],[],[],[],[],0.2,2,,[],[],[],[],[],[],[],None,None,1337.4816676999908,1339.3338161001448,,,,,,,,,,,,,,,,,,,,,,,,,,,,,,284,f,19,2023-04-05_13h47.30.929,RL,2022.2.4,60.14285132396947,
1,-0.3,-0.225,0,86,86,86,,,,,,,,,,None,1339.3338161001448,1339.3338161001448,1339.3338161001448,1339.3338161001448,1339.3338161001448,1339.3338161001448,j,0.2786964999977499,1339.6360325000715,1339.6360325000715,1339.6360325000715,1339.6360325000715,1339.6360325000715,1339.6360325000715,1339.932652000105,1339.932652000105,1341.627795400098,1341.627795400098,1341.627795400098,1341.627795400098,1341.627795400098,1341.627795400098,1341.627795400098,1341.627795400098,1341.627795400098,1341.627795400098,1341.627795400098,1341.627795400098,1341.627795400098,1341.627795400098,1341.627795400098,1341.627795400098,1341.627795400098,1344.1365837000776,1344.1365837000776,1344.1365837000776,1344.1365837000776,1344.1365837000776,51,51,30,59,59,61,3.0,2.592444899957627,,,[],[],[],[],[],[],[],-0.6,2,,[],[],[],[],[],[],[],None,None,1346.75309620006,1348.7415996000636,,,,,,,,,,,,,,,,,,,,,,,,,,,,,,284,f,19,2023-04-05_13h47.30.929,RL,2022.2.4,60.14285132396947,
0,0.3,0.225,0,87,87,87,,,,,,,,,,None,1348.7415996000636,1348.7415996000636,1348.7415996000636,1348.7415996000636,1348.7415996000636,1348.7415996000636,j,0.43712770007550716,1349.2084186000284,1349.2084186000284,1349.2084186000284,1349.2084186000284,1349.2084186000284,1349.2084186000284,1349.506535799941,1349.506535799941,1350.8526781999972,1350.8526781999972,1350.8526781999972,1350.8526781999972,1350.8526781999972,1350.8526781999972,1350.8526781999972,1350.8526781999972,1350.8526781999972,1350.8526781999972,1350.8526781999972,1350.8526781999972,1350.8526781999972,1350.8526781999972,1350.8526781999972,1350.8526781999972,1350.8526781999972,,,,,,53,48,25,65,65,48,None,None,67,67,[-0.05185185185185185],[-0.2916666666666667],[1],[0],[0],[4.526776999933645],['tijiao'],0.6,0,,[],[],[],[],[],[],[],7.981481481481482,3.4086488001048565,1361.3393671000376,1363.1522677000612,1353.3653409001417,1353.3653409001417,1353.3653409001417,1353.3653409001417,1353.3653409001417,1353.3653409001417,1353.3653409001417,1353.3653409001417,0.00788960000500083,1353.3653409001417,1357.9116791000124,1357.9116791000124,1357.9116791000124,1357.9116791000124,,,,,,,,,,,,,,,,284,f,19,2023-04-05_13h47.30.929,RL,2022.2.4,60.14285132396947,
1,-0.3,-0.225,0,88,88,88,,,,,,,,,,None,1363.1522677000612,1363.1522677000612,1363.1522677000612,1363.1522677000612,1363.1522677000612,1363.1522677000612,j,0.3388591001275927,1363.5203430999536,1363.5203430999536,1363.5203430999536,1363.5203430999536,1363.5203430999536,1363.5203430999536,1363.8170499000698,1363.8170499000698,1365.57892310014,1365.57892310014,1365.57892310014,1365.57892310014,1365.57892310014,1365.57892310014,1365.57892310014,1365.57892310014,1365.57892310014,1365.57892310014,1365.57892310014,1365.57892310014,1365.57892310014,1365.57892310014,1365.57892310014,1365.57892310014,1365.57892310014,,,,,,59,54,20,63,63,59,None,None,,,[],[],[],[],[],[],[],-0.6,1,73,[0.09444444444444444],[-0.30833333333333335],[1],[0],[0],[5.715518199838698],['tijiao_random_2'],4.981481481481481,1.8045259001664817,1375.6504158000462,1377.579507500166,,,,,,,,,,,1373.8273436001036,1373.8273436001036,1373.8273436001036,1373.8273436001036,1368.0983011999633,1368.0983011999633,1368.0983011999633,1368.0983011999633,1368.0983011999633,1368.0983011999633,1368.0983011999633,1368.0983011999633,0.006770600099116564,1368.0983011999633,,,,,,284,f,19,2023-04-05_13h47.30.929,RL,2022.2.4,60.14285132396947,
0,0.3,0.225,0,89,89,89,,,,,,,,,,None,1377.579507500166,1377.579507500166,1377.579507500166,1377.579507500166,1377.579507500166,1377.579507500166,r,0.2596712000668049,1377.8633720001671,1377.8633720001671,1377.8633720001671,1377.8633720001671,1377.8633720001671,1377.8633720001671,1378.1615965999663,1378.1615965999663,1379.9898386001587,1379.9898386001587,1379.9898386001587,1379.9898386001587,1379.9898386001587,1379.9898386001587,1379.9898386001587,1379.9898386001587,1379.9898386001587,1379.9898386001587,1379.9898386001587,1379.9898386001587,1379.9898386001587,1379.9898386001587,1379.9898386001587,1379.9898386001587,1379.9898386001587,1382.498803500086,1382.498803500086,1382.498803500086,1382.498803500086,1382.498803500086,57,54,26,69,57,55,2.0,2.160386099945754,,,[],[],[],[],[],[],[],0.2,2,,[],[],[],[],[],[],[],None,None,1384.685845100088,1386.272114300169,,,,,,,,,,,,,,,,,,,,,,,,,,,,,,284,f,19,2023-04-05_13h47.30.929,RL,2022.2.4,60.14285132396947,
1,-0.3,-0.225,0,90,90,90,,,,,,,,,,None,1386.272114300169,1386.272114300169,1386.272114300169,1386.272114300169,1386.272114300169,1386.272114300169,j,0.583725200034678,1386.8894970000256,1386.8894970000256,1386.8894970000256,1386.8894970000256,1386.8894970000256,1386.8894970000256,1387.1869213001337,1387.1869213001337,1388.5996612000745,1388.5996612000745,1388.5996612000745,1388.5996612000745,1388.5996612000745,1388.5996612000745,1388.5996612000745,1388.5996612000745,1388.5996612000745,1388.5996612000745,1388.5996612000745,1388.5996612000745,1388.5996612000745,1388.5996612000745,1388.5996612000745,1388.5996612000745,1388.5996612000745,1391.1088809000794,1391.1088809000794,1391.1088809000794,1391.1088809000794,1391.1088809000794,56,62,33,63,63,68,3.0,2.90769620006904,,,[],[],[],[],[],[],[],-0.6,2,,[],[],[],[],[],[],[],None,None,1394.0424055000767,1395.613557399949,,,,,,,,,,,,,,,,,,,,,,,,,,,,,,284,f,19,2023-04-05_13h47.30.929,RL,2022.2.4,60.14285132396947,
0,0.3,0.225,0,91,91,91,,,,,,,,,,None,1395.613557399949,1395.613557399949,1395.613557399949,1395.613557399949,1395.613557399949,1395.613557399949,j,0.3641783001367003,1395.998108400032,1395.998108400032,1395.998108400032,1395.998108400032,1395.998108400032,1395.998108400032,1396.2950788999442,1396.2950788999442,1398.1236250000075,1398.1236250000075,1398.1236250000075,1398.1236250000075,1398.1236250000075,1398.1236250000075,1398.1236250000075,1398.1236250000075,1398.1236250000075,1398.1236250000075,1398.1236250000075,1398.1236250000075,1398.1236250000075,1398.1236250000075,1398.1236250000075,1398.1236250000075,1398.1236250000075,1400.6327476999722,1400.6327476999722,1400.6327476999722,1400.6327476999722,1400.6327476999722,57,66,33,65,65,52,4.0,2.891504099825397,,,[],[],[],[],[],[],[],0.2,2,,[],[],[],[],[],[],[],None,None,1403.550005099969,1405.4867267000955,,,,,,,,,,,,,,,,,,,,,,,,,,,,,,284,f,19,2023-04-05_13h47.30.929,RL,2022.2.4,60.14285132396947,
