bandit,trials.thisRepN,trials.thisTrialN,trials.thisN,trials.thisIndex,instru_img1.started,instru_resp.started,instru_resp.keys,instru_resp.rt,instru_img2.started,instru_resp2.started,instru_resp2.keys,instru_resp2.rt,fixbefore_2.started,rest_response.keys,red.started,green.started,yellow.started,blue.started,choose_bandit.started,Fixation.started,choose_bandit.keys,choose_bandit.rt,black.started,red_2.started,green_2.started,yellow_2.started,blue_2.started,fixation_2.started,docs.started,image_2.started,docs.stopped,image_2.stopped,black.stopped,red_2.stopped,green_2.stopped,yellow_2.stopped,blue_2.stopped,fixation_2.stopped,black_com.started,reward_sub.started,palyerb.started,reward__sub.started,compare.started,red_compare.started,green_com.started,yellow_com.started,blue_com.started,image_3.started,slider.started,text.started,image_4.started,image_5.started,rewardyellow,rewardred,rewardblue,rewardgreen,subchoose,playerb,slider.response,slider.rt,intertrialfix.started,intertrialfix.stopped,bigx.started,bigx.stopped,rest_image.started,rest_response.started,rest_response.rt,image.started,key_resp.started,key_resp.keys,key_resp.rt,participant,Gender,Age,date,expName,psychopyVersion,frameRate,
,,,,,31.6235364000313,31.6235364000313,space,74.35568290017545,,,,,,,,,,,,,,,,,,,,,,,,,,,,,,,,,,,,,,,,,,,,,,,,,,,,,,,,,,,,,,,,101,f,18,2022-11-25_09h30.54.357,RL,2022.2.4,60.213505059725385,
,,,,,,,,,106.01339490013197,106.01339490013197,space,33.64320749999024,,,,,,,,,,,,,,,,,,,,,,,,,,,,,,,,,,,,,,,,,,,,,,,,,,,,,,,,,,,,101,f,18,2022-11-25_09h30.54.357,RL,2022.2.4,60.213505059725385,
1,0,0,0,0,,,,,,,,,139.67421900015324,None,140.70398700004444,140.70398700004444,140.70398700004444,140.70398700004444,140.70398700004444,140.70398700004444,r,0.907094300026074,141.7130997001659,141.7130997001659,141.7130997001659,141.7130997001659,141.7130997001659,141.7130997001659,141.9357172001619,141.9357172001619,143.13209050009027,143.13209050009027,143.22946230019443,143.22946230019443,143.22946230019443,143.22946230019443,143.22946230019443,143.22946230019443,143.22946230019443,143.22946230019443,143.22946230019443,143.22946230019443,143.22946230019443,143.22946230019443,143.22946230019443,143.22946230019443,143.22946230019443,145.72484190016985,145.72484190016985,145.72484190016985,145.72484190016985,145.72484190016985,71,27,46,54,71,52,5.0,3.9221306999679655,149.77487750002183,151.29245590022765,,,,,,,,,,101,f,18,2022-11-25_09h30.54.357,RL,2022.2.4,60.213505059725385,
1,1,0,1,0,,,,,,,,,,None,151.29245590022765,151.29245590022765,151.29245590022765,151.29245590022765,151.29245590022765,151.29245590022765,i,1.0918805999681354,152.40806210017763,152.40806210017763,152.40806210017763,152.40806210017763,152.40806210017763,152.40806210017763,152.7062308001332,152.7062308001332,154.64060660009272,154.64060660009272,154.64060660009272,154.64060660009272,154.64060660009272,154.64060660009272,154.64060660009272,154.64060660009272,154.64060660009272,154.64060660009272,154.64060660009272,154.64060660009272,154.64060660009272,154.64060660009272,154.64060660009272,154.64060660009272,154.64060660009272,157.14307110011578,157.14307110011578,157.14307110011578,157.14307110011578,157.14307110011578,67,33,44,50,44,70,3.0,3.2907163000199944,160.45072320010513,162.3461968000047,,,,,,,,,,101,f,18,2022-11-25_09h30.54.357,RL,2022.2.4,60.213505059725385,
1,2,0,2,0,,,,,,,,,,None,162.3461968000047,162.3461968000047,162.3461968000047,162.3461968000047,162.3461968000047,162.3461968000047,r,0.7582488001789898,163.13043260015547,163.13043260015547,163.13043260015547,163.13043260015547,163.13043260015547,163.13043260015547,163.42709500016645,163.42709500016645,164.32465620012954,164.32465620012954,164.32465620012954,164.32465620012954,164.32465620012954,164.32465620012954,164.32465620012954,164.32465620012954,164.32465620012954,164.32465620012954,164.32465620012954,164.32465620012954,164.32465620012954,164.32465620012954,164.32465620012954,164.32465620012954,164.32465620012954,166.83338600001298,166.83338600001298,166.83338600001298,166.83338600001298,166.83338600001298,71,27,37,53,71,39,5.0,2.343708800151944,169.19402440008707,170.98950110003352,,,,,,,,,,101,f,18,2022-11-25_09h30.54.357,RL,2022.2.4,60.213505059725385,
1,3,0,3,0,,,,,,,,,,None,170.98950110003352,170.98950110003352,170.98950110003352,170.98950110003352,170.98950110003352,170.98950110003352,r,0.6518550999462605,171.67135540000163,171.67135540000163,171.67135540000163,171.67135540000163,171.67135540000163,171.67135540000163,171.9701746001374,171.9701746001374,173.63309760019183,173.63309760019183,173.63309760019183,173.63309760019183,173.63309760019183,173.63309760019183,173.63309760019183,173.63309760019183,173.63309760019183,173.63309760019183,173.63309760019183,173.63309760019183,173.63309760019183,173.63309760019183,173.63309760019183,173.63309760019183,173.63309760019183,176.1410623001866,176.1410623001866,176.1410623001866,176.1410623001866,176.1410623001866,69,33,42,54,69,60,5.0,2.0439667999744415,178.20220560021698,179.7322814001236,,,,,,,,,,101,f,18,2022-11-25_09h30.54.357,RL,2022.2.4,60.213505059725385,
1,4,0,4,0,,,,,,,,,,None,179.7322814001236,179.7322814001236,179.7322814001236,179.7322814001236,179.7322814001236,179.7322814001236,f,0.43614489980973303,180.20134560018778,180.20134560018778,180.20134560018778,180.20134560018778,180.20134560018778,180.20134560018778,180.49717350001447,180.49717350001447,181.6106816001702,181.6106816001702,181.6106816001702,181.6106816001702,181.6106816001702,181.6106816001702,181.6106816001702,181.6106816001702,181.6106816001702,181.6106816001702,181.6106816001702,181.6106816001702,181.6106816001702,181.6106816001702,181.6106816001702,181.6106816001702,181.6106816001702,184.12023060000502,184.12023060000502,184.12023060000502,184.12023060000502,184.12023060000502,74,34,53,53,34,54,4.0,2.1108124000020325,186.2470115001779,188.10911570000462,,,,,,,,,,101,f,18,2022-11-25_09h30.54.357,RL,2022.2.4,60.213505059725385,
1,5,0,5,0,,,,,,,,,,None,188.10911570000462,188.10911570000462,188.10911570000462,188.10911570000462,188.10911570000462,188.10911570000462,r,0.700922799995169,188.84619410010055,188.84619410010055,188.84619410010055,188.84619410010055,188.84619410010055,188.84619410010055,189.140015500132,189.140015500132,190.4863772999961,190.4863772999961,190.4863772999961,190.4863772999961,190.4863772999961,190.4863772999961,190.4863772999961,190.4863772999961,190.4863772999961,190.4863772999961,190.4863772999961,190.4863772999961,190.4863772999961,190.4863772999961,190.4863772999961,190.4863772999961,190.4863772999961,192.99543910007924,192.99543910007924,192.99543910007924,192.99543910007924,192.99543910007924,65,31,45,47,65,67,4.0,2.409040099941194,195.42178670014255,197.26744150021113,,,,,,,,,,101,f,18,2022-11-25_09h30.54.357,RL,2022.2.4,60.213505059725385,
1,6,0,6,0,,,,,,,,,,None,197.26744150021113,197.26744150021113,197.26744150021113,197.26744150021113,197.26744150021113,197.26744150021113,j,0.6681047999300063,197.96662740013562,197.96662740013562,197.96662740013562,197.96662740013562,197.96662740013562,197.96662740013562,198.26511090015993,198.26511090015993,200.11017300002277,200.11017300002277,200.11017300002277,200.11017300002277,200.11017300002277,200.11017300002277,200.11017300002277,200.11017300002277,200.11017300002277,200.11017300002277,200.11017300002277,200.11017300002277,200.11017300002277,200.11017300002277,200.11017300002277,200.11017300002277,200.11017300002277,202.61919180001132,202.61919180001132,202.61919180001132,202.61919180001132,202.61919180001132,75,43,47,43,43,39,6.0,1.5800658001098782,204.2146171000786,205.7618262001779,,,,,,,,,,101,f,18,2022-11-25_09h30.54.357,RL,2022.2.4,60.213505059725385,
1,7,0,7,0,,,,,,,,,,None,205.7618262001779,205.7618262001779,205.7618262001779,205.7618262001779,205.7618262001779,205.7618262001779,i,1.1052242000587285,206.89260050002486,206.89260050002486,206.89260050002486,206.89260050002486,206.89260050002486,206.89260050002486,207.17403080011718,207.17403080011718,208.93563170009293,208.93563170009293,208.95238580019213,208.95238580019213,208.95238580019213,208.95238580019213,208.95238580019213,208.95238580019213,208.95238580019213,208.95238580019213,208.95238580019213,208.95238580019213,208.95238580019213,208.95238580019213,208.95238580019213,208.95238580019213,208.95238580019213,211.46169790020213,211.46169790020213,211.46169790020213,211.46169790020213,211.46169790020213,66,36,51,41,51,55,4.0,2.609377200016752,214.0881468001753,215.8001976001542,,,,,,,,,,101,f,18,2022-11-25_09h30.54.357,RL,2022.2.4,60.213505059725385,
1,8,0,8,0,,,,,,,,,,None,215.8001976001542,215.8001976001542,215.8001976001542,215.8001976001542,215.8001976001542,215.8001976001542,f,0.7778223000932485,216.59916610014625,216.59916610014625,216.59916610014625,216.59916610014625,216.59916610014625,216.59916610014625,216.89760380005464,216.89760380005464,218.14417139999568,218.14417139999568,218.14417139999568,218.14417139999568,218.14417139999568,218.14417139999568,218.14417139999568,218.14417139999568,218.14417139999568,218.14417139999568,218.14417139999568,218.14417139999568,218.14417139999568,218.14417139999568,218.14417139999568,218.14417139999568,218.14417139999568,220.65311390021816,220.65311390021816,220.65311390021816,220.65311390021816,220.65311390021816,72,35,52,39,35,51,3.0,2.32543190009892,222.99680780014023,224.92531810002401,,,,,,,,,,101,f,18,2022-11-25_09h30.54.357,RL,2022.2.4,60.213505059725385,
1,9,0,9,0,,,,,,,,,,None,224.92531810002401,224.92531810002401,224.92531810002401,224.92531810002401,224.92531810002401,224.92531810002401,r,0.5895905001088977,225.54179190006107,225.54179190006107,225.54179190006107,225.54179190006107,225.54179190006107,225.54179190006107,225.83997120009735,225.83997120009735,227.3206308002118,227.3206308002118,227.3206308002118,227.3206308002118,227.3206308002118,227.3206308002118,227.3206308002118,227.3206308002118,227.3206308002118,227.3206308002118,227.3206308002118,227.3206308002118,227.3206308002118,227.3206308002118,227.3206308002118,227.3206308002118,227.3206308002118,229.82823000010103,229.82823000010103,229.82823000010103,229.82823000010103,229.82823000010103,72,45,47,39,72,50,6.0,3.1240691000130028,232.9697205000557,234.89844870008528,,,,,,,,,,101,f,18,2022-11-25_09h30.54.357,RL,2022.2.4,60.213505059725385,
1,10,0,10,0,,,,,,,,,,None,234.89844870008528,234.89844870008528,234.89844870008528,234.89844870008528,234.89844870008528,234.89844870008528,f,0.7275384999811649,235.64805910014547,235.64805910014547,235.64805910014547,235.64805910014547,235.64805910014547,235.64805910014547,235.94613310019486,235.94613310019486,237.32556840009056,237.32556840009056,237.32556840009056,237.32556840009056,237.32556840009056,237.32556840009056,237.32556840009056,237.32556840009056,237.32556840009056,237.32556840009056,237.32556840009056,237.32556840009056,237.32556840009056,237.32556840009056,237.32556840009056,237.32556840009056,237.32556840009056,239.8343663001433,239.8343663001433,239.8343663001433,239.8343663001433,239.8343663001433,68,54,54,36,54,40,6.0,1.1798680999781936,241.03100950014777,242.71039010002278,,,,,,,,,,101,f,18,2022-11-25_09h30.54.357,RL,2022.2.4,60.213505059725385,
1,11,0,11,0,,,,,,,,,,None,242.71039010002278,242.71039010002278,242.71039010002278,242.71039010002278,242.71039010002278,242.71039010002278,i,1.0375203001312912,243.7752410999965,243.7752410999965,243.7752410999965,243.7752410999965,243.7752410999965,243.7752410999965,244.07380500016734,244.07380500016734,245.70184180000797,245.70184180000797,245.70184180000797,245.70184180000797,245.70184180000797,245.70184180000797,245.70184180000797,245.70184180000797,245.70184180000797,245.70184180000797,245.70184180000797,245.70184180000797,245.70184180000797,245.70184180000797,245.70184180000797,245.70184180000797,245.70184180000797,248.21113840001635,248.21113840001635,248.21113840001635,248.21113840001635,248.21113840001635,71,52,53,31,53,54,5.0,1.927252200199291,250.15628400002606,251.9186544001568,,,,,,,,,,101,f,18,2022-11-25_09h30.54.357,RL,2022.2.4,60.213505059725385,
1,12,0,12,0,,,,,,,,,,None,251.9186544001568,251.9186544001568,251.9186544001568,251.9186544001568,251.9186544001568,251.9186544001568,r,0.600602800026536,252.55106220021844,252.55106220021844,252.55106220021844,252.55106220021844,252.55106220021844,252.55106220021844,252.85018930002116,252.85018930002116,254.81082540005445,254.81082540005445,254.81082540005445,254.81082540005445,254.81082540005445,254.81082540005445,254.81082540005445,254.81082540005445,254.81082540005445,254.81082540005445,254.81082540005445,254.81082540005445,254.81082540005445,254.81082540005445,254.81082540005445,254.81082540005445,254.81082540005445,257.3199136001058,257.3199136001058,257.3199136001058,257.3199136001058,257.3199136001058,78,54,55,33,78,53,5.0,2.209533400135115,259.5472065000795,261.39308790001087,,,,,,,,,,101,f,18,2022-11-25_09h30.54.357,RL,2022.2.4,60.213505059725385,
1,13,0,13,0,,,,,,,,,,None,261.39308790001087,261.39308790001087,261.39308790001087,261.39308790001087,261.39308790001087,261.39308790001087,r,0.6429919998627156,262.06104790000245,262.06104790000245,262.06104790000245,262.06104790000245,262.06104790000245,262.06104790000245,262.35702130012214,262.35702130012214,263.7035212002229,263.7035212002229,263.7200899000745,263.7200899000745,263.7200899000745,263.7200899000745,263.7200899000745,263.7200899000745,263.7200899000745,263.7200899000745,263.7200899000745,263.7200899000745,263.7200899000745,263.7200899000745,263.7200899000745,263.7200899000745,263.7200899000745,266.22872750018723,266.22872750018723,266.22872750018723,266.22872750018723,266.22872750018723,77,48,52,34,77,64,6.0,2.243394099874422,268.4892650002148,270.2847679001279,,,,,,,,,,101,f,18,2022-11-25_09h30.54.357,RL,2022.2.4,60.213505059725385,
1,14,0,14,0,,,,,,,,,,None,270.2847679001279,270.2847679001279,270.2847679001279,270.2847679001279,270.2847679001279,270.2847679001279,r,0.866912400117144,271.1842225000728,271.1842225000728,271.1842225000728,271.1842225000728,271.1842225000728,271.1842225000728,271.4820460001938,271.4820460001938,272.84476390015334,272.84476390015334,272.84476390015334,272.84476390015334,272.84476390015334,272.84476390015334,272.84476390015334,272.84476390015334,272.84476390015334,272.84476390015334,272.84476390015334,272.84476390015334,272.84476390015334,272.84476390015334,272.84476390015334,272.84476390015334,272.84476390015334,275.35425090021454,275.35425090021454,275.35425090021454,275.35425090021454,275.35425090021454,75,44,42,38,75,57,6.0,0.9977963999845088,276.3679122000467,278.329797900049,,,,,,,,,,101,f,18,2022-11-25_09h30.54.357,RL,2022.2.4,60.213505059725385,
1,15,0,15,0,,,,,,,,,,None,278.329797900049,278.329797900049,278.329797900049,278.329797900049,278.329797900049,278.329797900049,f,0.7501071998849511,279.113254400203,279.113254400203,279.113254400203,279.113254400203,279.113254400203,279.113254400203,279.41035070014186,279.41035070014186,280.3245254000649,280.3245254000649,280.3245254000649,280.3245254000649,280.3245254000649,280.3245254000649,280.3245254000649,280.3245254000649,280.3245254000649,280.3245254000649,280.3245254000649,280.3245254000649,280.3245254000649,280.3245254000649,280.3245254000649,280.3245254000649,280.3245254000649,282.8339156000875,282.8339156000875,282.8339156000875,282.8339156000875,282.8339156000875,74,40,45,35,40,63,6.0,1.2792585000861436,284.1298692000564,285.90899710007943,,,,,,,,,,101,f,18,2022-11-25_09h30.54.357,RL,2022.2.4,60.213505059725385,
1,16,0,16,0,,,,,,,,,,None,285.90899710007943,285.90899710007943,285.90899710007943,285.90899710007943,285.90899710007943,285.90899710007943,None,,,,,,,,,,,,,,,,,,,,,,,,,,,,,,,,74,44,42,27,0,**,None,None,291.9419460000936,293.6545155001804,287.4295747000724,291.9419460000936,,,,,,,,101,f,18,2022-11-25_09h30.54.357,RL,2022.2.4,60.213505059725385,
1,17,0,17,0,,,,,,,,,,None,293.6545155001804,293.6545155001804,293.6545155001804,293.6545155001804,293.6545155001804,293.6545155001804,i,1.4255858000833541,295.10393880004995,295.10393880004995,295.10393880004995,295.10393880004995,295.10393880004995,295.10393880004995,295.3999899001792,295.3999899001792,297.1457688000519,297.1457688000519,297.1457688000519,297.1457688000519,297.1457688000519,297.1457688000519,297.1457688000519,297.1457688000519,297.1457688000519,297.1457688000519,297.1457688000519,297.1457688000519,297.1457688000519,297.1457688000519,297.1457688000519,297.1457688000519,297.1457688000519,299.6545460000634,299.6545460000634,299.6545460000634,299.6545460000634,299.6545460000634,77,41,42,35,42,56,3.0,2.0776152999605983,301.7489129002206,303.2949589001946,,,,,,,,,,101,f,18,2022-11-25_09h30.54.357,RL,2022.2.4,60.213505059725385,
1,18,0,18,0,,,,,,,,,,None,303.2949589001946,303.2949589001946,303.2949589001946,303.2949589001946,303.2949589001946,303.2949589001946,r,0.36815820005722344,303.69510050001554,303.69510050001554,303.69510050001554,303.69510050001554,303.69510050001554,303.69510050001554,303.99406270007603,303.99406270007603,305.72204040014185,305.72204040014185,305.72204040014185,305.72204040014185,305.72204040014185,305.72204040014185,305.72204040014185,305.72204040014185,305.72204040014185,305.72204040014185,305.72204040014185,305.72204040014185,305.72204040014185,305.72204040014185,305.72204040014185,305.72204040014185,305.72204040014185,308.2311475002207,308.2311475002207,308.2311475002207,308.2311475002207,308.2311475002207,64,39,46,33,64,68,3.0,2.143881200114265,310.39165900019,312.10459180013277,,,,,,,,,,101,f,18,2022-11-25_09h30.54.357,RL,2022.2.4,60.213505059725385,
1,19,0,19,0,,,,,,,,,,None,312.10459180013277,312.10459180013277,312.10459180013277,312.10459180013277,312.10459180013277,312.10459180013277,r,0.4297009001020342,312.5559869001154,312.5559869001154,312.5559869001154,312.5559869001154,312.5559869001154,312.5559869001154,312.8524823000189,312.8524823000189,314.3315606000833,314.3315606000833,314.3315606000833,314.3315606000833,314.3315606000833,314.3315606000833,314.3315606000833,314.3315606000833,314.3315606000833,314.3315606000833,314.3315606000833,314.3315606000833,314.3315606000833,314.3315606000833,314.3315606000833,314.3315606000833,314.3315606000833,316.84100870019756,316.84100870019756,316.84100870019756,316.84100870019756,316.84100870019756,66,40,52,27,66,72,2.0,2.3927735998295248,319.25083640008233,320.9467704000417,,,,,,,,,,101,f,18,2022-11-25_09h30.54.357,RL,2022.2.4,60.213505059725385,
1,20,0,20,0,,,,,,,,,,None,320.9467704000417,320.9467704000417,320.9467704000417,320.9467704000417,320.9467704000417,320.9467704000417,r,0.694803899852559,321.66415660013445,321.66415660013445,321.66415660013445,321.66415660013445,321.66415660013445,321.66415660013445,321.9610685000662,321.9610685000662,322.9414588001091,322.9414588001091,322.9414588001091,322.9414588001091,322.9414588001091,322.9414588001091,322.9414588001091,322.9414588001091,322.9414588001091,322.9414588001091,322.9414588001091,322.9414588001091,322.9414588001091,322.9414588001091,322.9414588001091,322.9414588001091,322.9414588001091,325.450765500078,325.450765500078,325.450765500078,325.450765500078,325.450765500078,59,43,57,23,59,46,5.0,1.42830799985677,326.8966019002255,328.47626020014286,,,,,,,,,,101,f,18,2022-11-25_09h30.54.357,RL,2022.2.4,60.213505059725385,
1,21,0,21,0,,,,,,,,,,None,328.47626020014286,328.47626020014286,328.47626020014286,328.47626020014286,328.47626020014286,328.47626020014286,r,0.7335969998966902,329.2412056000903,329.2412056000903,329.2412056000903,329.2412056000903,329.2412056000903,329.2412056000903,329.5402250001207,329.5402250001207,330.7036694001872,330.7036694001872,330.7036694001872,330.7036694001872,330.7036694001872,330.7036694001872,330.7036694001872,330.7036694001872,330.7036694001872,330.7036694001872,330.7036694001872,330.7036694001872,330.7036694001872,330.7036694001872,330.7036694001872,330.7036694001872,330.7036694001872,333.2128068001475,333.2128068001475,333.2128068001475,333.2128068001475,333.2128068001475,66,45,65,22,66,71,4.0,2.110825899988413,335.3404282000847,336.85360060003586,,,,,,,,,,101,f,18,2022-11-25_09h30.54.357,RL,2022.2.4,60.213505059725385,
1,22,0,22,0,,,,,,,,,,None,336.85360060003586,336.85360060003586,336.85360060003586,336.85360060003586,336.85360060003586,336.85360060003586,f,0.34263539989478886,337.2205712001305,337.2205712001305,337.2205712001305,337.2205712001305,337.2205712001305,337.2205712001305,337.5185621001292,337.5185621001292,338.34944440005347,338.34944440005347,338.34944440005347,338.34944440005347,338.34944440005347,338.34944440005347,338.34944440005347,338.34944440005347,338.34944440005347,338.34944440005347,338.34944440005347,338.34944440005347,338.34944440005347,338.34944440005347,338.34944440005347,338.34944440005347,338.34944440005347,340.8586808000691,340.8586808000691,340.8586808000691,340.8586808000691,340.8586808000691,63,46,55,21,46,51,3.0,1.344952399842441,342.22158450004645,344.08346710004844,,,,,,,,,,101,f,18,2022-11-25_09h30.54.357,RL,2022.2.4,60.213505059725385,
1,23,0,23,0,,,,,,,,,,None,344.08346710004844,344.08346710004844,344.08346710004844,344.08346710004844,344.08346710004844,344.08346710004844,r,0.5561512999702245,344.66625800007023,344.66625800007023,344.66625800007023,344.66625800007023,344.66625800007023,344.66625800007023,344.9649346000515,344.9649346000515,345.9620035002008,345.9620035002008,345.9620035002008,345.9620035002008,345.9620035002008,345.9620035002008,345.9620035002008,345.9620035002008,345.9620035002008,345.9620035002008,345.9620035002008,345.9620035002008,345.9620035002008,345.9620035002008,345.9620035002008,345.9620035002008,345.9620035002008,348.47124790004455,348.47124790004455,348.47124790004455,348.47124790004455,348.47124790004455,55,42,56,27,55,44,5.0,1.811463100137189,350.2993500002194,352.14621080015786,,,,,,,,,,101,f,18,2022-11-25_09h30.54.357,RL,2022.2.4,60.213505059725385,
1,24,0,24,0,,,,,,,,,,None,352.14621080015786,352.14621080015786,352.14621080015786,352.14621080015786,352.14621080015786,352.14621080015786,r,0.8206899999640882,352.9944842001423,352.9944842001423,352.9944842001423,352.9944842001423,352.9944842001423,352.9944842001423,353.29217880009674,353.29217880009674,354.97085180017166,354.97085180017166,354.97085180017166,354.97085180017166,354.97085180017166,354.97085180017166,354.97085180017166,354.97085180017166,354.97085180017166,354.97085180017166,354.97085180017166,354.97085180017166,354.97085180017166,354.97085180017166,354.97085180017166,354.97085180017166,354.97085180017166,357.47986480011605,357.47986480011605,357.47986480011605,357.47986480011605,357.47986480011605,54,36,45,25,54,56,4.0,2.55903959996067,360.05636500008404,361.9521799001377,,,,,,,,,,101,f,18,2022-11-25_09h30.54.357,RL,2022.2.4,60.213505059725385,
1,25,0,25,0,,,,,,,,,,None,361.9521799001377,361.9521799001377,361.9521799001377,361.9521799001377,361.9521799001377,361.9521799001377,f,0.5258512001018971,362.5013183001429,362.5013183001429,362.5013183001429,362.5013183001429,362.5013183001429,362.5013183001429,362.79955550003797,362.79955550003797,364.5946230001282,364.5946230001282,364.6112436000258,364.6112436000258,364.6112436000258,364.6112436000258,364.6112436000258,364.6112436000258,364.6112436000258,364.6112436000258,364.6112436000258,364.6112436000258,364.6112436000258,364.6112436000258,364.6112436000258,364.6112436000258,364.6112436000258,367.1203155000694,367.1203155000694,367.1203155000694,367.1203155000694,367.1203155000694,40,27,49,39,27,67,2.0,2.4932033999357373,369.63016850012355,371.62523460015655,,,,,,,,,,101,f,18,2022-11-25_09h30.54.357,RL,2022.2.4,60.213505059725385,
1,26,0,26,0,,,,,,,,,,None,371.62523460015655,371.62523460015655,371.62523460015655,371.62523460015655,371.62523460015655,371.62523460015655,i,0.5991392000578344,372.258558700094,372.258558700094,372.258558700094,372.258558700094,372.258558700094,372.258558700094,372.55657590017654,372.55657590017654,374.30138890002854,374.30138890002854,374.30138890002854,374.30138890002854,374.30138890002854,374.30138890002854,374.30138890002854,374.30138890002854,374.30138890002854,374.30138890002854,374.30138890002854,374.30138890002854,374.30138890002854,374.30138890002854,374.30138890002854,374.30138890002854,374.30138890002854,376.8105990001932,376.8105990001932,376.8105990001932,376.8105990001932,376.8105990001932,53,39,50,34,50,52,3.0,1.8965953001752496,378.72214900003746,380.51771030016243,,,,,,,,,,101,f,18,2022-11-25_09h30.54.357,RL,2022.2.4,60.213505059725385,
1,27,0,27,0,,,,,,,,,,None,380.51771030016243,380.51771030016243,380.51771030016243,380.51771030016243,380.51771030016243,380.51771030016243,j,0.3786553000099957,380.918777000159,380.918777000159,380.918777000159,380.918777000159,380.918777000159,380.918777000159,381.21620430005714,381.21620430005714,383.1274450002238,383.1274450002238,383.1439908000175,383.1439908000175,383.1439908000175,383.1439908000175,383.1439908000175,383.1439908000175,383.1439908000175,383.1439908000175,383.1439908000175,383.1439908000175,383.1439908000175,383.1439908000175,383.1439908000175,383.1439908000175,383.1439908000175,385.6531106000766,385.6531106000766,385.6531106000766,385.6531106000766,385.6531106000766,57,49,51,30,30,44,3.0,1.331101099960506,386.99917020020075,388.97782810009085,,,,,,,,,,101,f,18,2022-11-25_09h30.54.357,RL,2022.2.4,60.213505059725385,
1,28,0,28,0,,,,,,,,,,None,388.97782810009085,388.97782810009085,388.97782810009085,388.97782810009085,388.97782810009085,388.97782810009085,r,0.6498655998148024,389.647910800064,389.647910800064,389.647910800064,389.647910800064,389.647910800064,389.647910800064,389.94214010005817,389.94214010005817,391.88750930014066,391.88750930014066,391.9034082000144,391.9034082000144,391.9034082000144,391.9034082000144,391.9034082000144,391.9034082000144,391.9034082000144,391.9034082000144,391.9034082000144,391.9034082000144,391.9034082000144,391.9034082000144,391.9034082000144,391.9034082000144,391.9034082000144,394.412593500223,394.412593500223,394.412593500223,394.412593500223,394.412593500223,54,44,47,30,54,46,5.0,2.043473399942741,396.473663300043,398.46895530004986,,,,,,,,,,101,f,18,2022-11-25_09h30.54.357,RL,2022.2.4,60.213505059725385,
1,29,0,29,0,,,,,,,,,,None,398.46895530004986,398.46895530004986,398.46895530004986,398.46895530004986,398.46895530004986,398.46895530004986,r,0.4248710998799652,398.91806980012916,398.91806980012916,398.91806980012916,398.91806980012916,398.91806980012916,398.91806980012916,399.2168310000561,399.2168310000561,400.1808252001647,400.1808252001647,400.1808252001647,400.1808252001647,400.1808252001647,400.1808252001647,400.1808252001647,400.1808252001647,400.1808252001647,400.1808252001647,400.1808252001647,400.1808252001647,400.1808252001647,400.1808252001647,400.1808252001647,400.1808252001647,400.1808252001647,402.690058800159,402.690058800159,402.690058800159,402.690058800159,402.690058800159,59,37,42,34,59,65,3.0,2.673242900054902,405.38248200016096,407.36096760001965,,,,,,,,,,101,f,18,2022-11-25_09h30.54.357,RL,2022.2.4,60.213505059725385,
1,30,0,30,0,,,,,,,,,,None,407.36096760001965,407.36096760001965,407.36096760001965,407.36096760001965,407.36096760001965,407.36096760001965,r,0.49940450000576675,407.8785335000139,407.8785335000139,407.8785335000139,407.8785335000139,407.8785335000139,407.8785335000139,408.17580830003135,408.17580830003135,409.4734505000524,409.4734505000524,409.48905550013296,409.48905550013296,409.48905550013296,409.48905550013296,409.48905550013296,409.48905550013296,409.48905550013296,409.48905550013296,409.48905550013296,409.48905550013296,409.48905550013296,409.48905550013296,409.48905550013296,409.48905550013296,409.48905550013296,411.99785919999704,411.99785919999704,411.99785919999704,411.99785919999704,411.99785919999704,67,46,37,27,67,62,5.0,1.9452023999765515,413.9591917002108,415.7881687001791,,,,,,,,,,101,f,18,2022-11-25_09h30.54.357,RL,2022.2.4,60.213505059725385,
1,31,0,31,0,,,,,,,,,,None,415.7881687001791,415.7881687001791,415.7881687001791,415.7881687001791,415.7881687001791,415.7881687001791,f,0.4446236998774111,416.25464350008406,416.25464350008406,416.25464350008406,416.25464350008406,416.25464350008406,416.25464350008406,416.553052400006,416.553052400006,418.2149599001277,418.2149599001277,418.2149599001277,418.2149599001277,418.2149599001277,418.2149599001277,418.2149599001277,418.2149599001277,418.2149599001277,418.2149599001277,418.2149599001277,418.2149599001277,418.2149599001277,418.2149599001277,418.2149599001277,418.2149599001277,418.2149599001277,420.72418290004134,420.72418290004134,420.72418290004134,420.72418290004134,420.72418290004134,61,37,49,30,37,49,4.0,1.6780803999863565,422.4195033002179,424.36446050019003,,,,,,,,,,101,f,18,2022-11-25_09h30.54.357,RL,2022.2.4,60.213505059725385,
1,32,0,32,0,,,,,,,,,,None,424.36446050019003,424.36446050019003,424.36446050019003,424.36446050019003,424.36446050019003,424.36446050019003,r,0.7899199998937547,425.182554300176,425.182554300176,425.182554300176,425.182554300176,425.182554300176,425.182554300176,425.4786580000073,425.4786580000073,426.4094756001141,426.4094756001141,426.425876500085,426.425876500085,426.425876500085,426.425876500085,426.425876500085,426.425876500085,426.425876500085,426.425876500085,426.425876500085,426.425876500085,426.425876500085,426.425876500085,426.425876500085,426.425876500085,426.425876500085,428.9350843001157,428.9350843001157,428.9350843001157,428.9350843001157,428.9350843001157,62,43,42,24,62,50,4.0,1.8436575001105666,430.7965811002068,432.39323310018517,,,,,,,,,,101,f,18,2022-11-25_09h30.54.357,RL,2022.2.4,60.213505059725385,
1,33,0,33,0,,,,,,,,,,None,432.39323310018517,432.39323310018517,432.39323310018517,432.39323310018517,432.39323310018517,432.39323310018517,r,0.46815579989925027,432.8920812001452,432.8920812001452,432.8920812001452,432.8920812001452,432.8920812001452,432.8920812001452,433.19079010002315,433.19079010002315,434.12154330010526,434.12154330010526,434.12154330010526,434.12154330010526,434.12154330010526,434.12154330010526,434.12154330010526,434.12154330010526,434.12154330010526,434.12154330010526,434.12154330010526,434.12154330010526,434.12154330010526,434.12154330010526,434.12154330010526,434.12154330010526,434.12154330010526,436.6307443000842,436.6307443000842,436.6307443000842,436.6307443000842,436.6307443000842,55,44,42,25,55,68,3.0,1.2620971000287682,437.9104215002153,439.4733887000475,,,,,,,,,,101,f,18,2022-11-25_09h30.54.357,RL,2022.2.4,60.213505059725385,
1,34,0,34,0,,,,,,,,,,None,439.4733887000475,439.4733887000475,439.4733887000475,439.4733887000475,439.4733887000475,439.4733887000475,r,0.6173145999200642,440.1286890001502,440.1286890001502,440.1286890001502,440.1286890001502,440.1286890001502,440.1286890001502,440.4211011000443,440.4211011000443,441.91684940014966,441.91684940014966,441.93347980012186,441.93347980012186,441.93347980012186,441.93347980012186,441.93347980012186,441.93347980012186,441.93347980012186,441.93347980012186,441.93347980012186,441.93347980012186,441.93347980012186,441.93347980012186,441.93347980012186,441.93347980012186,441.93347980012186,444.44262560014613,444.44262560014613,444.44262560014613,444.44262560014613,444.44262560014613,52,47,44,31,52,63,2.0,1.1622556000947952,445.6226193001494,447.5681239000987,,,,,,,,,,101,f,18,2022-11-25_09h30.54.357,RL,2022.2.4,60.213505059725385,
1,35,0,35,0,,,,,,,,,,None,447.5681239000987,447.5681239000987,447.5681239000987,447.5681239000987,447.5681239000987,447.5681239000987,j,0.5604393999092281,448.150558100082,448.150558100082,448.150558100082,448.150558100082,448.150558100082,448.150558100082,448.44917420018464,448.44917420018464,449.9117738001514,449.9117738001514,449.9117738001514,449.9117738001514,449.9117738001514,449.9117738001514,449.9117738001514,449.9117738001514,449.9117738001514,449.9117738001514,449.9117738001514,449.9117738001514,449.9117738001514,449.9117738001514,449.9117738001514,449.9117738001514,449.9117738001514,452.42091990006156,452.42091990006156,452.42091990006156,452.42091990006156,452.42091990006156,55,48,44,37,37,51,2.0,2.110023000044748,454.54835950001143,456.36054720007814,,,,,,,,,,101,f,18,2022-11-25_09h30.54.357,RL,2022.2.4,60.213505059725385,
1,36,0,36,0,,,,,,,,,,None,456.36054720007814,456.36054720007814,456.36054720007814,456.36054720007814,456.36054720007814,456.36054720007814,r,0.44520259997807443,456.82893760013394,456.82893760013394,456.82893760013394,456.82893760013394,456.82893760013394,456.82893760013394,457.1257770000957,457.1257770000957,458.78765370021574,458.78765370021574,458.78765370021574,458.78765370021574,458.78765370021574,458.78765370021574,458.78765370021574,458.78765370021574,458.78765370021574,458.78765370021574,458.78765370021574,458.78765370021574,458.78765370021574,458.78765370021574,458.78765370021574,458.78765370021574,458.78765370021574,461.2966517000459,461.2966517000459,461.2966517000459,461.2966517000459,461.2966517000459,56,51,57,40,56,48,5.0,1.245965699898079,462.55997660011053,464.073243400082,,,,,,,,,,101,f,18,2022-11-25_09h30.54.357,RL,2022.2.4,60.213505059725385,
1,37,0,37,0,,,,,,,,,,None,464.073243400082,464.073243400082,464.073243400082,464.073243400082,464.073243400082,464.073243400082,f,0.5395561000332236,464.64161070017144,464.64161070017144,464.64161070017144,464.64161070017144,464.64161070017144,464.64161070017144,464.9376185000874,464.9376185000874,466.30028600012884,466.30028600012884,466.3171087000519,466.3171087000519,466.3171087000519,466.3171087000519,466.3171087000519,466.3171087000519,466.3171087000519,466.3171087000519,466.3171087000519,466.3171087000519,466.3171087000519,466.3171087000519,466.3171087000519,466.3171087000519,466.3171087000519,468.8260782000143,468.8260782000143,468.8260782000143,468.8260782000143,468.8260782000143,57,41,45,30,41,58,3.0,2.6091962999198586,471.4523300000001,473.082078400068,,,,,,,,,,101,f,18,2022-11-25_09h30.54.357,RL,2022.2.4,60.213505059725385,
1,38,0,38,0,,,,,,,,,,None,473.082078400068,473.082078400068,473.082078400068,473.082078400068,473.082078400068,473.082078400068,r,0.43771150009706616,473.5493394001387,473.5493394001387,473.5493394001387,473.5493394001387,473.5493394001387,473.5493394001387,473.8466185000725,473.8466185000725,474.81039230013266,474.81039230013266,474.81039230013266,474.81039230013266,474.81039230013266,474.81039230013266,474.81039230013266,474.81039230013266,474.81039230013266,474.81039230013266,474.81039230013266,474.81039230013266,474.81039230013266,474.81039230013266,474.81039230013266,474.81039230013266,474.81039230013266,477.3197516000364,477.3197516000364,477.3197516000364,477.3197516000364,477.3197516000364,48,48,51,33,48,55,3.0,1.5127837001346052,478.8487380000297,480.6946398001164,,,,,,,,,,101,f,18,2022-11-25_09h30.54.357,RL,2022.2.4,60.213505059725385,
1,39,0,39,0,,,,,,,,,,None,480.6946398001164,480.6946398001164,480.6946398001164,480.6946398001164,480.6946398001164,480.6946398001164,f,0.5386708001606166,481.2695698000025,481.2695698000025,481.2695698000025,481.2695698000025,481.2695698000025,481.2695698000025,481.5588067001663,481.5588067001663,483.45367420022376,483.45367420022376,483.45367420022376,483.45367420022376,483.45367420022376,483.45367420022376,483.45367420022376,483.45367420022376,483.45367420022376,483.45367420022376,483.45367420022376,483.45367420022376,483.45367420022376,483.45367420022376,483.45367420022376,483.45367420022376,483.45367420022376,485.9630938000046,485.9630938000046,485.9630938000046,485.9630938000046,485.9630938000046,55,48,49,29,48,65,3.0,2.143763499800116,488.1233105000574,489.968984400155,,,,,,,,,,101,f,18,2022-11-25_09h30.54.357,RL,2022.2.4,60.213505059725385,
1,40,0,40,0,,,,,,,,,,None,489.968984400155,489.968984400155,489.968984400155,489.968984400155,489.968984400155,489.968984400155,i,0.6797709001693875,490.672962800134,490.672962800134,490.672962800134,490.672962800134,490.672962800134,490.672962800134,490.9499428002164,490.9499428002164,492.11339170020074,492.11339170020074,492.1467164000496,492.1467164000496,492.1467164000496,492.1467164000496,492.1467164000496,492.1467164000496,492.1467164000496,492.1467164000496,492.1467164000496,492.1467164000496,492.1467164000496,492.1467164000496,492.1467164000496,492.1467164000496,492.1467164000496,494.65632910002023,494.65632910002023,494.65632910002023,494.65632910002023,494.65632910002023,54,52,55,32,55,57,3.0,1.6453929000999779,496.31764080002904,497.8645405001007,,,,,,,,,,101,f,18,2022-11-25_09h30.54.357,RL,2022.2.4,60.213505059725385,
1,41,0,41,0,,,,,,,,,,None,497.8645405001007,497.8645405001007,497.8645405001007,497.8645405001007,497.8645405001007,497.8645405001007,i,0.8863892999943346,498.77899540006183,498.77899540006183,498.77899540006183,498.77899540006183,498.77899540006183,498.77899540006183,499.07775030005723,499.07775030005723,500.3079755001236,500.3079755001236,500.324434600072,500.324434600072,500.324434600072,500.324434600072,500.324434600072,500.324434600072,500.324434600072,500.324434600072,500.324434600072,500.324434600072,500.324434600072,500.324434600072,500.324434600072,500.324434600072,500.324434600072,502.83355810004286,502.83355810004286,502.83355810004286,502.83355810004286,502.83355810004286,53,51,63,21,63,52,5.0,1.5288372000213712,504.3798054000363,506.2756303001661,,,,,,,,,,101,f,18,2022-11-25_09h30.54.357,RL,2022.2.4,60.213505059725385,
1,42,0,42,0,,,,,,,,,,None,506.2756303001661,506.2756303001661,506.2756303001661,506.2756303001661,506.2756303001661,506.2756303001661,f,0.35364109999500215,506.65795050002635,506.65795050002635,506.65795050002635,506.65795050002635,506.65795050002635,506.65795050002635,506.95649930019863,506.95649930019863,507.82041930011474,507.82041930011474,507.83745590015315,507.83745590015315,507.83745590015315,507.83745590015315,507.83745590015315,507.83745590015315,507.83745590015315,507.83745590015315,507.83745590015315,507.83745590015315,507.83745590015315,507.83745590015315,507.83745590015315,507.83745590015315,507.83745590015315,510.3462802001741,510.3462802001741,510.3462802001741,510.3462802001741,510.3462802001741,40,46,66,32,46,76,2.0,1.6787513999734074,512.0415436001495,513.8702689001802,,,,,,,,,,101,f,18,2022-11-25_09h30.54.357,RL,2022.2.4,60.213505059725385,
1,43,0,43,0,,,,,,,,,,None,513.8702689001802,513.8702689001802,513.8702689001802,513.8702689001802,513.8702689001802,513.8702689001802,f,0.46177990012802184,514.3541967000347,514.3541967000347,514.3541967000347,514.3541967000347,514.3541967000347,514.3541967000347,514.6521604000591,514.6521604000591,516.3305896001402,516.3305896001402,516.3305896001402,516.3305896001402,516.3305896001402,516.3305896001402,516.3305896001402,516.3305896001402,516.3305896001402,516.3305896001402,516.3305896001402,516.3305896001402,516.3305896001402,516.3305896001402,516.3305896001402,516.3305896001402,516.3305896001402,518.8396895001642,518.8396895001642,518.8396895001642,518.8396895001642,518.8396895001642,52,44,73,35,44,66,3.0,3.8724479998927563,522.7289931001142,524.358417800162,,,,,,,,,,101,f,18,2022-11-25_09h30.54.357,RL,2022.2.4,60.213505059725385,
1,44,0,44,0,,,,,,,,,,None,524.358417800162,524.358417800162,524.358417800162,524.358417800162,524.358417800162,524.358417800162,i,0.8900773001369089,525.2786765000783,525.2786765000783,525.2786765000783,525.2786765000783,525.2786765000783,525.2786765000783,525.5721748000942,525.5721748000942,526.8021889000665,526.8021889000665,526.8021889000665,526.8021889000665,526.8021889000665,526.8021889000665,526.8021889000665,526.8021889000665,526.8021889000665,526.8021889000665,526.8021889000665,526.8021889000665,526.8021889000665,526.8021889000665,526.8021889000665,526.8021889000665,526.8021889000665,529.3111565001309,529.3111565001309,529.3111565001309,529.3111565001309,529.3111565001309,44,47,66,29,66,71,3.0,1.9104387001134455,531.2391692001838,532.9019048002083,,,,,,,,,,101,f,18,2022-11-25_09h30.54.357,RL,2022.2.4,60.213505059725385,
1,45,0,45,0,,,,,,,,,,None,532.9019048002083,532.9019048002083,532.9019048002083,532.9019048002083,532.9019048002083,532.9019048002083,r,0.8276569000445306,533.7505896000657,533.7505896000657,533.7505896000657,533.7505896000657,533.7505896000657,533.7505896000657,534.0492542001884,534.0492542001884,535.9278898001648,535.9278898001648,535.9278898001648,535.9278898001648,535.9278898001648,535.9278898001648,535.9278898001648,535.9278898001648,535.9278898001648,535.9278898001648,535.9278898001648,535.9278898001648,535.9278898001648,535.9278898001648,535.9278898001648,535.9278898001648,535.9278898001648,538.4363041000906,538.4363041000906,538.4363041000906,538.4363041000906,538.4363041000906,50,44,67,27,50,62,3.0,1.1633349999319762,539.6168556001503,541.5283382001799,,,,,,,,,,101,f,18,2022-11-25_09h30.54.357,RL,2022.2.4,60.213505059725385,
1,46,0,46,0,,,,,,,,,,None,541.5283382001799,541.5283382001799,541.5283382001799,541.5283382001799,541.5283382001799,541.5283382001799,r,0.3887654000427574,541.9479040000588,541.9479040000588,541.9479040000588,541.9479040000588,541.9479040000588,541.9479040000588,542.2434996000957,542.2434996000957,544.0383784000296,544.0383784000296,544.05568520003,544.05568520003,544.05568520003,544.05568520003,544.05568520003,544.05568520003,544.05568520003,544.05568520003,544.05568520003,544.05568520003,544.05568520003,544.05568520003,544.05568520003,544.05568520003,544.05568520003,546.5642375000753,546.5642375000753,546.5642375000753,546.5642375000753,546.5642375000753,50,52,61,33,50,54,3.0,1.4957600999623537,548.0772467001807,549.9554511001334,,,,,,,,,,101,f,18,2022-11-25_09h30.54.357,RL,2022.2.4,60.213505059725385,
1,47,0,47,0,,,,,,,,,,None,549.9554511001334,549.9554511001334,549.9554511001334,549.9554511001334,549.9554511001334,549.9554511001334,r,0.6278059999458492,550.6110456001479,550.6110456001479,550.6110456001479,550.6110456001479,550.6110456001479,550.6110456001479,550.9035165000241,550.9035165000241,552.48287850013,552.48287850013,552.48287850013,552.48287850013,552.48287850013,552.48287850013,552.48287850013,552.48287850013,552.48287850013,552.48287850013,552.48287850013,552.48287850013,552.48287850013,552.48287850013,552.48287850013,552.48287850013,552.48287850013,554.9912936000619,554.9912936000619,554.9912936000619,554.9912936000619,554.9912936000619,50,43,51,40,50,37,5.0,1.2460829999763519,556.2542690001428,558.133388100192,,,,,,,,,,101,f,18,2022-11-25_09h30.54.357,RL,2022.2.4,60.213505059725385,
1,48,0,48,0,,,,,,,,,,None,558.133388100192,558.133388100192,558.133388100192,558.133388100192,558.133388100192,558.133388100192,r,1.032914200099185,559.1975077001844,559.1975077001844,559.1975077001844,559.1975077001844,559.1975077001844,559.1975077001844,559.4960788001772,559.4960788001772,560.6930666000117,560.6930666000117,560.6930666000117,560.6930666000117,560.6930666000117,560.6930666000117,560.6930666000117,560.6930666000117,560.6930666000117,560.6930666000117,560.6930666000117,560.6930666000117,560.6930666000117,560.6930666000117,560.6930666000117,560.6930666000117,560.6930666000117,563.2025851001963,563.2025851001963,563.2025851001963,563.2025851001963,563.2025851001963,46,53,51,37,46,72,2.0,1.7279009001795202,564.9472280000336,566.7760689000133,,,,,,,,,,101,f,18,2022-11-25_09h30.54.357,RL,2022.2.4,60.213505059725385,
1,49,0,49,0,,,,,,,,,,None,566.7760689000133,566.7760689000133,566.7760689000133,566.7760689000133,566.7760689000133,566.7760689000133,r,0.5230783999431878,567.3251760001294,567.3251760001294,567.3251760001294,567.3251760001294,567.3251760001294,567.3251760001294,567.6242413001601,567.6242413001601,568.870711900061,568.870711900061,568.870711900061,568.870711900061,568.870711900061,568.870711900061,568.870711900061,568.870711900061,568.870711900061,568.870711900061,568.870711900061,568.870711900061,568.870711900061,568.870711900061,568.870711900061,568.870711900061,568.870711900061,571.3798892002087,571.3798892002087,571.3798892002087,571.3798892002087,571.3798892002087,58,56,51,38,58,65,3.0,2.176198599860072,573.5739548001438,575.485744100064,,,,,,,,,,101,f,18,2022-11-25_09h30.54.357,RL,2022.2.4,60.213505059725385,
1,50,0,50,0,,,,,,,,,,None,575.485744100064,575.485744100064,575.485744100064,575.485744100064,575.485744100064,575.485744100064,i,0.5952771999873221,576.1151015001815,576.1151015001815,576.1151015001815,576.1151015001815,576.1151015001815,576.1151015001815,576.4003116001841,576.4003116001841,578.0460002000909,578.0460002000909,578.062261500163,578.062261500163,578.062261500163,578.062261500163,578.062261500163,578.062261500163,578.062261500163,578.062261500163,578.062261500163,578.062261500163,578.062261500163,578.062261500163,578.062261500163,578.062261500163,578.062261500163,580.5720584001392,580.5720584001392,580.5720584001392,580.5720584001392,580.5720584001392,56,40,46,35,46,27,5.0,1.2466657001059502,581.8349153001327,583.8131387000903,,,,,,,,,,101,f,18,2022-11-25_09h30.54.357,RL,2022.2.4,60.213505059725385,
1,51,0,51,0,,,,,,,,,,None,583.8131387000903,583.8131387000903,583.8131387000903,583.8131387000903,583.8131387000903,583.8131387000903,j,0.34103800007142127,584.1794322000351,584.1794322000351,584.1794322000351,584.1794322000351,584.1794322000351,584.1794322000351,584.4793075001799,584.4793075001799,585.824275800027,585.824275800027,585.824275800027,585.824275800027,585.824275800027,585.824275800027,585.824275800027,585.824275800027,585.824275800027,585.824275800027,585.824275800027,585.824275800027,585.824275800027,585.824275800027,585.824275800027,585.824275800027,585.824275800027,588.3334979000501,588.3334979000501,588.3334979000501,588.3334979000501,588.3334979000501,60,42,49,30,30,27,5.0,1.0305337000172585,589.3804946001619,590.8941596001387,,,,,,,,,,101,f,18,2022-11-25_09h30.54.357,RL,2022.2.4,60.213505059725385,
1,52,0,52,0,,,,,,,,,,None,590.8941596001387,590.8941596001387,590.8941596001387,590.8941596001387,590.8941596001387,590.8941596001387,i,0.5179302000906318,591.4453880002256,591.4453880002256,591.4453880002256,591.4453880002256,591.4453880002256,591.4453880002256,591.7416435000487,591.7416435000487,593.6364468000829,593.6364468000829,593.6364468000829,593.6364468000829,593.6364468000829,593.6364468000829,593.6364468000829,593.6364468000829,593.6364468000829,593.6364468000829,593.6364468000829,593.6364468000829,593.6364468000829,593.6364468000829,593.6364468000829,593.6364468000829,593.6364468000829,596.1455470002256,596.1455470002256,596.1455470002256,596.1455470002256,596.1455470002256,56,43,43,27,43,57,3.0,2.1439177999272943,598.3061887000222,600.2181903000455,,,,,,,,,,101,f,18,2022-11-25_09h30.54.357,RL,2022.2.4,60.213505059725385,
1,53,0,53,0,,,,,,,,,,None,600.2181903000455,600.2181903000455,600.2181903000455,600.2181903000455,600.2181903000455,600.2181903000455,f,0.2909013000316918,600.5356788001955,600.5356788001955,600.5356788001955,600.5356788001955,600.5356788001955,600.5356788001955,600.8334628001321,600.8334628001321,602.4788055000827,602.4788055000827,602.4788055000827,602.4788055000827,602.4788055000827,602.4788055000827,602.4788055000827,602.4788055000827,602.4788055000827,602.4788055000827,602.4788055000827,602.4788055000827,602.4788055000827,602.4788055000827,602.4788055000827,602.4788055000827,602.4788055000827,604.9880843001883,604.9880843001883,604.9880843001883,604.9880843001883,604.9880843001883,62,36,47,29,36,58,3.0,1.2791236001066864,606.2849507001229,608.0469797002152,,,,,,,,,,101,f,18,2022-11-25_09h30.54.357,RL,2022.2.4,60.213505059725385,
1,54,0,54,0,,,,,,,,,,None,608.0469797002152,608.0469797002152,608.0469797002152,608.0469797002152,608.0469797002152,608.0469797002152,j,0.36515569989569485,608.4485534999985,608.4485534999985,608.4485534999985,608.4485534999985,608.4485534999985,608.4485534999985,608.7453452001791,608.7453452001791,610.0415989002213,610.0415989002213,610.0415989002213,610.0415989002213,610.0415989002213,610.0415989002213,610.0415989002213,610.0415989002213,610.0415989002213,610.0415989002213,610.0415989002213,610.0415989002213,610.0415989002213,610.0415989002213,610.0415989002213,610.0415989002213,610.0415989002213,612.5507393002044,612.5507393002044,612.5507393002044,612.5507393002044,612.5507393002044,53,44,55,31,31,56,3.0,0.8323188000358641,613.3982871000189,615.094728600001,,,,,,,,,,101,f,18,2022-11-25_09h30.54.357,RL,2022.2.4,60.213505059725385,
1,55,0,55,0,,,,,,,,,,None,615.094728600001,615.094728600001,615.094728600001,615.094728600001,615.094728600001,615.094728600001,f,0.48767009982839227,615.6101552001201,615.6101552001201,615.6101552001201,615.6101552001201,615.6101552001201,615.6101552001201,615.9093077001162,615.9093077001162,617.8868431001902,617.8868431001902,617.8868431001902,617.8868431001902,617.8868431001902,617.8868431001902,617.8868431001902,617.8868431001902,617.8868431001902,617.8868431001902,617.8868431001902,617.8868431001902,617.8868431001902,617.8868431001902,617.8868431001902,617.8868431001902,617.8868431001902,620.3960079001263,620.3960079001263,620.3960079001263,620.3960079001263,620.3960079001263,56,34,47,35,34,63,2.0,1.9772184998728335,622.3906222002115,624.3358467000071,,,,,,,,,,101,f,18,2022-11-25_09h30.54.357,RL,2022.2.4,60.213505059725385,
1,56,0,56,0,,,,,,,,,,None,624.3358467000071,624.3358467000071,624.3358467000071,624.3358467000071,624.3358467000071,624.3358467000071,i,0.6317112999968231,625.0017244000919,625.0017244000919,625.0017244000919,625.0017244000919,625.0017244000919,625.0017244000919,625.3001612001099,625.3001612001099,626.4134701001458,626.4134701001458,626.4134701001458,626.4134701001458,626.4134701001458,626.4134701001458,626.4134701001458,626.4134701001458,626.4134701001458,626.4134701001458,626.4134701001458,626.4134701001458,626.4134701001458,626.4134701001458,626.4134701001458,626.4134701001458,626.4134701001458,628.9227759002242,628.9227759002242,628.9227759002242,628.9227759002242,628.9227759002242,50,45,48,25,48,50,4.0,2.0099714999087155,630.9505359001923,632.6635567001067,,,,,,,,,,101,f,18,2022-11-25_09h30.54.357,RL,2022.2.4,60.213505059725385,
1,57,0,57,0,,,,,,,,,,None,632.6635567001067,632.6635567001067,632.6635567001067,632.6635567001067,632.6635567001067,632.6635567001067,f,0.6358624999411404,633.3288051001728,633.3288051001728,633.3288051001728,633.3288051001728,633.3288051001728,633.3288051001728,633.6276423002128,633.6276423002128,634.4584195001516,634.4584195001516,634.4584195001516,634.4584195001516,634.4584195001516,634.4584195001516,634.4584195001516,634.4584195001516,634.4584195001516,634.4584195001516,634.4584195001516,634.4584195001516,634.4584195001516,634.4584195001516,634.4584195001516,634.4584195001516,634.4584195001516,636.9677083001006,636.9677083001006,636.9677083001006,636.9677083001006,636.9677083001006,48,41,54,44,41,46,3.0,1.4614922001492232,638.4467314002104,640.2090641001705,,,,,,,,,,101,f,18,2022-11-25_09h30.54.357,RL,2022.2.4,60.213505059725385,
1,58,0,58,0,,,,,,,,,,None,640.2090641001705,640.2090641001705,640.2090641001705,640.2090641001705,640.2090641001705,640.2090641001705,r,0.5639692000113428,640.7923942001071,640.7923942001071,640.7923942001071,640.7923942001071,640.7923942001071,640.7923942001071,641.0742016001604,641.0742016001604,642.137447200017,642.137447200017,642.1540655000135,642.1540655000135,642.1540655000135,642.1540655000135,642.1540655000135,642.1540655000135,642.1540655000135,642.1540655000135,642.1540655000135,642.1540655000135,642.1540655000135,642.1540655000135,642.1540655000135,642.1540655000135,642.1540655000135,644.66340340022,644.66340340022,644.66340340022,644.66340340022,644.66340340022,41,47,52,38,41,59,3.0,1.1959679001010954,645.8768070000224,647.8382069000509,,,,,,,,,,101,f,18,2022-11-25_09h30.54.357,RL,2022.2.4,60.213505059725385,
1,59,0,59,0,,,,,,,,,,None,647.8382069000509,647.8382069000509,647.8382069000509,647.8382069000509,647.8382069000509,647.8382069000509,j,0.7331690997816622,648.6093054001685,648.6093054001685,648.6093054001685,648.6093054001685,648.6093054001685,648.6093054001685,648.9022652001586,648.9022652001586,649.8992947000079,649.8992947000079,649.8992947000079,649.8992947000079,649.8992947000079,649.8992947000079,649.8992947000079,649.8992947000079,649.8992947000079,649.8992947000079,649.8992947000079,649.8992947000079,649.8992947000079,649.8992947000079,649.8992947000079,649.8992947000079,649.8992947000079,652.4089727001265,652.4089727001265,652.4089727001265,652.4089727001265,652.4089727001265,44,45,55,37,37,61,2.0,0.9972337000072002,653.4223885000683,655.1022289001849,,,,,,,,,,101,f,18,2022-11-25_09h30.54.357,RL,2022.2.4,60.213505059725385,
1,60,0,60,0,,,,,,,,,,None,655.1022289001849,655.1022289001849,655.1022289001849,655.1022289001849,655.1022289001849,655.1022289001849,f,0.7440190999768674,655.8670636001043,655.8670636001043,655.8670636001043,655.8670636001043,655.8670636001043,655.8670636001043,656.1658925001975,656.1658925001975,657.545368200168,657.545368200168,657.545368200168,657.545368200168,657.545368200168,657.545368200168,657.545368200168,657.545368200168,657.545368200168,657.545368200168,657.545368200168,657.545368200168,657.545368200168,657.545368200168,657.545368200168,657.545368200168,657.545368200168,660.0549961000215,660.0549961000215,660.0549961000215,660.0549961000215,660.0549961000215,52,44,52,30,44,53,3.0,1.17972999997437,661.2517480000388,662.8640510002151,,,,,,,,,,101,f,18,2022-11-25_09h30.54.357,RL,2022.2.4,60.213505059725385,
1,61,0,61,0,,,,,,,,,,None,662.8640510002151,662.8640510002151,662.8640510002151,662.8640510002151,662.8640510002151,662.8640510002151,r,0.42028950015082955,663.3133464001585,663.3133464001585,663.3133464001585,663.3133464001585,663.3133464001585,663.3133464001585,663.612612400204,663.612612400204,665.0087031000294,665.0087031000294,665.0087031000294,665.0087031000294,665.0087031000294,665.0087031000294,665.0087031000294,665.0087031000294,665.0087031000294,665.0087031000294,665.0087031000294,665.0087031000294,665.0087031000294,665.0087031000294,665.0087031000294,665.0087031000294,665.0087031000294,667.5174683001824,667.5174683001824,667.5174683001824,667.5174683001824,667.5174683001824,56,36,53,36,56,56,4.0,1.3949427001643926,668.9306584000587,670.8756259002257,,,,,,,,,,101,f,18,2022-11-25_09h30.54.357,RL,2022.2.4,60.213505059725385,
1,62,0,62,0,,,,,,,,,,None,670.8756259002257,670.8756259002257,670.8756259002257,670.8756259002257,670.8756259002257,670.8756259002257,r,0.7461805001366884,671.6405488001183,671.6405488001183,671.6405488001183,671.6405488001183,671.6405488001183,671.6405488001183,671.9395899001975,671.9395899001975,673.0864566999953,673.0864566999953,673.0864566999953,673.0864566999953,673.0864566999953,673.0864566999953,673.0864566999953,673.0864566999953,673.0864566999953,673.0864566999953,673.0864566999953,673.0864566999953,673.0864566999953,673.0864566999953,673.0864566999953,673.0864566999953,673.0864566999953,675.5952956001274,675.5952956001274,675.5952956001274,675.5952956001274,675.5952956001274,54,39,56,38,54,55,3.0,2.5759776001796126,678.1883328000549,679.8678300001193,,,,,,,,,,101,f,18,2022-11-25_09h30.54.357,RL,2022.2.4,60.213505059725385,
1,63,0,63,0,,,,,,,,,,None,679.8678300001193,679.8678300001193,679.8678300001193,679.8678300001193,679.8678300001193,679.8678300001193,j,0.4964939998462796,680.3851958001032,680.3851958001032,680.3851958001032,680.3851958001032,680.3851958001032,680.3851958001032,680.68241150002,680.68241150002,682.4448949000798,682.4448949000798,682.4448949000798,682.4448949000798,682.4448949000798,682.4448949000798,682.4448949000798,682.4448949000798,682.4448949000798,682.4448949000798,682.4448949000798,682.4448949000798,682.4448949000798,682.4448949000798,682.4448949000798,682.4448949000798,682.4448949000798,684.9533339000773,684.9533339000773,684.9533339000773,684.9533339000773,684.9533339000773,56,44,55,33,33,49,3.0,1.77747380011715,686.748435900081,688.7102279001847,,,,,,,,,,101,f,18,2022-11-25_09h30.54.357,RL,2022.2.4,60.213505059725385,
1,64,0,64,0,,,,,,,,,,None,688.7102279001847,688.7102279001847,688.7102279001847,688.7102279001847,688.7102279001847,688.7102279001847,r,0.4316505000460893,689.1768306000158,689.1768306000158,689.1768306000158,689.1768306000158,689.1768306000158,689.1768306000158,689.4759309000801,689.4759309000801,691.1702604000457,691.1702604000457,691.1702604000457,691.1702604000457,691.1702604000457,691.1702604000457,691.1702604000457,691.1702604000457,691.1702604000457,691.1702604000457,691.1702604000457,691.1702604000457,691.1702604000457,691.1702604000457,691.1702604000457,691.1702604000457,691.1702604000457,693.6795210000128,693.6795210000128,693.6795210000128,693.6795210000128,693.6795210000128,60,44,48,33,60,58,4.0,0.8139469001907855,694.5104479000438,696.3891866002232,,,,,,,,,,101,f,18,2022-11-25_09h30.54.357,RL,2022.2.4,60.213505059725385,
1,65,0,65,0,,,,,,,,,,None,696.3891866002232,696.3891866002232,696.3891866002232,696.3891866002232,696.3891866002232,696.3891866002232,f,0.6163443999830633,697.0384670000058,697.0384670000058,697.0384670000058,697.0384670000058,697.0384670000058,697.0384670000058,697.3368250001222,697.3368250001222,698.8160827001557,698.8160827001557,698.8160827001557,698.8160827001557,698.8160827001557,698.8160827001557,698.8160827001557,698.8160827001557,698.8160827001557,698.8160827001557,698.8160827001557,698.8160827001557,698.8160827001557,698.8160827001557,698.8160827001557,698.8160827001557,698.8160827001557,701.3253952001687,701.3253952001687,701.3253952001687,701.3253952001687,701.3253952001687,59,51,61,32,51,60,3.0,1.9274340998381376,703.2703238001559,705.1323669000994,,,,,,,,,,101,f,18,2022-11-25_09h30.54.357,RL,2022.2.4,60.213505059725385,
1,66,0,66,0,,,,,,,,,,None,705.1323669000994,705.1323669000994,705.1323669000994,705.1323669000994,705.1323669000994,705.1323669000994,r,0.49570320011116564,705.6481836000457,705.6481836000457,705.6481836000457,705.6481836000457,705.6481836000457,705.6481836000457,705.9467344000004,705.9467344000004,706.9442000000272,706.9442000000272,706.9442000000272,706.9442000000272,706.9442000000272,706.9442000000272,706.9442000000272,706.9442000000272,706.9442000000272,706.9442000000272,706.9442000000272,706.9442000000272,706.9442000000272,706.9442000000272,706.9442000000272,706.9442000000272,706.9442000000272,709.4529650001787,709.4529650001787,709.4529650001787,709.4529650001787,709.4529650001787,52,45,65,42,52,49,4.0,1.5949039000552148,711.0664363000542,712.6457401001826,,,,,,,,,,101,f,18,2022-11-25_09h30.54.357,RL,2022.2.4,60.213505059725385,
1,67,0,67,0,,,,,,,,,,None,712.6457401001826,712.6457401001826,712.6457401001826,712.6457401001826,712.6457401001826,712.6457401001826,r,0.3409744000528008,713.0113000001293,713.0113000001293,713.0113000001293,713.0113000001293,713.0113000001293,713.0113000001293,713.3100717000198,713.3100717000198,715.1713631001767,715.1713631001767,715.1713631001767,715.1713631001767,715.1713631001767,715.1713631001767,715.1713631001767,715.1713631001767,715.1713631001767,715.1713631001767,715.1713631001767,715.1713631001767,715.1713631001767,715.1713631001767,715.1713631001767,715.1713631001767,715.1713631001767,717.6805333001539,717.6805333001539,717.6805333001539,717.6805333001539,717.6805333001539,64,36,55,33,64,57,5.0,1.7272452998440713,719.4258150001988,721.0386676001363,,,,,,,,,,101,f,18,2022-11-25_09h30.54.357,RL,2022.2.4,60.213505059725385,
1,68,0,68,0,,,,,,,,,,None,721.0386676001363,721.0386676001363,721.0386676001363,721.0386676001363,721.0386676001363,721.0386676001363,r,0.5300598000176251,721.5889598000795,721.5889598000795,721.5889598000795,721.5889598000795,721.5889598000795,721.5889598000795,721.8865318000317,721.8865318000317,723.8498082000297,723.8498082000297,723.8498082000297,723.8498082000297,723.8498082000297,723.8498082000297,723.8498082000297,723.8498082000297,723.8498082000297,723.8498082000297,723.8498082000297,723.8498082000297,723.8498082000297,723.8498082000297,723.8498082000297,723.8498082000297,723.8498082000297,726.3568144000601,726.3568144000601,726.3568144000601,726.3568144000601,726.3568144000601,68,41,57,34,68,50,6.0,2.6922750000376254,729.0660067000426,730.6957384000998,,,,,,,,,,101,f,18,2022-11-25_09h30.54.357,RL,2022.2.4,60.213505059725385,
1,69,0,69,0,,,,,,,,,,None,730.6957384000998,730.6957384000998,730.6957384000998,730.6957384000998,730.6957384000998,730.6957384000998,r,0.5550004998221993,731.2822971001733,731.2822971001733,731.2822971001733,731.2822971001733,731.2822971001733,731.2822971001733,731.576932300115,731.576932300115,733.421744500054,733.421744500054,733.4386049001478,733.4386049001478,733.4386049001478,733.4386049001478,733.4386049001478,733.4386049001478,733.4386049001478,733.4386049001478,733.4386049001478,733.4386049001478,733.4386049001478,733.4386049001478,733.4386049001478,733.4386049001478,733.4386049001478,735.9479573999997,735.9479573999997,735.9479573999997,735.9479573999997,735.9479573999997,61,39,58,33,61,63,3.0,1.2628546999767423,737.2274201000109,739.0063293001149,,,,,,,,,,101,f,18,2022-11-25_09h30.54.357,RL,2022.2.4,60.213505059725385,
1,70,0,70,0,,,,,,,,,,None,739.0063293001149,739.0063293001149,739.0063293001149,739.0063293001149,739.0063293001149,739.0063293001149,f,0.38232470001094043,739.4239364000969,739.4239364000969,739.4239364000969,739.4239364000969,739.4239364000969,739.4239364000969,739.7212962000631,739.7212962000631,740.9013147000223,740.9013147000223,740.9013147000223,740.9013147000223,740.9013147000223,740.9013147000223,740.9013147000223,740.9013147000223,740.9013147000223,740.9013147000223,740.9013147000223,740.9013147000223,740.9013147000223,740.9013147000223,740.9013147000223,740.9013147000223,740.9013147000223,743.410366400145,743.410366400145,743.410366400145,743.410366400145,743.410366400145,61,33,52,36,33,25,5.0,0.8800252000801265,744.3080074000172,745.9041034001857,,,,,,,,,,101,f,18,2022-11-25_09h30.54.357,RL,2022.2.4,60.213505059725385,
1,71,0,71,0,,,,,,,,,,None,745.9041034001857,745.9041034001857,745.9041034001857,745.9041034001857,745.9041034001857,745.9041034001857,r,0.5132725997827947,746.438636300154,746.438636300154,746.438636300154,746.438636300154,746.438636300154,746.438636300154,746.735579600092,746.735579600092,747.5667448001914,747.5667448001914,747.5667448001914,747.5667448001914,747.5667448001914,747.5667448001914,747.5667448001914,747.5667448001914,747.5667448001914,747.5667448001914,747.5667448001914,747.5667448001914,747.5667448001914,747.5667448001914,747.5667448001914,747.5667448001914,747.5667448001914,750.0755794001743,750.0755794001743,750.0755794001743,750.0755794001743,750.0755794001743,62,34,57,24,62,50,5.0,2.0605015999171883,752.1534416000359,753.7992350000422,,,,,,,,,,101,f,18,2022-11-25_09h30.54.357,RL,2022.2.4,60.213505059725385,
1,72,0,72,0,,,,,,,,,,None,753.7992350000422,753.7992350000422,753.7992350000422,753.7992350000422,753.7992350000422,753.7992350000422,f,0.48618689994327724,754.3168696002103,754.3168696002103,754.3168696002103,754.3168696002103,754.3168696002103,754.3168696002103,754.5974346001167,754.5974346001167,755.5114010001998,755.5114010001998,755.5280536001083,755.5280536001083,755.5280536001083,755.5280536001083,755.5280536001083,755.5280536001083,755.5280536001083,755.5280536001083,755.5280536001083,755.5280536001083,755.5280536001083,755.5280536001083,755.5280536001083,755.5280536001083,755.5280536001083,758.0373334002215,758.0373334002215,758.0373334002215,758.0373334002215,758.0373334002215,65,53,58,28,53,21,5.0,2.25991029990837,760.3141810002271,761.878200400155,,,,,,,,,,101,f,18,2022-11-25_09h30.54.357,RL,2022.2.4,60.213505059725385,
1,73,0,73,0,,,,,,,,,,None,761.878200400155,761.878200400155,761.878200400155,761.878200400155,761.878200400155,761.878200400155,f,0.8994348999112844,762.8090094001964,762.8090094001964,762.8090094001964,762.8090094001964,762.8090094001964,762.8090094001964,763.1074959000107,763.1074959000107,764.9697009001393,764.9697009001393,764.9697009001393,764.9697009001393,764.9697009001393,764.9697009001393,764.9697009001393,764.9697009001393,764.9697009001393,764.9697009001393,764.9697009001393,764.9697009001393,764.9697009001393,764.9697009001393,764.9697009001393,764.9697009001393,764.9697009001393,767.4783347002231,767.4783347002231,767.4783347002231,767.4783347002231,767.4783347002231,64,43,56,26,43,35,5.0,1.595265599898994,769.0904914001003,771.0191295000259,,,,,,,,,,101,f,18,2022-11-25_09h30.54.357,RL,2022.2.4,60.213505059725385,
1,74,0,74,0,,,,,,,,,,None,771.0191295000259,771.0191295000259,771.0191295000259,771.0191295000259,771.0191295000259,771.0191295000259,r,0.5416776000056416,771.5884049001615,771.5884049001615,771.5884049001615,771.5884049001615,771.5884049001615,771.5884049001615,771.8835622000042,771.8835622000042,772.731512900209,772.731512900209,772.731512900209,772.731512900209,772.731512900209,772.731512900209,772.731512900209,772.731512900209,772.731512900209,772.731512900209,772.731512900209,772.731512900209,772.731512900209,772.731512900209,772.731512900209,772.731512900209,772.731512900209,775.2401763000526,775.2401763000526,775.2401763000526,775.2401763000526,775.2401763000526,65,42,58,33,65,58,5.0,2.061583000002429,777.3178457000758,779.0304095000029,,,,,,,,,,101,f,18,2022-11-25_09h30.54.357,RL,2022.2.4,60.213505059725385,
1,75,0,75,0,,,,,,,,,,q,815.929732600227,815.929732600227,815.929732600227,815.929732600227,815.929732600227,815.929732600227,f,0.5619779999833554,816.520855900133,816.520855900133,816.520855900133,816.520855900133,816.520855900133,816.520855900133,816.8108754002023,816.8108754002023,818.6726562001277,818.6726562001277,818.6897239000537,818.6897239000537,818.6897239000537,818.6897239000537,818.6897239000537,818.6897239000537,818.6897239000537,818.6897239000537,818.6897239000537,818.6897239000537,818.6897239000537,818.6897239000537,818.6897239000537,818.6897239000537,818.6897239000537,821.19843580015,821.19843580015,821.19843580015,821.19843580015,821.19843580015,58,32,68,32,32,61,3.0,1.9108209998812526,823.1263545001857,824.7224407000467,,,779.0304095000029,779.0304095000029,36.86657890002243,,,,,101,f,18,2022-11-25_09h30.54.357,RL,2022.2.4,60.213505059725385,
1,76,0,76,0,,,,,,,,,,None,824.7224407000467,824.7224407000467,824.7224407000467,824.7224407000467,824.7224407000467,824.7224407000467,r,0.4619402000680566,825.2049766001292,825.2049766001292,825.2049766001292,825.2049766001292,825.2049766001292,825.2049766001292,825.5049519001041,825.5049519001041,826.4014139000792,826.4014139000792,826.4014139000792,826.4014139000792,826.4014139000792,826.4014139000792,826.4014139000792,826.4014139000792,826.4014139000792,826.4014139000792,826.4014139000792,826.4014139000792,826.4014139000792,826.4014139000792,826.4014139000792,826.4014139000792,826.4014139000792,828.9108357001096,828.9108357001096,828.9108357001096,828.9108357001096,828.9108357001096,62,42,60,29,62,55,5.0,1.3787791000213474,830.3065098000225,831.8198405001312,,,,,,,,,,101,f,18,2022-11-25_09h30.54.357,RL,2022.2.4,60.213505059725385,
1,77,0,77,0,,,,,,,,,,None,831.8198405001312,831.8198405001312,831.8198405001312,831.8198405001312,831.8198405001312,831.8198405001312,r,0.30301119992509484,832.1544077000581,832.1544077000581,832.1544077000581,832.1544077000581,832.1544077000581,832.1544077000581,832.4519005001057,832.4519005001057,834.0640474001411,834.0640474001411,834.0640474001411,834.0640474001411,834.0640474001411,834.0640474001411,834.0640474001411,834.0640474001411,834.0640474001411,834.0640474001411,834.0640474001411,834.0640474001411,834.0640474001411,834.0640474001411,834.0640474001411,834.0640474001411,834.0640474001411,836.5731215002015,836.5731215002015,836.5731215002015,836.5731215002015,836.5731215002015,63,36,48,16,63,62,5.0,1.1638511000201106,837.7531403000467,839.7148999001365,,,,,,,,,,101,f,18,2022-11-25_09h30.54.357,RL,2022.2.4,60.213505059725385,
1,78,0,78,0,,,,,,,,,,None,839.7148999001365,839.7148999001365,839.7148999001365,839.7148999001365,839.7148999001365,839.7148999001365,f,0.2759282998740673,840.0148619001266,840.0148619001266,840.0148619001266,840.0148619001266,840.0148619001266,840.0148619001266,840.3145353000145,840.3145353000145,842.1417554002255,842.1417554002255,842.1417554002255,842.1417554002255,842.1417554002255,842.1417554002255,842.1417554002255,842.1417554002255,842.1417554002255,842.1417554002255,842.1417554002255,842.1417554002255,842.1417554002255,842.1417554002255,842.1417554002255,842.1417554002255,842.1417554002255,844.6509151000064,844.6509151000064,844.6509151000064,844.6509151000064,844.6509151000064,57,44,56,31,44,59,4.0,1.1478621999267489,845.8143556001596,847.4770222001243,,,,,,,,,,101,f,18,2022-11-25_09h30.54.357,RL,2022.2.4,60.213505059725385,
1,79,0,79,0,,,,,,,,,,None,847.4770222001243,847.4770222001243,847.4770222001243,847.4770222001243,847.4770222001243,847.4770222001243,r,0.3671844999771565,847.8767389000859,847.8767389000859,847.8767389000859,847.8767389000859,847.8767389000859,847.8767389000859,848.1756373001263,848.1756373001263,849.6884649000131,849.6884649000131,849.6884649000131,849.6884649000131,849.6884649000131,849.6884649000131,849.6884649000131,849.6884649000131,849.6884649000131,849.6884649000131,849.6884649000131,849.6884649000131,849.6884649000131,849.6884649000131,849.6884649000131,849.6884649000131,849.6884649000131,852.1968729000073,852.1968729000073,852.1968729000073,852.1968729000073,852.1968729000073,56,46,53,31,56,56,4.0,1.8612781001720577,854.0749849001877,855.5882830000482,,,,,,,,,,101,f,18,2022-11-25_09h30.54.357,RL,2022.2.4,60.213505059725385,
1,80,0,80,0,,,,,,,,,,None,855.5882830000482,855.5882830000482,855.5882830000482,855.5882830000482,855.5882830000482,855.5882830000482,r,0.2995726000517607,855.9232718001585,855.9232718001585,855.9232718001585,855.9232718001585,855.9232718001585,855.9232718001585,856.2200655001216,856.2200655001216,858.0483749001287,858.0483749001287,858.0483749001287,858.0483749001287,858.0483749001287,858.0483749001287,858.0483749001287,858.0483749001287,858.0483749001287,858.0483749001287,858.0483749001287,858.0483749001287,858.0483749001287,858.0483749001287,858.0483749001287,858.0483749001287,858.0483749001287,860.557676800061,860.557676800061,860.557676800061,860.557676800061,860.557676800061,57,49,55,18,57,50,5.0,1.3618809999898076,861.9370842000935,863.8992149000987,,,,,,,,,,101,f,18,2022-11-25_09h30.54.357,RL,2022.2.4,60.213505059725385,
1,81,0,81,0,,,,,,,,,,None,863.8992149000987,863.8992149000987,863.8992149000987,863.8992149000987,863.8992149000987,863.8992149000987,r,0.30582510004751384,864.2320618000813,864.2320618000813,864.2320618000813,864.2320618000813,864.2320618000813,864.2320618000813,864.5309211001731,864.5309211001731,865.6609591001179,865.6609591001179,865.6609591001179,865.6609591001179,865.6609591001179,865.6609591001179,865.6609591001179,865.6609591001179,865.6609591001179,865.6609591001179,865.6609591001179,865.6609591001179,865.6609591001179,865.6609591001179,865.6609591001179,865.6609591001179,865.6609591001179,868.170860200189,868.170860200189,868.170860200189,868.170860200189,868.170860200189,61,45,60,19,61,52,5.0,0.8940636001061648,869.0841606000904,870.7304361001588,,,,,,,,,,101,f,18,2022-11-25_09h30.54.357,RL,2022.2.4,60.213505059725385,
1,82,0,82,0,,,,,,,,,,None,870.7304361001588,870.7304361001588,870.7304361001588,870.7304361001588,870.7304361001588,870.7304361001588,r,0.3280549000483006,871.0803596000187,871.0803596000187,871.0803596000187,871.0803596000187,871.0803596000187,871.0803596000187,871.3787177000195,871.3787177000195,873.2737268002238,873.2737268002238,873.2737268002238,873.2737268002238,873.2737268002238,873.2737268002238,873.2737268002238,873.2737268002238,873.2737268002238,873.2737268002238,873.2737268002238,873.2737268002238,873.2737268002238,873.2737268002238,873.2737268002238,873.2737268002238,873.2737268002238,875.7828710000031,875.7828710000031,875.7828710000031,875.7828710000031,875.7828710000031,61,38,53,21,61,58,5.0,1.3787064999341965,877.178764300188,878.8582582001109,,,,,,,,,,101,f,18,2022-11-25_09h30.54.357,RL,2022.2.4,60.213505059725385,
1,83,0,83,0,,,,,,,,,,None,878.8582582001109,878.8582582001109,878.8582582001109,878.8582582001109,878.8582582001109,878.8582582001109,f,0.4090485000051558,879.2909848000854,879.2909848000854,879.2909848000854,879.2909848000854,879.2909848000854,879.2909848000854,879.5898091001436,879.5898091001436,881.334692100063,881.334692100063,881.334692100063,881.334692100063,881.334692100063,881.334692100063,881.334692100063,881.334692100063,881.334692100063,881.334692100063,881.334692100063,881.334692100063,881.334692100063,881.334692100063,881.334692100063,881.334692100063,881.334692100063,883.8438828000799,883.8438828000799,883.8438828000799,883.8438828000799,883.8438828000799,61,43,48,10,43,36,5.0,0.43135449988767505,884.2928126000334,886.2709972001612,,,,,,,,,,101,f,18,2022-11-25_09h30.54.357,RL,2022.2.4,60.213505059725385,
1,84,0,84,0,,,,,,,,,,None,886.2709972001612,886.2709972001612,886.2709972001612,886.2709972001612,886.2709972001612,886.2709972001612,r,0.3253103999886662,886.6268770000897,886.6268770000897,886.6268770000897,886.6268770000897,886.6268770000897,886.6268770000897,886.9198222002015,886.9198222002015,888.0833396001253,888.0833396001253,888.0833396001253,888.0833396001253,888.0833396001253,888.0833396001253,888.0833396001253,888.0833396001253,888.0833396001253,888.0833396001253,888.0833396001253,888.0833396001253,888.0833396001253,888.0833396001253,888.0833396001253,888.0833396001253,888.0833396001253,890.5922402001452,890.5922402001452,890.5922402001452,890.5922402001452,890.5922402001452,67,32,58,18,67,42,5.0,1.0966438001487404,891.7056694000494,893.4187173000537,,,,,,,,,,101,f,18,2022-11-25_09h30.54.357,RL,2022.2.4,60.213505059725385,
1,85,0,85,0,,,,,,,,,,None,893.4187173000537,893.4187173000537,893.4187173000537,893.4187173000537,893.4187173000537,893.4187173000537,r,0.4166313000023365,893.8768771002069,893.8768771002069,893.8768771002069,893.8768771002069,893.8768771002069,893.8768771002069,894.1665300000459,894.1665300000459,895.712682500016,895.712682500016,895.7288736000191,895.7288736000191,895.7288736000191,895.7288736000191,895.7288736000191,895.7288736000191,895.7288736000191,895.7288736000191,895.7288736000191,895.7288736000191,895.7288736000191,895.7288736000191,895.7288736000191,895.7288736000191,895.7288736000191,898.2380745001137,898.2380745001137,898.2380745001137,898.2380745001137,898.2380745001137,69,47,64,13,69,56,6.0,0.6648905000183731,898.9196771001443,900.6655794000253,,,,,,,,,,101,f,18,2022-11-25_09h30.54.357,RL,2022.2.4,60.213505059725385,
1,86,0,86,0,,,,,,,,,,None,900.6655794000253,900.6655794000253,900.6655794000253,900.6655794000253,900.6655794000253,900.6655794000253,r,0.4334313999861479,901.1316428000573,901.1316428000573,901.1316428000573,901.1316428000573,901.1316428000573,901.1316428000573,901.4301042000297,901.4301042000297,903.2918367001694,903.2918367001694,903.3082210000139,903.3082210000139,903.3082210000139,903.3082210000139,903.3082210000139,903.3082210000139,903.3082210000139,903.3082210000139,903.3082210000139,903.3082210000139,903.3082210000139,903.3082210000139,903.3082210000139,903.3082210000139,903.3082210000139,905.8173619001172,905.8173619001172,905.8173619001172,905.8173619001172,905.8173619001172,70,44,64,18,70,48,7.0,0.9131378999445587,906.7482286000159,908.6101756000426,,,,,,,,,,101,f,18,2022-11-25_09h30.54.357,RL,2022.2.4,60.213505059725385,
1,87,0,87,0,,,,,,,,,,None,908.6101756000426,908.6101756000426,908.6101756000426,908.6101756000426,908.6101756000426,908.6101756000426,r,0.3276575000490993,908.9600081001408,908.9600081001408,908.9600081001408,908.9600081001408,908.9600081001408,908.9600081001408,909.2588128000498,909.2588128000498,910.189792400226,910.189792400226,910.189792400226,910.189792400226,910.189792400226,910.189792400226,910.189792400226,910.189792400226,910.189792400226,910.189792400226,910.189792400226,910.189792400226,910.189792400226,910.189792400226,910.189792400226,910.189792400226,910.189792400226,912.6986025001388,912.6986025001388,912.6986025001388,912.6986025001388,912.6986025001388,69,35,58,25,69,55,5.0,1.7279516998678446,914.444259100128,916.0899459000211,,,,,,,,,,101,f,18,2022-11-25_09h30.54.357,RL,2022.2.4,60.213505059725385,
1,88,0,88,0,,,,,,,,,,None,916.0899459000211,916.0899459000211,916.0899459000211,916.0899459000211,916.0899459000211,916.0899459000211,r,0.4508058000355959,916.5728674000129,916.5728674000129,916.5728674000129,916.5728674000129,916.5728674000129,916.5728674000129,916.871487100143,916.871487100143,918.3507457000669,918.3507457000669,918.3507457000669,918.3507457000669,918.3507457000669,918.3507457000669,918.3507457000669,918.3507457000669,918.3507457000669,918.3507457000669,918.3507457000669,918.3507457000669,918.3507457000669,918.3507457000669,918.3507457000669,918.3507457000669,918.3507457000669,920.8596719000489,920.8596719000489,920.8596719000489,920.8596719000489,920.8596719000489,65,37,66,17,65,52,5.0,1.5787363999988884,922.4550486002117,924.185361900134,,,,,,,,,,101,f,18,2022-11-25_09h30.54.357,RL,2022.2.4,60.213505059725385,
1,89,0,89,0,,,,,,,,,,None,924.185361900134,924.185361900134,924.185361900134,924.185361900134,924.185361900134,924.185361900134,r,0.34907599980942905,924.567408000119,924.567408000119,924.567408000119,924.567408000119,924.567408000119,924.567408000119,924.867828000104,924.867828000104,925.7969153001904,925.7969153001904,925.7969153001904,925.7969153001904,925.7969153001904,925.7969153001904,925.7969153001904,925.7969153001904,925.7969153001904,925.7969153001904,925.7969153001904,925.7969153001904,925.7969153001904,925.7969153001904,925.7969153001904,925.7969153001904,925.7969153001904,928.3063259001356,928.3063259001356,928.3063259001356,928.3063259001356,928.3063259001356,64,33,58,16,64,54,4.0,0.7803787000011653,929.1037721000612,931.049442200223,,,,,,,,,,101,f,18,2022-11-25_09h30.54.357,RL,2022.2.4,60.213505059725385,
1,90,0,90,0,,,,,,,,,,None,931.049442200223,931.049442200223,931.049442200223,931.049442200223,931.049442200223,931.049442200223,r,0.3540193000808358,931.4330331000965,931.4330331000965,931.4330331000965,931.4330331000965,931.4330331000965,931.4330331000965,931.7312716001179,931.7312716001179,932.6615709001198,932.6615709001198,932.6782094000373,932.6782094000373,932.6782094000373,932.6782094000373,932.6782094000373,932.6782094000373,932.6782094000373,932.6782094000373,932.6782094000373,932.6782094000373,932.6782094000373,932.6782094000373,932.6782094000373,932.6782094000373,932.6782094000373,935.1873254000675,935.1873254000675,935.1873254000675,935.1873254000675,935.1873254000675,69,28,62,14,69,47,5.0,0.8116583998780698,936.0187882001046,937.8472023000941,,,,,,,,,,101,f,18,2022-11-25_09h30.54.357,RL,2022.2.4,60.213505059725385,
1,91,0,91,0,,,,,,,,,,None,937.8472023000941,937.8472023000941,937.8472023000941,937.8472023000941,937.8472023000941,937.8472023000941,r,0.5007255000527948,938.3798563000746,938.3798563000746,938.3798563000746,938.3798563000746,938.3798563000746,938.3798563000746,938.6784791999962,938.6784791999962,940.6233470002189,940.6233470002189,940.6563686002046,940.6563686002046,940.6563686002046,940.6563686002046,940.6563686002046,940.6563686002046,940.6563686002046,940.6563686002046,940.6563686002046,940.6563686002046,940.6563686002046,940.6563686002046,940.6563686002046,940.6563686002046,940.6563686002046,943.1487370000686,943.1487370000686,943.1487370000686,943.1487370000686,943.1487370000686,74,36,55,15,74,59,7.0,1.2301006999332458,944.3953004002105,946.2907434001099,,,,,,,,,,101,f,18,2022-11-25_09h30.54.357,RL,2022.2.4,60.213505059725385,
1,92,0,92,0,,,,,,,,,,None,946.2907434001099,946.2907434001099,946.2907434001099,946.2907434001099,946.2907434001099,946.2907434001099,r,0.34068779996596277,946.6596898001153,946.6596898001153,946.6596898001153,946.6596898001153,946.6596898001153,946.6596898001153,946.9557844002265,946.9557844002265,948.5016751000658,948.5016751000658,948.5016751000658,948.5016751000658,948.5016751000658,948.5016751000658,948.5016751000658,948.5016751000658,948.5016751000658,948.5016751000658,948.5016751000658,948.5016751000658,948.5016751000658,948.5016751000658,948.5016751000658,948.5016751000658,948.5016751000658,951.0114405001514,951.0114405001514,951.0114405001514,951.0114405001514,951.0114405001514,72,34,50,12,72,49,7.0,1.411042100051418,952.4406791001093,954.1857844002079,,,,,,,,,,101,f,18,2022-11-25_09h30.54.357,RL,2022.2.4,60.213505059725385,
1,93,0,93,0,,,,,,,,,,None,954.1857844002079,954.1857844002079,954.1857844002079,954.1857844002079,954.1857844002079,954.1857844002079,r,0.36368070007301867,954.5728143001907,954.5728143001907,954.5728143001907,954.5728143001907,954.5728143001907,954.5728143001907,954.8677545001265,954.8677545001265,956.8456291002221,956.8456291002221,956.8456291002221,956.8456291002221,956.8456291002221,956.8456291002221,956.8456291002221,956.8456291002221,956.8456291002221,956.8456291002221,956.8456291002221,956.8456291002221,956.8456291002221,956.8456291002221,956.8456291002221,956.8456291002221,956.8456291002221,959.3546679001302,959.3546679001302,959.3546679001302,959.3546679001302,959.3546679001302,69,35,61,4,69,55,6.0,0.6155070001259446,959.9862899000291,961.599299600115,,,,,,,,,,101,f,18,2022-11-25_09h30.54.357,RL,2022.2.4,60.213505059725385,
1,94,0,94,0,,,,,,,,,,None,961.599299600115,961.599299600115,961.599299600115,961.599299600115,961.599299600115,961.599299600115,r,0.42949979985132813,962.0479679000564,962.0479679000564,962.0479679000564,962.0479679000564,962.0479679000564,962.0479679000564,962.3470822002273,962.3470822002273,963.6770153001416,963.6770153001416,963.6770153001416,963.6770153001416,963.6770153001416,963.6770153001416,963.6770153001416,963.6770153001416,963.6770153001416,963.6770153001416,963.6770153001416,963.6770153001416,963.6770153001416,963.6770153001416,963.6770153001416,963.6770153001416,963.6770153001416,966.1860152001027,966.1860152001027,966.1860152001027,966.1860152001027,966.1860152001027,73,38,63,13,73,48,7.0,0.76554000005126,966.9673270001076,968.8792575001717,,,,,,,,,,101,f,18,2022-11-25_09h30.54.357,RL,2022.2.4,60.213505059725385,
1,95,0,95,0,,,,,,,,,,None,968.8792575001717,968.8792575001717,968.8792575001717,968.8792575001717,968.8792575001717,968.8792575001717,r,0.3732465000357479,969.2786700001452,969.2786700001452,969.2786700001452,969.2786700001452,969.2786700001452,969.2786700001452,969.5779382002074,969.5779382002074,970.5581560002174,970.5581560002174,970.5581560002174,970.5581560002174,970.5581560002174,970.5581560002174,970.5581560002174,970.5581560002174,970.5581560002174,970.5581560002174,970.5581560002174,970.5581560002174,970.5581560002174,970.5581560002174,970.5581560002174,970.5581560002174,970.5581560002174,973.0671877001878,973.0671877001878,973.0671877001878,973.0671877001878,973.0671877001878,77,39,65,21,77,45,7.0,1.3453393999952823,974.4303373000585,976.2920618001372,,,,,,,,,,101,f,18,2022-11-25_09h30.54.357,RL,2022.2.4,60.213505059725385,
1,96,0,96,0,,,,,,,,,,None,976.2920618001372,976.2920618001372,976.2920618001372,976.2920618001372,976.2920618001372,976.2920618001372,r,0.5603169000241905,976.8749206000939,976.8749206000939,976.8749206000939,976.8749206000939,976.8749206000939,976.8749206000939,977.1737916001584,977.1737916001584,978.0215076000895,978.0215076000895,978.0215076000895,978.0215076000895,978.0215076000895,978.0215076000895,978.0215076000895,978.0215076000895,978.0215076000895,978.0215076000895,978.0215076000895,978.0215076000895,978.0215076000895,978.0215076000895,978.0215076000895,978.0215076000895,978.0215076000895,980.5308758001775,980.5308758001775,980.5308758001775,980.5308758001775,980.5308758001775,73,43,65,9,73,50,7.0,1.2452191999182105,981.7933066000696,983.3895599001553,,,,,,,,,,101,f,18,2022-11-25_09h30.54.357,RL,2022.2.4,60.213505059725385,
1,97,0,97,0,,,,,,,,,,None,983.3895599001553,983.3895599001553,983.3895599001553,983.3895599001553,983.3895599001553,983.3895599001553,f,0.3774332001339644,983.7893621001858,983.7893621001858,983.7893621001858,983.7893621001858,983.7893621001858,983.7893621001858,984.0886570001021,984.0886570001021,985.949631200172,985.949631200172,985.949631200172,985.949631200172,985.949631200172,985.949631200172,985.949631200172,985.949631200172,985.949631200172,985.949631200172,985.949631200172,985.949631200172,985.949631200172,985.949631200172,985.949631200172,985.949631200172,985.949631200172,988.4589772000909,988.4589772000909,988.4589772000909,988.4589772000909,988.4589772000909,78,42,71,2,42,58,3.0,1.4962589000351727,989.9713264000602,991.5174092000816,,,,,,,,,,101,f,18,2022-11-25_09h30.54.357,RL,2022.2.4,60.213505059725385,
1,98,0,98,0,,,,,,,,,,None,991.5174092000816,991.5174092000816,991.5174092000816,991.5174092000816,991.5174092000816,991.5174092000816,r,0.3961364000570029,991.9335028000642,991.9335028000642,991.9335028000642,991.9335028000642,991.9335028000642,991.9335028000642,992.2324825001415,992.2324825001415,993.5957858001348,993.5957858001348,993.5957858001348,993.5957858001348,993.5957858001348,993.5957858001348,993.5957858001348,993.5957858001348,993.5957858001348,993.5957858001348,993.5957858001348,993.5957858001348,993.5957858001348,993.5957858001348,993.5957858001348,993.5957858001348,993.5957858001348,996.1044475000817,996.1044475000817,996.1044475000817,996.1044475000817,996.1044475000817,79,52,58,6,79,49,7.0,1.1286359999794513,997.2514577000402,998.9642312000506,,,,,,,,,,101,f,18,2022-11-25_09h30.54.357,RL,2022.2.4,60.213505059725385,
1,99,0,99,0,,,,,,,,,,None,998.9642312000506,998.9642312000506,998.9642312000506,998.9642312000506,998.9642312000506,998.9642312000506,r,0.2986745999660343,999.2801372001413,999.2801372001413,999.2801372001413,999.2801372001413,999.2801372001413,999.2801372001413,999.5791828001384,999.5791828001384,1001.4243996001314,1001.4243996001314,1001.4243996001314,1001.4243996001314,1001.4243996001314,1001.4243996001314,1001.4243996001314,1001.4243996001314,1001.4243996001314,1001.4243996001314,1001.4243996001314,1001.4243996001314,1001.4243996001314,1001.4243996001314,1001.4243996001314,1001.4243996001314,1001.4243996001314,1003.9328908000607,1003.9328908000607,1003.9328908000607,1003.9328908000607,1003.9328908000607,72,49,62,7,72,51,7.0,1.3782436999026686,1005.3292719000019,1007.2582989002112,,,,,,,,,,101,f,18,2022-11-25_09h30.54.357,RL,2022.2.4,60.213505059725385,
1,100,0,100,0,,,,,,,,,,None,1007.2582989002112,1007.2582989002112,1007.2582989002112,1007.2582989002112,1007.2582989002112,1007.2582989002112,r,0.33726649987511337,1007.6241121001076,1007.6241121001076,1007.6241121001076,1007.6241121001076,1007.6241121001076,1007.6241121001076,1007.9233609000221,1007.9233609000221,1009.9007713000756,1009.9007713000756,1009.9007713000756,1009.9007713000756,1009.9007713000756,1009.9007713000756,1009.9007713000756,1009.9007713000756,1009.9007713000756,1009.9007713000756,1009.9007713000756,1009.9007713000756,1009.9007713000756,1009.9007713000756,1009.9007713000756,1009.9007713000756,1009.9007713000756,1012.4099163000938,1012.4099163000938,1012.4099163000938,1012.4099163000938,1012.4099163000938,77,47,60,11,77,51,7.0,0.8485437999479473,1013.274515800178,1014.9534087001812,,,,,,,,,,101,f,18,2022-11-25_09h30.54.357,RL,2022.2.4,60.213505059725385,
1,101,0,101,0,,,,,,,,,,None,1014.9534087001812,1014.9534087001812,1014.9534087001812,1014.9534087001812,1014.9534087001812,1014.9534087001812,f,0.37534919986501336,1015.354593800148,1015.354593800148,1015.354593800148,1015.354593800148,1015.354593800148,1015.354593800148,1015.6516446000896,1015.6516446000896,1016.7654122000095,1016.7654122000095,1016.7654122000095,1016.7654122000095,1016.7654122000095,1016.7654122000095,1016.7654122000095,1016.7654122000095,1016.7654122000095,1016.7654122000095,1016.7654122000095,1016.7654122000095,1016.7654122000095,1016.7654122000095,1016.7654122000095,1016.7654122000095,1016.7654122000095,1019.274781800108,1019.274781800108,1019.274781800108,1019.274781800108,1019.274781800108,74,43,67,11,43,37,6.0,0.9967648000456393,1020.2883177001495,1022.134133100044,,,,,,,,,,101,f,18,2022-11-25_09h30.54.357,RL,2022.2.4,60.213505059725385,
1,102,0,102,0,,,,,,,,,,None,1022.134133100044,1022.134133100044,1022.134133100044,1022.134133100044,1022.134133100044,1022.134133100044,r,0.278304300038144,1022.4337792000733,1022.4337792000733,1022.4337792000733,1022.4337792000733,1022.4337792000733,1022.4337792000733,1022.7324825001415,1022.7324825001415,1023.9795531001873,1023.9795531001873,1023.9795531001873,1023.9795531001873,1023.9795531001873,1023.9795531001873,1023.9795531001873,1023.9795531001873,1023.9795531001873,1023.9795531001873,1023.9795531001873,1023.9795531001873,1023.9795531001873,1023.9795531001873,1023.9795531001873,1023.9795531001873,1023.9795531001873,1026.488236000063,1026.488236000063,1026.488236000063,1026.488236000063,1026.488236000063,68,54,61,9,68,50,6.0,1.0461883000098169,1027.552331900224,1029.3311294000596,,,,,,,,,,101,f,18,2022-11-25_09h30.54.357,RL,2022.2.4,60.213505059725385,
1,103,0,103,0,,,,,,,,,,None,1029.3311294000596,1029.3311294000596,1029.3311294000596,1029.3311294000596,1029.3311294000596,1029.3311294000596,r,0.2693839001003653,1029.6330413999967,1029.6330413999967,1029.6330413999967,1029.6330413999967,1029.6330413999967,1029.6330413999967,1029.929637100082,1029.929637100082,1031.0097471000627,1031.0097471000627,1031.0097471000627,1031.0097471000627,1031.0097471000627,1031.0097471000627,1031.0097471000627,1031.0097471000627,1031.0097471000627,1031.0097471000627,1031.0097471000627,1031.0097471000627,1031.0097471000627,1031.0097471000627,1031.0097471000627,1031.0097471000627,1031.0097471000627,1033.5189145000186,1033.5189145000186,1033.5189145000186,1033.5189145000186,1033.5189145000186,71,40,66,-1,71,27,7.0,1.0138093000277877,1034.549304400105,1036.5449244000483,,,,,,,,,,101,f,18,2022-11-25_09h30.54.357,RL,2022.2.4,60.213505059725385,
1,104,0,104,0,,,,,,,,,,None,1036.5449244000483,1036.5449244000483,1036.5449244000483,1036.5449244000483,1036.5449244000483,1036.5449244000483,r,0.2893187999725342,1036.8609129001852,1036.8609129001852,1036.8609129001852,1036.8609129001852,1036.8609129001852,1036.8609129001852,1037.1598868002184,1037.1598868002184,1038.3898837000597,1038.3898837000597,1038.3898837000597,1038.3898837000597,1038.3898837000597,1038.3898837000597,1038.3898837000597,1038.3898837000597,1038.3898837000597,1038.3898837000597,1038.3898837000597,1038.3898837000597,1038.3898837000597,1038.3898837000597,1038.3898837000597,1038.3898837000597,1038.3898837000597,1040.898815000197,1040.898815000197,1040.898815000197,1040.898815000197,1040.898815000197,57,58,64,12,57,52,5.0,1.0465534999966621,1041.9628232000396,1043.92437230004,,,,,,,,,,101,f,18,2022-11-25_09h30.54.357,RL,2022.2.4,60.213505059725385,
1,105,0,105,0,,,,,,,,,,None,1043.92437230004,1043.92437230004,1043.92437230004,1043.92437230004,1043.92437230004,1043.92437230004,r,0.32883510016836226,1044.2743541002274,1044.2743541002274,1044.2743541002274,1044.2743541002274,1044.2743541002274,1044.2743541002274,1044.573002200108,1044.573002200108,1045.6369410001207,1045.6369410001207,1045.6369410001207,1045.6369410001207,1045.6369410001207,1045.6369410001207,1045.6369410001207,1045.6369410001207,1045.6369410001207,1045.6369410001207,1045.6369410001207,1045.6369410001207,1045.6369410001207,1045.6369410001207,1045.6369410001207,1045.6369410001207,1045.6369410001207,1048.131314800121,1048.131314800121,1048.131314800121,1048.131314800121,1048.131314800121,61,45,66,10,61,46,6.0,1.0175873001571745,1049.17640090012,1050.8555409000255,,,,,,,,,,101,f,18,2022-11-25_09h30.54.357,RL,2022.2.4,60.213505059725385,
1,106,0,106,0,,,,,,,,,,None,1050.8555409000255,1050.8555409000255,1050.8555409000255,1050.8555409000255,1050.8555409000255,1050.8555409000255,r,0.3807719999458641,1051.256613700185,1051.256613700185,1051.256613700185,1051.256613700185,1051.256613700185,1051.256613700185,1051.553796700202,1051.553796700202,1052.6840664001647,1052.6840664001647,1052.6840664001647,1052.6840664001647,1052.6840664001647,1052.6840664001647,1052.6840664001647,1052.6840664001647,1052.6840664001647,1052.6840664001647,1052.6840664001647,1052.6840664001647,1052.6840664001647,1052.6840664001647,1052.6840664001647,1052.6840664001647,1052.6840664001647,1055.1934029001277,1055.1934029001277,1055.1934029001277,1055.1934029001277,1055.1934029001277,64,53,73,7,64,59,5.0,0.8809331001248211,1056.0907027001958,1057.8866384001449,,,,,,,,,,101,f,18,2022-11-25_09h30.54.357,RL,2022.2.4,60.213505059725385,
1,107,0,107,0,,,,,,,,,,None,1057.8866384001449,1057.8866384001449,1057.8866384001449,1057.8866384001449,1057.8866384001449,1057.8866384001449,r,0.338797900127247,1058.2534974000882,1058.2534974000882,1058.2534974000882,1058.2534974000882,1058.2534974000882,1058.2534974000882,1058.5514129002113,1058.5514129002113,1059.532189000165,1059.532189000165,1059.532189000165,1059.532189000165,1059.532189000165,1059.532189000165,1059.532189000165,1059.532189000165,1059.532189000165,1059.532189000165,1059.532189000165,1059.532189000165,1059.532189000165,1059.532189000165,1059.532189000165,1059.532189000165,1059.532189000165,1062.041066700127,1062.041066700127,1062.041066700127,1062.041066700127,1062.041066700127,65,60,60,15,65,59,5.0,0.9302089000120759,1062.988394100219,1064.768111600075,,,,,,,,,,101,f,18,2022-11-25_09h30.54.357,RL,2022.2.4,60.213505059725385,
1,108,0,108,0,,,,,,,,,,None,1064.768111600075,1064.768111600075,1064.768111600075,1064.768111600075,1064.768111600075,1064.768111600075,f,0.3063688001129776,1065.100485500181,1065.100485500181,1065.100485500181,1065.100485500181,1065.100485500181,1065.100485500181,1065.3994367001578,1065.3994367001578,1067.2609061000403,1067.2609061000403,1067.2609061000403,1067.2609061000403,1067.2609061000403,1067.2609061000403,1067.2609061000403,1067.2609061000403,1067.2609061000403,1067.2609061000403,1067.2609061000403,1067.2609061000403,1067.2609061000403,1067.2609061000403,1067.2609061000403,1067.2609061000403,1067.2609061000403,1069.7700229000766,1069.7700229000766,1069.7700229000766,1069.7700229000766,1069.7700229000766,59,50,53,8,50,46,5.0,0.6973356001544744,1070.4846550000366,1072.0149820002262,,,,,,,,,,101,f,18,2022-11-25_09h30.54.357,RL,2022.2.4,60.213505059725385,
1,109,0,109,0,,,,,,,,,,None,1072.0149820002262,1072.0149820002262,1072.0149820002262,1072.0149820002262,1072.0149820002262,1072.0149820002262,r,0.3685467999894172,1072.4141212000977,1072.4141212000977,1072.4141212000977,1072.4141212000977,1072.4141212000977,1072.4141212000977,1072.7131571001373,1072.7131571001373,1073.9762149001472,1073.9762149001472,1073.9762149001472,1073.9762149001472,1073.9762149001472,1073.9762149001472,1073.9762149001472,1073.9762149001472,1073.9762149001472,1073.9762149001472,1073.9762149001472,1073.9762149001472,1073.9762149001472,1073.9762149001472,1073.9762149001472,1073.9762149001472,1073.9762149001472,1076.4849675002042,1076.4849675002042,1076.4849675002042,1076.4849675002042,1076.4849675002042,58,54,54,18,58,65,3.0,0.6483189000282437,1077.150198200019,1078.679687900003,,,,,,,,,,101,f,18,2022-11-25_09h30.54.357,RL,2022.2.4,60.213505059725385,
1,110,0,110,0,,,,,,,,,,None,1078.679687900003,1078.679687900003,1078.679687900003,1078.679687900003,1078.679687900003,1078.679687900003,j,0.28835990000516176,1079.0016544000246,1079.0016544000246,1079.0016544000246,1079.0016544000246,1079.0016544000246,1079.0016544000246,1079.2948068000842,1079.2948068000842,1080.175711700227,1080.175711700227,1080.175711700227,1080.175711700227,1080.175711700227,1080.175711700227,1080.175711700227,1080.175711700227,1080.175711700227,1080.175711700227,1080.175711700227,1080.175711700227,1080.175711700227,1080.175711700227,1080.175711700227,1080.175711700227,1080.175711700227,1082.6848884001374,1082.6848884001374,1082.6848884001374,1082.6848884001374,1082.6848884001374,67,61,59,8,8,65,6.0,2.0613408000208437,1084.7624207001645,1086.3753986000083,,,,,,,,,,101,f,18,2022-11-25_09h30.54.357,RL,2022.2.4,60.213505059725385,
1,111,0,111,0,,,,,,,,,,None,1086.3753986000083,1086.3753986000083,1086.3753986000083,1086.3753986000083,1086.3753986000083,1086.3753986000083,r,0.32149899983778596,1086.7276313002221,1086.7276313002221,1086.7276313002221,1086.7276313002221,1086.7276313002221,1086.7276313002221,1087.023937200196,1087.023937200196,1088.4699038001709,1088.4699038001709,1088.4699038001709,1088.4699038001709,1088.4699038001709,1088.4699038001709,1088.4699038001709,1088.4699038001709,1088.4699038001709,1088.4699038001709,1088.4699038001709,1088.4699038001709,1088.4699038001709,1088.4699038001709,1088.4699038001709,1088.4699038001709,1088.4699038001709,1090.9789147002157,1090.9789147002157,1090.9789147002157,1090.9789147002157,1090.9789147002157,65,52,51,16,65,62,4.0,1.6634945999830961,1092.657637400087,1094.5529665001668,,,,,,,,,,101,f,18,2022-11-25_09h30.54.357,RL,2022.2.4,60.213505059725385,
1,112,0,112,0,,,,,,,,,,None,1094.5529665001668,1094.5529665001668,1094.5529665001668,1094.5529665001668,1094.5529665001668,1094.5529665001668,r,0.3255200998391956,1094.9039243001025,1094.9039243001025,1094.9039243001025,1094.9039243001025,1094.9039243001025,1094.9039243001025,1095.2015466000885,1095.2015466000885,1096.8304724001791,1096.8304724001791,1096.8304724001791,1096.8304724001791,1096.8304724001791,1096.8304724001791,1096.8304724001791,1096.8304724001791,1096.8304724001791,1096.8304724001791,1096.8304724001791,1096.8304724001791,1096.8304724001791,1096.8304724001791,1096.8304724001791,1096.8304724001791,1096.8304724001791,1099.3393766002264,1099.3393766002264,1099.3393766002264,1099.3393766002264,1099.3393766002264,70,48,53,8,70,71,4.0,0.9490143000148237,1100.3037031001877,1101.9329521001782,,,,,,,,,,101,f,18,2022-11-25_09h30.54.357,RL,2022.2.4,60.213505059725385,
1,113,0,113,0,,,,,,,,,,None,1101.9329521001782,1101.9329521001782,1101.9329521001782,1101.9329521001782,1101.9329521001782,1101.9329521001782,r,0.27999119996093214,1102.233885300113,1102.233885300113,1102.233885300113,1102.233885300113,1102.233885300113,1102.233885300113,1102.5315292000305,1102.5315292000305,1103.3625241001137,1103.3625241001137,1103.3625241001137,1103.3625241001137,1103.3625241001137,1103.3625241001137,1103.3625241001137,1103.3625241001137,1103.3625241001137,1103.3625241001137,1103.3625241001137,1103.3625241001137,1103.3625241001137,1103.3625241001137,1103.3625241001137,1103.3625241001137,1103.3625241001137,1105.8719576001167,1105.8719576001167,1105.8719576001167,1105.8719576001167,1105.8719576001167,68,55,55,13,68,47,5.0,0.7638858000282198,1106.652774900198,1108.2490524000023,,,,,,,,,,101,f,18,2022-11-25_09h30.54.357,RL,2022.2.4,60.213505059725385,
1,114,0,114,0,,,,,,,,,,None,1108.2490524000023,1108.2490524000023,1108.2490524000023,1108.2490524000023,1108.2490524000023,1108.2490524000023,r,0.5430777000728995,1108.8145467001013,1108.8145467001013,1108.8145467001013,1108.8145467001013,1108.8145467001013,1108.8145467001013,1109.1135290001985,1109.1135290001985,1111.02538440004,1111.02538440004,1111.02538440004,1111.02538440004,1111.02538440004,1111.02538440004,1111.02538440004,1111.02538440004,1111.02538440004,1111.02538440004,1111.02538440004,1111.02538440004,1111.02538440004,1111.02538440004,1111.02538440004,1111.02538440004,1111.02538440004,1113.5339613000397,1113.5339613000397,1113.5339613000397,1113.5339613000397,1113.5339613000397,66,63,44,16,66,65,5.0,0.616272300016135,1114.1654761000536,1115.7784994000103,,,,,,,,,,101,f,18,2022-11-25_09h30.54.357,RL,2022.2.4,60.213505059725385,
