bandit,trials.thisRepN,trials.thisTrialN,trials.thisN,trials.thisIndex,instru_img1.started,instru_resp.started,instru_resp.keys,instru_resp.rt,instru_img2.started,instru_resp2.started,instru_resp2.keys,instru_resp2.rt,fixbefore_2.started,rest_response.keys,red.started,green.started,yellow.started,blue.started,choose_bandit.started,Fixation.started,choose_bandit.keys,choose_bandit.rt,black.started,red_2.started,green_2.started,yellow_2.started,blue_2.started,fixation_2.started,docs.started,image_2.started,docs.stopped,image_2.stopped,black.stopped,red_2.stopped,green_2.stopped,yellow_2.stopped,blue_2.stopped,fixation_2.stopped,black_com.started,reward_sub.started,palyerb.started,reward__sub.started,compare.started,red_compare.started,green_com.started,yellow_com.started,blue_com.started,image_3.started,slider.started,text.started,image_4.started,image_5.started,rewardyellow,rewardred,rewardblue,rewardgreen,subchoose,playerb,slider.response,slider.rt,intertrialfix.started,intertrialfix.stopped,rest_image.started,rest_response.started,rest_response.rt,image.started,key_resp.started,key_resp.keys,key_resp.rt,participant,Gender,Age,date,expName,psychopyVersion,frameRate,
,,,,,27.030220283952076,27.030220283952076,space,9.78126354701817,,,,,,,,,,,,,,,,,,,,,,,,,,,,,,,,,,,,,,,,,,,,,,,,,,,,,,,,,,,,,,102,f,25,2022-11-25_09h32.03.107,RL,2022.2.4,None,
,,,,,,,,,36.9060223599663,36.9060223599663,space,16.728431362018455,,,,,,,,,,,,,,,,,,,,,,,,,,,,,,,,,,,,,,,,,,,,,,,,,,,,,,,,,,102,f,25,2022-11-25_09h32.03.107,RL,2022.2.4,None,
1,0,0,0,0,,,,,,,,,53.75634748698212,None,54.78019347100053,54.78019347100053,54.78019347100053,54.78019347100053,54.78019347100053,54.78019347100053,r,1.0805527059710585,55.99941448197933,55.99941448197933,55.99941448197933,55.99941448197933,55.99941448197933,55.99941448197933,56.236649272963405,56.236649272963405,57.29498170898296,57.29498170898296,57.390306729997974,57.390306729997974,57.390306729997974,57.390306729997974,57.390306729997974,57.390306729997974,57.390306729997974,57.390306729997974,57.390306729997974,57.390306729997974,57.390306729997974,57.390306729997974,57.390306729997974,57.390306729997974,57.390306729997974,59.880912545952015,59.880912545952015,59.880912545952015,59.880912545952015,59.880912545952015,60,29,37,61,60,22,7.0,2.4542436960036866,62.40686469495995,64.3374386089854,,,,,,,,102,f,25,2022-11-25_09h32.03.107,RL,2022.2.4,None,
1,1,0,1,0,,,,,,,,,,None,64.3374386089854,64.3374386089854,64.3374386089854,64.3374386089854,64.3374386089854,64.3374386089854,f,0.8868874459876679,65.3240229509538,65.3240229509538,65.3240229509538,65.3240229509538,65.3240229509538,65.3240229509538,65.59960634197341,65.59960634197341,67.36641206295462,67.36641206295462,67.40629083797103,67.40629083797103,67.40629083797103,67.40629083797103,67.40629083797103,67.40629083797103,67.40629083797103,67.40629083797103,67.40629083797103,67.40629083797103,67.40629083797103,67.40629083797103,67.40629083797103,67.40629083797103,67.40629083797103,69.91911419195822,69.91911419195822,69.91911419195822,69.91911419195822,69.91911419195822,63,26,43,61,26,67,4.0,1.9482547559891827,71.90783796895994,73.87948791199597,,,,,,,,102,f,25,2022-11-25_09h32.03.107,RL,2022.2.4,None,
1,2,0,2,0,,,,,,,,,,None,73.87948791199597,73.87948791199597,73.87948791199597,73.87948791199597,73.87948791199597,73.87948791199597,j,0.7719245629850775,74.80880188400624,74.80880188400624,74.80880188400624,74.80880188400624,74.80880188400624,74.80880188400624,75.0359550639987,75.0359550639987,76.96650035498897,76.96650035498897,77.06019993295195,77.06019993295195,77.06019993295195,77.06019993295195,77.06019993295195,77.06019993295195,77.06019993295195,77.06019993295195,77.06019993295195,77.06019993295195,77.06019993295195,77.06019993295195,77.06019993295195,77.06019993295195,77.06019993295195,79.58843415096635,79.58843415096635,79.58843415096635,79.58843415096635,79.58843415096635,52,15,47,60,60,58,6.0,1.8748945269617252,81.49541843595216,83.34901554696262,,,,,,,,102,f,25,2022-11-25_09h32.03.107,RL,2022.2.4,None,
1,3,0,3,0,,,,,,,,,,None,83.34901554696262,83.34901554696262,83.34901554696262,83.34901554696262,83.34901554696262,83.34901554696262,i,0.44927522900979966,83.94538396800635,83.94538396800635,83.94538396800635,83.94538396800635,83.94538396800635,83.94538396800635,84.13603089796379,84.13603089796379,86.09545144200092,86.09545144200092,86.23894976597512,86.23894976597512,86.23894976597512,86.23894976597512,86.23894976597512,86.23894976597512,86.23894976597512,86.23894976597512,86.23894976597512,86.23894976597512,86.23894976597512,86.23894976597512,86.23894976597512,86.23894976597512,86.23894976597512,88.72912314895075,88.72912314895075,88.72912314895075,88.72912314895075,88.72912314895075,58,21,54,65,54,57,6.0,2.087558811996132,90.84790311096003,92.8377174299676,,,,,,,,102,f,25,2022-11-25_09h32.03.107,RL,2022.2.4,None,
1,4,0,4,0,,,,,,,,,,None,92.8377174299676,92.8377174299676,92.8377174299676,92.8377174299676,92.8377174299676,92.8377174299676,i,0.5872008680016734,93.56239574495703,93.56239574495703,93.56239574495703,93.56239574495703,93.56239574495703,93.56239574495703,93.756132074981,93.756132074981,95.2748643590021,95.2748643590021,95.40775124897482,95.40775124897482,95.40775124897482,95.40775124897482,95.40775124897482,95.40775124897482,95.40775124897482,95.40775124897482,95.40775124897482,95.40775124897482,95.40775124897482,95.40775124897482,95.40775124897482,95.40775124897482,95.40775124897482,97.91576000099303,97.91576000099303,97.91576000099303,97.91576000099303,97.91576000099303,48,15,49,58,49,58,6.0,1.553207390010357,99.50178738799877,101.21661553700687,,,,,,,,102,f,25,2022-11-25_09h32.03.107,RL,2022.2.4,None,
1,5,0,5,0,,,,,,,,,,None,101.21661553700687,101.21661553700687,101.21661553700687,101.21661553700687,101.21661553700687,101.21661553700687,f,0.7272972149658017,102.03316808096133,102.03316808096133,102.03316808096133,102.03316808096133,102.03316808096133,102.03316808096133,102.32448365696473,102.32448365696473,103.4045011709677,103.4045011709677,103.4045011709677,103.4045011709677,103.4045011709677,103.4045011709677,103.4045011709677,103.4045011709677,103.4045011709677,103.4045011709677,103.4045011709677,103.4045011709677,103.4045011709677,103.4045011709677,103.4045011709677,103.4045011709677,103.4045011709677,105.90887850796571,105.90887850796571,105.90887850796571,105.90887850796571,105.90887850796571,56,17,42,59,17,51,6.0,0.8113010649685748,106.77482918399619,108.75754356500693,,,,,,,,102,f,25,2022-11-25_09h32.03.107,RL,2022.2.4,None,
1,6,0,6,0,,,,,,,,,,None,108.75754356500693,108.75754356500693,108.75754356500693,108.75754356500693,108.75754356500693,108.75754356500693,r,0.37238040700322017,109.20551472797524,109.20551472797524,109.20551472797524,109.20551472797524,109.20551472797524,109.20551472797524,109.50753368798178,109.50753368798178,110.36956798098981,110.36956798098981,110.36956798098981,110.36956798098981,110.36956798098981,110.36956798098981,110.36956798098981,110.36956798098981,110.36956798098981,110.36956798098981,110.36956798098981,110.36956798098981,110.36956798098981,110.36956798098981,110.36956798098981,110.36956798098981,110.36956798098981,112.90559093799675,112.90559093799675,112.90559093799675,112.90559093799675,112.90559093799675,69,3,44,57,69,46,6.0,1.2981362649588846,114.22692036395893,116.09428199997637,,,,,,,,102,f,25,2022-11-25_09h32.03.107,RL,2022.2.4,None,
1,7,0,7,0,,,,,,,,,,None,116.09428199997637,116.09428199997637,116.09428199997637,116.09428199997637,116.09428199997637,116.09428199997637,r,0.4192299580317922,116.6399530939525,116.6399530939525,116.6399530939525,116.6399530939525,116.6399530939525,116.6399530939525,116.8493104299996,116.8493104299996,118.43293541495223,118.43293541495223,118.47721995197935,118.47721995197935,118.47721995197935,118.47721995197935,118.47721995197935,118.47721995197935,118.47721995197935,118.47721995197935,118.47721995197935,118.47721995197935,118.47721995197935,118.47721995197935,118.47721995197935,118.47721995197935,118.47721995197935,120.99322809895966,120.99322809895966,120.99322809895966,120.99322809895966,120.99322809895966,56,14,50,49,56,38,6.0,1.233698717027437,122.27774817298632,124.14611315896036,,,,,,,,102,f,25,2022-11-25_09h32.03.107,RL,2022.2.4,None,
1,8,0,8,0,,,,,,,,,,None,124.14611315896036,124.14611315896036,124.14611315896036,124.14611315896036,124.14611315896036,124.14611315896036,j,0.6585295400000177,124.96466670598602,124.96466670598602,124.96466670598602,124.96466670598602,124.96466670598602,124.96466670598602,125.18720315798419,125.18720315798419,126.36781686195172,126.36781686195172,126.47669252898777,126.47669252898777,126.47669252898777,126.47669252898777,126.47669252898777,126.47669252898777,126.47669252898777,126.47669252898777,126.47669252898777,126.47669252898777,126.47669252898777,126.47669252898777,126.47669252898777,126.47669252898777,126.47669252898777,128.99361587699968,128.99361587699968,128.99361587699968,128.99361587699968,128.99361587699968,65,16,41,50,50,41,6.0,1.3816173250088468,130.3970434209914,132.2645043869852,,,,,,,,102,f,25,2022-11-25_09h32.03.107,RL,2022.2.4,None,
1,9,0,9,0,,,,,,,,,,None,132.2645043869852,132.2645043869852,132.2645043869852,132.2645043869852,132.2645043869852,132.2645043869852,j,0.5349038610002026,132.93702804797795,132.93702804797795,132.93702804797795,132.93702804797795,132.93702804797795,132.93702804797795,133.1827677289839,133.1827677289839,134.93514737900114,134.93514737900114,135.01643305196194,135.01643305196194,135.01643305196194,135.01643305196194,135.01643305196194,135.01643305196194,135.01643305196194,135.01643305196194,135.01643305196194,135.01643305196194,135.01643305196194,135.01643305196194,135.01643305196194,135.01643305196194,135.01643305196194,137.52085372200236,137.52085372200236,137.52085372200236,137.52085372200236,137.52085372200236,64,22,43,56,56,48,6.0,1.4947351200389676,139.04778168798657,141.0191477329936,,,,,,,,102,f,25,2022-11-25_09h32.03.107,RL,2022.2.4,None,
1,10,0,10,0,,,,,,,,,,None,141.0191477329936,141.0191477329936,141.0191477329936,141.0191477329936,141.0191477329936,141.0191477329936,f,0.39999055000953376,141.52404315199237,141.52404315199237,141.52404315199237,141.52404315199237,141.52404315199237,141.52404315199237,141.7986550659989,141.7986550659989,143.46957188099623,143.46957188099623,143.54099897295237,143.54099897295237,143.54099897295237,143.54099897295237,143.54099897295237,143.54099897295237,143.54099897295237,143.54099897295237,143.54099897295237,143.54099897295237,143.54099897295237,143.54099897295237,143.54099897295237,143.54099897295237,143.54099897295237,146.0205544329947,146.0205544329947,146.0205544329947,146.0205544329947,146.0205544329947,62,14,48,64,14,55,6.0,1.1020711440360174,147.17264928098302,149.18005875399103,,,,,,,,102,f,25,2022-11-25_09h32.03.107,RL,2022.2.4,None,
1,11,0,11,0,,,,,,,,,,None,149.18005875399103,149.18005875399103,149.18005875399103,149.18005875399103,149.18005875399103,149.18005875399103,i,0.4423859340022318,149.69001550599933,149.69001550599933,149.69001550599933,149.69001550599933,149.69001550599933,149.69001550599933,149.9820397309959,149.9820397309959,151.02850580395898,151.02850580395898,151.02850580395898,151.02850580395898,151.02850580395898,151.02850580395898,151.02850580395898,151.02850580395898,151.02850580395898,151.02850580395898,151.02850580395898,151.02850580395898,151.02850580395898,151.02850580395898,151.02850580395898,151.02850580395898,151.02850580395898,153.52787209296366,153.52787209296366,153.52787209296366,153.52787209296366,153.52787209296366,63,18,57,58,57,54,6.0,1.5567796389805153,155.12953316100175,156.90756744297687,,,,,,,,102,f,25,2022-11-25_09h32.03.107,RL,2022.2.4,None,
1,12,0,12,0,,,,,,,,,,None,156.90756744297687,156.90756744297687,156.90756744297687,156.90756744297687,156.90756744297687,156.90756744297687,i,0.8208324440056458,157.8140644269879,157.8140644269879,157.8140644269879,157.8140644269879,157.8140644269879,157.8140644269879,158.075386374956,158.075386374956,159.84878593398025,159.84878593398025,159.9006089839968,159.9006089839968,159.9006089839968,159.9006089839968,159.9006089839968,159.9006089839968,159.9006089839968,159.9006089839968,159.9006089839968,159.9006089839968,159.9006089839968,159.9006089839968,159.9006089839968,159.9006089839968,159.9006089839968,162.41920447000302,162.41920447000302,162.41920447000302,162.41920447000302,162.41920447000302,68,18,53,54,53,26,7.0,1.8049195039784536,164.29691463097697,165.89991154096788,,,,,,,,102,f,25,2022-11-25_09h32.03.107,RL,2022.2.4,None,
1,13,0,13,0,,,,,,,,,,None,165.89991154096788,165.89991154096788,165.89991154096788,165.89991154096788,165.89991154096788,165.89991154096788,r,0.43240634398534894,166.4400306280004,166.4400306280004,166.4400306280004,166.4400306280004,166.4400306280004,166.4400306280004,166.7009208749514,166.7009208749514,168.68691491597565,168.68691491597565,168.73428171599517,168.73428171599517,168.73428171599517,168.73428171599517,168.73428171599517,168.73428171599517,168.73428171599517,168.73428171599517,168.73428171599517,168.73428171599517,168.73428171599517,168.73428171599517,168.73428171599517,168.73428171599517,168.73428171599517,171.28340691997437,171.28340691997437,171.28340691997437,171.28340691997437,171.28340691997437,73,26,57,44,73,46,7.0,1.5728526039747521,172.89973599999212,174.86665390298003,,,,,,,,102,f,25,2022-11-25_09h32.03.107,RL,2022.2.4,None,
1,14,0,14,0,,,,,,,,,,None,174.86665390298003,174.86665390298003,174.86665390298003,174.86665390298003,174.86665390298003,174.86665390298003,j,0.4883617029991001,175.4317467319779,175.4317467319779,175.4317467319779,175.4317467319779,175.4317467319779,175.4317467319779,175.72111722896807,175.72111722896807,177.486835683987,177.486835683987,177.486835683987,177.486835683987,177.486835683987,177.486835683987,177.486835683987,177.486835683987,177.486835683987,177.486835683987,177.486835683987,177.486835683987,177.486835683987,177.486835683987,177.486835683987,177.486835683987,177.486835683987,180.01326118898578,180.01326118898578,180.01326118898578,180.01326118898578,180.01326118898578,74,18,57,52,52,26,7.0,1.3631217670044862,181.44521332898876,183.39865647797706,,,,,,,,102,f,25,2022-11-25_09h32.03.107,RL,2022.2.4,None,
1,15,0,15,0,,,,,,,,,,None,183.39865647797706,183.39865647797706,183.39865647797706,183.39865647797706,183.39865647797706,183.39865647797706,r,0.5762001409893855,184.08183755498612,184.08183755498612,184.08183755498612,184.08183755498612,184.08183755498612,184.08183755498612,184.32535137899686,184.32535137899686,185.9611475080019,185.9611475080019,186.07975866197376,186.07975866197376,186.07975866197376,186.07975866197376,186.07975866197376,186.07975866197376,186.07975866197376,186.07975866197376,186.07975866197376,186.07975866197376,186.07975866197376,186.07975866197376,186.07975866197376,186.07975866197376,186.07975866197376,188.58940648997668,188.58940648997668,188.58940648997668,188.58940648997668,188.58940648997668,70,24,75,48,70,44,7.0,0.7874826499610208,189.39091962896055,191.38432935997844,,,,,,,,102,f,25,2022-11-25_09h32.03.107,RL,2022.2.4,None,
1,16,0,16,0,,,,,,,,,,None,191.38432935997844,191.38432935997844,191.38432935997844,191.38432935997844,191.38432935997844,191.38432935997844,r,0.30115292698610574,191.78009669395396,191.78009669395396,191.78009669395396,191.78009669395396,191.78009669395396,191.78009669395396,192.0672717349953,192.0672717349953,193.89353578200098,193.89353578200098,193.89353578200098,193.89353578200098,193.89353578200098,193.89353578200098,193.89353578200098,193.89353578200098,193.89353578200098,193.89353578200098,193.89353578200098,193.89353578200098,193.89353578200098,193.89353578200098,193.89353578200098,193.89353578200098,193.89353578200098,196.41553765296703,196.41553765296703,196.41553765296703,196.41553765296703,196.41553765296703,73,23,71,55,73,22,7.0,1.4006583060254343,197.83306456595892,199.81260532396846,,,,,,,,102,f,25,2022-11-25_09h32.03.107,RL,2022.2.4,None,
1,17,0,17,0,,,,,,,,,,None,199.81260532396846,199.81260532396846,199.81260532396846,199.81260532396846,199.81260532396846,199.81260532396846,i,0.6789155810256489,200.5675802329788,200.5675802329788,200.5675802329788,200.5675802329788,200.5675802329788,200.5675802329788,200.821954162966,200.821954162966,202.68468451796798,202.68468451796798,202.71583753399318,202.71583753399318,202.71583753399318,202.71583753399318,202.71583753399318,202.71583753399318,202.71583753399318,202.71583753399318,202.71583753399318,202.71583753399318,202.71583753399318,202.71583753399318,202.71583753399318,202.71583753399318,202.71583753399318,205.26297673297813,205.26297673297813,205.26297673297813,205.26297673297813,205.26297673297813,63,24,75,48,75,27,7.0,1.4230559330317192,206.71542985597625,208.539168941963,,,,,,,,102,f,25,2022-11-25_09h32.03.107,RL,2022.2.4,None,
1,18,0,18,0,,,,,,,,,,None,208.539168941963,208.539168941963,208.539168941963,208.539168941963,208.539168941963,208.539168941963,i,0.28076779801631346,208.91884644899983,208.91884644899983,208.91884644899983,208.91884644899983,208.91884644899983,208.91884644899983,209.25260746100685,209.25260746100685,210.9123556590057,210.9123556590057,210.87105177296326,210.87105177296326,210.87105177296326,210.87105177296326,210.87105177296326,210.87105177296326,210.9123556590057,210.9123556590057,210.9123556590057,210.9123556590057,210.9123556590057,210.9123556590057,210.9123556590057,210.9123556590057,210.9123556590057,213.40542254695902,213.40542254695902,213.40542254695902,213.40542254695902,213.40542254695902,60,17,72,45,72,49,7.0,1.471679784997832,214.92213458399056,216.80004922498483,,,,,,,,102,f,25,2022-11-25_09h32.03.107,RL,2022.2.4,None,
1,19,0,19,0,,,,,,,,,,None,216.80004922498483,216.80004922498483,216.80004922498483,216.80004922498483,216.80004922498483,216.80004922498483,j,0.2861807020381093,217.2310718059889,217.2310718059889,217.2310718059889,217.2310718059889,217.2310718059889,217.2310718059889,217.4750555329956,217.4750555329956,219.08227747597266,219.08227747597266,219.1211534589529,219.1211534589529,219.1211534589529,219.1211534589529,219.1211534589529,219.1211534589529,219.1211534589529,219.1211534589529,219.1211534589529,219.1211534589529,219.1211534589529,219.1211534589529,219.1211534589529,219.1211534589529,219.1211534589529,221.62446565396385,221.62446565396385,221.62446565396385,221.62446565396385,221.62446565396385,57,17,66,38,38,54,6.0,1.6122745979810134,223.29203391296323,225.32520138297696,,,,,,,,102,f,25,2022-11-25_09h32.03.107,RL,2022.2.4,None,
1,20,0,20,0,,,,,,,,,,None,225.32520138297696,225.32520138297696,225.32520138297696,225.32520138297696,225.32520138297696,225.32520138297696,i,0.49580959300510585,225.90221434499836,225.90221434499836,225.90221434499836,225.90221434499836,225.90221434499836,225.90221434499836,226.16637727298075,226.16637727298075,227.15851788496366,227.15851788496366,227.25734687194927,227.25734687194927,227.25734687194927,227.25734687194927,227.25734687194927,227.25734687194927,227.25734687194927,227.25734687194927,227.25734687194927,227.25734687194927,227.25734687194927,227.25734687194927,227.25734687194927,227.25734687194927,227.25734687194927,229.7749444329529,229.7749444329529,229.7749444329529,229.7749444329529,229.7749444329529,66,16,68,54,68,64,7.0,1.5682326740352437,231.3655307519948,232.97892543900525,,,,,,,,102,f,25,2022-11-25_09h32.03.107,RL,2022.2.4,None,
1,21,0,21,0,,,,,,,,,,None,232.97892543900525,232.97892543900525,232.97892543900525,232.97892543900525,232.97892543900525,232.97892543900525,f,0.3669251030078158,233.42493747995468,233.42493747995468,233.42493747995468,233.42493747995468,233.42493747995468,233.42493747995468,233.68960172799416,233.68960172799416,235.42066821397748,235.42066821397748,235.4657642020029,235.4657642020029,235.4657642020029,235.4657642020029,235.4657642020029,235.4657642020029,235.4657642020029,235.4657642020029,235.4657642020029,235.4657642020029,235.4657642020029,235.4657642020029,235.4657642020029,235.4657642020029,235.4657642020029,237.9963991699624,237.9963991699624,237.9963991699624,237.9963991699624,237.9963991699624,60,16,68,52,16,36,7.0,1.131456304981839,239.17110899300314,240.9151907149935,,,,,,,,102,f,25,2022-11-25_09h32.03.107,RL,2022.2.4,None,
1,22,0,22,0,,,,,,,,,,None,240.9151907149935,240.9151907149935,240.9151907149935,240.9151907149935,240.9151907149935,240.9151907149935,j,0.4297627460327931,241.44174604996806,241.44174604996806,241.44174604996806,241.44174604996806,241.44174604996806,241.44174604996806,241.72467270097695,241.72467270097695,243.6473754409817,243.6473754409817,243.6473754409817,243.6473754409817,243.6473754409817,243.6473754409817,243.6473754409817,243.6473754409817,243.6473754409817,243.6473754409817,243.6473754409817,243.6473754409817,243.6473754409817,243.6473754409817,243.6473754409817,243.6473754409817,243.6473754409817,246.16580956295365,246.16580956295365,246.16580956295365,246.16580956295365,246.16580956295365,75,15,75,46,46,57,7.0,0.6201150889974087,246.81729888595873,248.4579822109663,,,,,,,,102,f,25,2022-11-25_09h32.03.107,RL,2022.2.4,None,
1,23,0,23,0,,,,,,,,,,None,248.4579822109663,248.4579822109663,248.4579822109663,248.4579822109663,248.4579822109663,248.4579822109663,r,0.5737662690225989,249.1242837169557,249.1242837169557,249.1242837169557,249.1242837169557,249.1242837169557,249.1242837169557,249.39807170495624,249.39807170495624,251.1081033249502,251.1081033249502,251.1081033249502,251.1081033249502,251.1081033249502,251.1081033249502,251.1081033249502,251.1081033249502,251.1081033249502,251.1081033249502,251.1081033249502,251.1081033249502,251.1081033249502,251.1081033249502,251.1081033249502,251.1081033249502,251.1081033249502,253.63351276598405,253.63351276598405,253.63351276598405,253.63351276598405,253.63351276598405,73,17,69,51,73,51,7.0,1.5087945709819905,255.18487745599123,256.807100437989,,,,,,,,102,f,25,2022-11-25_09h32.03.107,RL,2022.2.4,None,
1,24,0,24,0,,,,,,,,,,None,256.807100437989,256.807100437989,256.807100437989,256.807100437989,256.807100437989,256.807100437989,j,0.5091955799725838,257.4378058659495,257.4378058659495,257.4378058659495,257.4378058659495,257.4378058659495,257.4378058659495,257.6626773799653,257.6626773799653,259.4158082539798,259.4158082539798,259.51653079199605,259.51653079199605,259.51653079199605,259.51653079199605,259.51653079199605,259.51653079199605,259.51653079199605,259.51653079199605,259.51653079199605,259.51653079199605,259.51653079199605,259.51653079199605,259.51653079199605,259.51653079199605,259.51653079199605,262.0062327689957,262.0062327689957,262.0062327689957,262.0062327689957,262.0062327689957,68,19,66,64,64,59,7.0,1.057794795022346,263.1161771079642,264.9794534009998,,,,,,,,102,f,25,2022-11-25_09h32.03.107,RL,2022.2.4,None,
1,25,0,25,0,,,,,,,,,,None,264.9794534009998,264.9794534009998,264.9794534009998,264.9794534009998,264.9794534009998,264.9794534009998,f,0.22311454900773242,265.30025997100165,265.30025997100165,265.30025997100165,265.30025997100165,265.30025997100165,265.30025997100165,265.57181002100697,265.57181002100697,266.9004651779542,266.9004651779542,266.94366347295,266.94366347295,266.94366347295,266.94366347295,266.94366347295,266.94366347295,266.94366347295,266.94366347295,266.94366347295,266.94366347295,266.94366347295,266.94366347295,266.94366347295,266.94366347295,266.94366347295,269.4674374239985,269.4674374239985,269.4674374239985,269.4674374239985,269.4674374239985,68,20,69,55,20,65,7.0,0.829363539989572,270.34603768296074,272.3044433769537,,,,,,,,102,f,25,2022-11-25_09h32.03.107,RL,2022.2.4,None,
1,26,0,26,0,,,,,,,,,,None,272.3044433769537,272.3044433769537,272.3044433769537,272.3044433769537,272.3044433769537,272.3044433769537,i,0.45324532804079354,272.8262106459588,272.8262106459588,272.8262106459588,272.8262106459588,272.8262106459588,272.8262106459588,273.1062300729682,273.1062300729682,274.40438607899705,274.40438607899705,274.4662785019609,274.4662785019609,274.4662785019609,274.4662785019609,274.4662785019609,274.4662785019609,274.4662785019609,274.4662785019609,274.4662785019609,274.4662785019609,274.4662785019609,274.4662785019609,274.4662785019609,274.4662785019609,274.4662785019609,276.9800391829922,276.9800391829922,276.9800391829922,276.9800391829922,276.9800391829922,62,27,70,52,70,63,7.0,1.4158005180070177,278.43029441399267,280.3210533919628,,,,,,,,102,f,25,2022-11-25_09h32.03.107,RL,2022.2.4,None,
1,27,0,27,0,,,,,,,,,,None,280.3210533919628,280.3210533919628,280.3210533919628,280.3210533919628,280.3210533919628,280.3210533919628,r,0.6916051650187001,281.08154829900013,281.08154829900013,281.08154829900013,281.08154829900013,281.08154829900013,281.08154829900013,281.37260522000724,281.37260522000724,282.4431206919835,282.4431206919835,282.4876707599615,282.4876707599615,282.4876707599615,282.4876707599615,282.4876707599615,282.4876707599615,282.4876707599615,282.4876707599615,282.4876707599615,282.4876707599615,282.4876707599615,282.4876707599615,282.4876707599615,282.4876707599615,282.4876707599615,285.0152537939721,285.0152537939721,285.0152537939721,285.0152537939721,285.0152537939721,81,26,73,57,81,25,7.0,0.8447762580472045,285.89269899996,287.6525036729872,,,,,,,,102,f,25,2022-11-25_09h32.03.107,RL,2022.2.4,None,
1,28,0,28,0,,,,,,,,,,None,287.6525036729872,287.6525036729872,287.6525036729872,287.6525036729872,287.6525036729872,287.6525036729872,i,0.5271257639979012,288.2461302909651,288.2461302909651,288.2461302909651,288.2461302909651,288.2461302909651,288.2461302909651,288.5531908329576,288.5531908329576,290.35950443998445,290.35950443998445,290.35950443998445,290.35950443998445,290.35950443998445,290.35950443998445,290.35950443998445,290.35950443998445,290.35950443998445,290.35950443998445,290.35950443998445,290.35950443998445,290.35950443998445,290.35950443998445,290.35950443998445,290.35950443998445,290.35950443998445,292.8615196669707,292.8615196669707,292.8615196669707,292.8615196669707,292.8615196669707,68,30,72,56,72,48,7.0,1.0356216270010918,293.91048437397694,295.6747439460014,,,,,,,,102,f,25,2022-11-25_09h32.03.107,RL,2022.2.4,None,
1,29,0,29,0,,,,,,,,,,None,295.6747439460014,295.6747439460014,295.6747439460014,295.6747439460014,295.6747439460014,295.6747439460014,i,0.4793136340449564,296.2415009489632,296.2415009489632,296.2415009489632,296.2415009489632,296.2415009489632,296.2415009489632,296.5158603619784,296.5158603619784,297.9022619819734,297.9022619819734,297.93520046799676,297.93520046799676,297.93520046799676,297.93520046799676,297.93520046799676,297.93520046799676,297.93520046799676,297.93520046799676,297.93520046799676,297.93520046799676,297.93520046799676,297.93520046799676,297.93520046799676,297.93520046799676,297.93520046799676,300.48512552300235,300.48512552300235,300.48512552300235,300.48512552300235,300.48512552300235,68,28,72,55,72,63,7.0,1.0595345880137756,301.55878480296815,303.48279411596013,,,,,,,,102,f,25,2022-11-25_09h32.03.107,RL,2022.2.4,None,
1,30,0,30,0,,,,,,,,,,None,303.48279411596013,303.48279411596013,303.48279411596013,303.48279411596013,303.48279411596013,303.48279411596013,i,0.3821166770067066,303.93261362198973,303.93261362198973,303.93261362198973,303.93261362198973,303.93261362198973,303.93261362198973,304.20957296999404,304.20957296999404,306.1925510279834,306.1925510279834,306.2343365519773,306.2343365519773,306.2343365519773,306.2343365519773,306.2343365519773,306.2343365519773,306.2343365519773,306.2343365519773,306.2343365519773,306.2343365519773,306.2343365519773,306.2343365519773,306.2343365519773,306.2343365519773,306.2343365519773,308.77341722196434,308.77341722196434,308.77341722196434,308.77341722196434,308.77341722196434,52,24,77,48,77,22,7.0,1.8160270149819553,310.614767741994,312.19578815298155,,,,,,,,102,f,25,2022-11-25_09h32.03.107,RL,2022.2.4,None,
1,31,0,31,0,,,,,,,,,,None,312.19578815298155,312.19578815298155,312.19578815298155,312.19578815298155,312.19578815298155,312.19578815298155,j,0.5320728350197896,312.82529710797826,312.82529710797826,312.82529710797826,312.82529710797826,312.82529710797826,312.82529710797826,313.10185327695217,313.10185327695217,314.41518195095705,314.41518195095705,314.4485125239589,314.4485125239589,314.4485125239589,314.4485125239589,314.4485125239589,314.4485125239589,314.4485125239589,314.4485125239589,314.4485125239589,314.4485125239589,314.4485125239589,314.4485125239589,314.4485125239589,314.4485125239589,314.4485125239589,316.972867533972,316.972867533972,316.972867533972,316.972867533972,316.972867533972,62,29,74,55,55,53,7.0,1.0798888169811107,318.0861092080013,319.7417187409592,,,,,,,,102,f,25,2022-11-25_09h32.03.107,RL,2022.2.4,None,
1,32,0,32,0,,,,,,,,,,None,319.7417187409592,319.7417187409592,319.7417187409592,319.7417187409592,319.7417187409592,319.7417187409592,j,0.2411975099821575,320.1011442729505,320.1011442729505,320.1011442729505,320.1011442729505,320.1011442729505,320.1011442729505,320.36157380597433,320.36157380597433,321.5835213380051,321.5835213380051,321.62950883898884,321.62950883898884,321.62950883898884,321.62950883898884,321.62950883898884,321.62950883898884,321.62950883898884,321.62950883898884,321.62950883898884,321.62950883898884,321.62950883898884,321.62950883898884,321.62950883898884,321.62950883898884,321.62950883898884,324.1496710439678,324.1496710439678,324.1496710439678,324.1496710439678,324.1496710439678,60,35,70,54,54,62,7.0,0.631931577983778,324.8037103450042,326.6061910809949,,,,,,,,102,f,25,2022-11-25_09h32.03.107,RL,2022.2.4,None,
1,33,0,33,0,,,,,,,,,,None,326.6061910809949,326.6061910809949,326.6061910809949,326.6061910809949,326.6061910809949,326.6061910809949,r,0.3363276510499418,327.06913079397054,327.06913079397054,327.06913079397054,327.06913079397054,327.06913079397054,327.06913079397054,327.30165813397616,327.30165813397616,328.25596228195354,328.25596228195354,328.34125704399776,328.34125704399776,328.34125704399776,328.34125704399776,328.34125704399776,328.34125704399776,328.34125704399776,328.34125704399776,328.34125704399776,328.34125704399776,328.34125704399776,328.34125704399776,328.34125704399776,328.34125704399776,328.34125704399776,330.85291415295796,330.85291415295796,330.85291415295796,330.85291415295796,330.85291415295796,60,36,75,53,60,53,7.0,0.9105579479946755,331.7871825869661,333.43005710997386,,,,,,,,102,f,25,2022-11-25_09h32.03.107,RL,2022.2.4,None,
1,34,0,34,0,,,,,,,,,,None,333.43005710997386,333.43005710997386,333.43005710997386,333.43005710997386,333.43005710997386,333.43005710997386,j,0.24191138497553766,333.81221019796794,333.81221019796794,333.81221019796794,333.81221019796794,333.81221019796794,333.81221019796794,334.0530394279631,334.0530394279631,335.1936780239921,335.1936780239921,335.26255748799304,335.26255748799304,335.26255748799304,335.26255748799304,335.26255748799304,335.26255748799304,335.26255748799304,335.26255748799304,335.26255748799304,335.26255748799304,335.26255748799304,335.26255748799304,335.26255748799304,335.26255748799304,335.26255748799304,337.77330715500284,337.77330715500284,337.77330715500284,337.77330715500284,337.77330715500284,59,34,70,58,58,62,6.0,1.6606034509604797,339.45575773197925,341.2781097459956,,,,,,,,102,f,25,2022-11-25_09h32.03.107,RL,2022.2.4,None,
1,35,0,35,0,,,,,,,,,,None,341.2781097459956,341.2781097459956,341.2781097459956,341.2781097459956,341.2781097459956,341.2781097459956,r,0.304475734999869,341.68363749596756,341.68363749596756,341.68363749596756,341.68363749596756,341.68363749596756,341.68363749596756,341.9261800579843,341.9261800579843,343.79967294895323,343.79967294895323,343.8360993429669,343.8360993429669,343.8360993429669,343.8360993429669,343.8360993429669,343.8360993429669,343.8360993429669,343.8360993429669,343.8360993429669,343.8360993429669,343.8360993429669,343.8360993429669,343.8360993429669,343.8360993429669,343.8360993429669,346.34401770099066,346.34401770099066,346.34401770099066,346.34401770099066,346.34401770099066,63,35,77,57,63,51,7.0,1.8568160269642249,348.2218479209696,349.9717446619761,,,,,,,,102,f,25,2022-11-25_09h32.03.107,RL,2022.2.4,None,
1,36,0,36,0,,,,,,,,,,None,349.9717446619761,349.9717446619761,349.9717446619761,349.9717446619761,349.9717446619761,349.9717446619761,i,0.5727292759693228,350.63307552895276,350.63307552895276,350.63307552895276,350.63307552895276,350.63307552895276,350.63307552895276,350.9029167959816,350.9029167959816,352.7968414009665,352.7968414009665,352.8265882759588,352.8265882759588,352.8265882759588,352.8265882759588,352.8265882759588,352.8265882759588,352.8265882759588,352.8265882759588,352.8265882759588,352.8265882759588,352.8265882759588,352.8265882759588,352.8265882759588,352.8265882759588,352.8265882759588,355.361029194959,355.361029194959,355.361029194959,355.361029194959,355.361029194959,61,26,67,52,67,55,7.0,0.5807223650044762,355.95139220700366,357.5783420969965,,,,,,,,102,f,25,2022-11-25_09h32.03.107,RL,2022.2.4,None,
1,37,0,37,0,,,,,,,,,,None,357.5783420969965,357.5783420969965,357.5783420969965,357.5783420969965,357.5783420969965,357.5783420969965,i,0.4570611050003208,358.11114289599936,358.11114289599936,358.11114289599936,358.11114289599936,358.11114289599936,358.11114289599936,358.40610148897395,358.40610148897395,359.8627031829674,359.8627031829674,359.8627031829674,359.8627031829674,359.8627031829674,359.8627031829674,359.8627031829674,359.8627031829674,359.8627031829674,359.8627031829674,359.8627031829674,359.8627031829674,359.8627031829674,359.8627031829674,359.8627031829674,359.8627031829674,359.8627031829674,362.35328013199614,362.35328013199614,362.35328013199614,362.35328013199614,362.35328013199614,63,45,75,54,75,54,7.0,0.9999553320230916,363.3760993889882,364.9407474229811,,,,,,,,102,f,25,2022-11-25_09h32.03.107,RL,2022.2.4,None,
1,38,0,38,0,,,,,,,,,,None,364.9407474229811,364.9407474229811,364.9407474229811,364.9407474229811,364.9407474229811,364.9407474229811,i,0.6569726699963212,365.67383238999173,365.67383238999173,365.67383238999173,365.67383238999173,365.67383238999173,365.67383238999173,365.94499973900383,365.94499973900383,367.3924547059578,367.3924547059578,367.3924547059578,367.3924547059578,367.3924547059578,367.3924547059578,367.3924547059578,367.3924547059578,367.3924547059578,367.3924547059578,367.3924547059578,367.3924547059578,367.3924547059578,367.3924547059578,367.3924547059578,367.3924547059578,367.3924547059578,369.8967121139867,369.8967121139867,369.8967121139867,369.8967121139867,369.8967121139867,50,33,67,59,67,59,7.0,1.3631374829565175,371.3055871849647,373.29999455297366,,,,,,,,102,f,25,2022-11-25_09h32.03.107,RL,2022.2.4,None,
1,39,0,39,0,,,,,,,,,,None,373.29999455297366,373.29999455297366,373.29999455297366,373.29999455297366,373.29999455297366,373.29999455297366,i,0.7344853099784814,374.11983318795683,374.11983318795683,374.11983318795683,374.11983318795683,374.11983318795683,374.11983318795683,374.41597314196406,374.41597314196406,375.5997284610057,375.5997284610057,375.5997284610057,375.5997284610057,375.5997284610057,375.5997284610057,375.5997284610057,375.5997284610057,375.5997284610057,375.5997284610057,375.5997284610057,375.5997284610057,375.5997284610057,375.5997284610057,375.5997284610057,375.5997284610057,375.5997284610057,378.1020361019764,378.1020361019764,378.1020361019764,378.1020361019764,378.1020361019764,52,38,77,56,77,34,7.0,1.2190797890070826,379.3653883669758,380.9788837629603,,,,,,,,102,f,25,2022-11-25_09h32.03.107,RL,2022.2.4,None,
1,40,0,40,0,,,,,,,,,,None,380.9788837629603,380.9788837629603,380.9788837629603,380.9788837629603,380.9788837629603,380.9788837629603,r,0.27960542298387736,381.3464266989613,381.3464266989613,381.3464266989613,381.3464266989613,381.3464266989613,381.3464266989613,381.6486454519909,381.6486454519909,382.81367483799113,382.81367483799113,382.81367483799113,382.81367483799113,382.81367483799113,382.81367483799113,382.81367483799113,382.81367483799113,382.81367483799113,382.81367483799113,382.81367483799113,382.81367483799113,382.81367483799113,382.81367483799113,382.81367483799113,382.81367483799113,382.81367483799113,385.3532626159722,385.3532626159722,385.3532626159722,385.3532626159722,385.3532626159722,50,38,87,51,50,57,7.0,0.5540311150252819,385.9812447659788,387.6998969349661,,,,,,,,102,f,25,2022-11-25_09h32.03.107,RL,2022.2.4,None,
1,41,0,41,0,,,,,,,,,,None,387.6998969349661,387.6998969349661,387.6998969349661,387.6998969349661,387.6998969349661,387.6998969349661,j,0.6249873010092415,388.3912272009766,388.3912272009766,388.3912272009766,388.3912272009766,388.3912272009766,388.3912272009766,388.68820561800385,388.68820561800385,390.2273677729536,390.2273677729536,390.2273677729536,390.2273677729536,390.2273677729536,390.2273677729536,390.2273677729536,390.2273677729536,390.2273677729536,390.2273677729536,390.2273677729536,390.2273677729536,390.2273677729536,390.2273677729536,390.2273677729536,390.2273677729536,390.2273677729536,392.7648815609864,392.7648815609864,392.7648815609864,392.7648815609864,392.7648815609864,49,33,74,55,55,53,7.0,1.462774024985265,394.25969697197434,396.21515891799936,,,,,,,,102,f,25,2022-11-25_09h32.03.107,RL,2022.2.4,None,
1,42,0,42,0,,,,,,,,,,None,396.21515891799936,396.21515891799936,396.21515891799936,396.21515891799936,396.21515891799936,396.21515891799936,f,0.41642316698562354,396.76872755697696,396.76872755697696,396.76872755697696,396.76872755697696,396.76872755697696,396.76872755697696,397.05487345997244,397.05487345997244,398.2979674639646,398.2979674639646,398.3499772089999,398.3499772089999,398.3499772089999,398.3499772089999,398.3499772089999,398.3499772089999,398.3499772089999,398.3499772089999,398.3499772089999,398.3499772089999,398.3499772089999,398.3499772089999,398.3499772089999,398.3499772089999,398.3499772089999,400.85076619300526,400.85076619300526,400.85076619300526,400.85076619300526,400.85076619300526,45,35,79,53,35,51,6.0,1.7920668509905227,402.67301314498764,404.2301370719797,,,,,,,,102,f,25,2022-11-25_09h32.03.107,RL,2022.2.4,None,
1,43,0,43,0,,,,,,,,,,None,404.2301370719797,404.2301370719797,404.2301370719797,404.2301370719797,404.2301370719797,404.2301370719797,j,0.4902502209879458,404.83664125198266,404.83664125198266,404.83664125198266,404.83664125198266,404.83664125198266,404.83664125198266,405.1019858389627,405.1019858389627,406.29356845398434,406.29356845398434,406.34230947098695,406.34230947098695,406.34230947098695,406.34230947098695,406.34230947098695,406.34230947098695,406.34230947098695,406.34230947098695,406.34230947098695,406.34230947098695,406.34230947098695,406.34230947098695,406.34230947098695,406.34230947098695,406.34230947098695,408.8558896659524,408.8558896659524,408.8558896659524,408.8558896659524,408.8558896659524,47,37,77,55,55,55,6.0,1.9382673610234633,410.85371438600123,412.57417928997893,,,,,,,,102,f,25,2022-11-25_09h32.03.107,RL,2022.2.4,None,
1,44,0,44,0,,,,,,,,,,None,412.57417928997893,412.57417928997893,412.57417928997893,412.57417928997893,412.57417928997893,412.57417928997893,r,0.2555146989761852,412.91907278599683,412.91907278599683,412.91907278599683,412.91907278599683,412.91907278599683,412.91907278599683,413.19434221397387,413.19434221397387,414.98800837399904,414.98800837399904,414.98800837399904,414.98800837399904,414.98800837399904,414.98800837399904,414.98800837399904,414.98800837399904,414.98800837399904,414.98800837399904,414.98800837399904,414.98800837399904,414.98800837399904,414.98800837399904,414.98800837399904,414.98800837399904,414.98800837399904,417.5028799069696,417.5028799069696,417.5028799069696,417.5028799069696,417.5028799069696,47,41,82,48,47,56,5.0,2.0576148679829203,419.60171745397383,421.5622183450032,,,,,,,,102,f,25,2022-11-25_09h32.03.107,RL,2022.2.4,None,
1,45,0,45,0,,,,,,,,,,None,421.5622183450032,421.5622183450032,421.5622183450032,421.5622183450032,421.5622183450032,421.5622183450032,i,0.3222417709766887,421.98802039498696,421.98802039498696,421.98802039498696,421.98802039498696,421.98802039498696,421.98802039498696,422.2953733239556,422.2953733239556,423.2602087459527,423.2602087459527,423.2602087459527,423.2602087459527,423.2602087459527,423.2602087459527,423.2602087459527,423.2602087459527,423.2602087459527,423.2602087459527,423.2602087459527,423.2602087459527,423.2602087459527,423.2602087459527,423.2602087459527,423.2602087459527,423.2602087459527,425.78954932896886,425.78954932896886,425.78954932896886,425.78954932896886,425.78954932896886,41,32,77,57,77,56,7.0,1.790427374013234,427.6178927709698,429.272154974984,,,,,,,,102,f,25,2022-11-25_09h32.03.107,RL,2022.2.4,None,
1,46,0,46,0,,,,,,,,,,None,429.272154974984,429.272154974984,429.272154974984,429.272154974984,429.272154974984,429.272154974984,i,0.32521519903093576,429.7004270509933,429.7004270509933,429.7004270509933,429.7004270509933,429.7004270509933,429.7004270509933,429.99179620697396,429.99179620697396,431.8148007519776,431.8148007519776,431.8148007519776,431.8148007519776,431.8148007519776,431.8148007519776,431.8148007519776,431.8148007519776,431.8148007519776,431.8148007519776,431.8148007519776,431.8148007519776,431.8148007519776,431.8148007519776,431.8148007519776,431.8148007519776,431.8148007519776,434.31290118198376,434.31290118198376,434.31290118198376,434.31290118198376,434.31290118198376,43,33,67,52,67,26,7.0,1.763064950995613,436.11737856199034,437.8418592939852,,,,,,,,102,f,25,2022-11-25_09h32.03.107,RL,2022.2.4,None,
1,47,0,47,0,,,,,,,,,,None,437.8418592939852,437.8418592939852,437.8418592939852,437.8418592939852,437.8418592939852,437.8418592939852,i,0.26067678298568353,438.17415115598124,438.17415115598124,438.17415115598124,438.17415115598124,438.17415115598124,438.17415115598124,438.45915388996946,438.45915388996946,439.7094691209495,439.7094691209495,439.7094691209495,439.7094691209495,439.7094691209495,439.7094691209495,439.7094691209495,439.7094691209495,439.7094691209495,439.7094691209495,439.7094691209495,439.7094691209495,439.7094691209495,439.7094691209495,439.7094691209495,439.7094691209495,439.7094691209495,442.21915250696475,442.21915250696475,442.21915250696475,442.21915250696475,442.21915250696475,58,39,74,44,74,59,7.0,0.8596072940272279,443.1144820729969,444.97647586499806,,,,,,,,102,f,25,2022-11-25_09h32.03.107,RL,2022.2.4,None,
1,48,0,48,0,,,,,,,,,,None,444.97647586499806,444.97647586499806,444.97647586499806,444.97647586499806,444.97647586499806,444.97647586499806,i,0.33073962602065876,445.3986674079788,445.3986674079788,445.3986674079788,445.3986674079788,445.3986674079788,445.3986674079788,445.6731322699925,445.6731322699925,446.63640099798795,446.63640099798795,446.6823832389782,446.6823832389782,446.6823832389782,446.6823832389782,446.6823832389782,446.6823832389782,446.6823832389782,446.6823832389782,446.6823832389782,446.6823832389782,446.6823832389782,446.6823832389782,446.6823832389782,446.6823832389782,446.6823832389782,449.20302691700635,449.20302691700635,449.20302691700635,449.20302691700635,449.20302691700635,42,40,76,45,76,39,7.0,1.1973037120187655,450.44311388296774,452.24298572796397,,,,,,,,102,f,25,2022-11-25_09h32.03.107,RL,2022.2.4,None,
1,49,0,49,0,,,,,,,,,,None,452.24298572796397,452.24298572796397,452.24298572796397,452.24298572796397,452.24298572796397,452.24298572796397,i,0.48599510599160567,452.83209871297004,452.83209871297004,452.83209871297004,452.83209871297004,452.83209871297004,452.83209871297004,453.1003206190071,453.1003206190071,454.9498077769531,454.9498077769531,454.9498077769531,454.9498077769531,454.9498077769531,454.9498077769531,454.9498077769531,454.9498077769531,454.9498077769531,454.9498077769531,454.9498077769531,454.9498077769531,454.9498077769531,454.9498077769531,454.9498077769531,454.9498077769531,454.9498077769531,457.47658096899977,457.47658096899977,457.47658096899977,457.47658096899977,457.47658096899977,46,47,75,47,75,59,7.0,1.622373380989302,459.13081924198195,460.71829803899163,,,,,,,,102,f,25,2022-11-25_09h32.03.107,RL,2022.2.4,None,
1,50,0,50,0,,,,,,,,,,None,460.71829803899163,460.71829803899163,460.71829803899163,460.71829803899163,460.71829803899163,460.71829803899163,j,0.4121153620071709,461.2045922699617,461.2045922699617,461.2045922699617,461.2045922699617,461.2045922699617,461.2045922699617,461.50862904195674,461.50862904195674,463.1153119239607,463.1153119239607,463.1153119239607,463.1153119239607,463.1153119239607,463.1153119239607,463.1153119239607,463.1153119239607,463.1153119239607,463.1153119239607,463.1153119239607,463.1153119239607,463.1153119239607,463.1153119239607,463.1153119239607,463.1153119239607,463.1153119239607,465.62959958799183,465.62959958799183,465.62959958799183,465.62959958799183,465.62959958799183,50,40,83,42,42,71,6.0,1.7426425809971988,467.4137898379704,469.43374877795577,,,,,,,,102,f,25,2022-11-25_09h32.03.107,RL,2022.2.4,None,
1,51,0,51,0,,,,,,,,,,None,469.43374877795577,469.43374877795577,469.43374877795577,469.43374877795577,469.43374877795577,469.43374877795577,f,0.864996983029414,470.36913118796656,470.36913118796656,470.36913118796656,470.36913118796656,470.36913118796656,470.36913118796656,470.6591791869723,470.6591791869723,472.1601642409805,472.1601642409805,472.1601642409805,472.1601642409805,472.1601642409805,472.1601642409805,472.1601642409805,472.1601642409805,472.1601642409805,472.1601642409805,472.1601642409805,472.1601642409805,472.1601642409805,472.1601642409805,472.1601642409805,472.1601642409805,472.1601642409805,474.65831028396497,474.65831028396497,474.65831028396497,474.65831028396497,474.65831028396497,51,29,75,65,29,78,6.0,1.8678056899807416,476.56505338300485,478.5844337680028,,,,,,,,102,f,25,2022-11-25_09h32.03.107,RL,2022.2.4,None,
1,52,0,52,0,,,,,,,,,,None,478.5844337680028,478.5844337680028,478.5844337680028,478.5844337680028,478.5844337680028,478.5844337680028,r,0.34997615905012935,479.06004898098763,479.06004898098763,479.06004898098763,479.06004898098763,479.06004898098763,479.06004898098763,479.29254871595185,479.29254871595185,480.32387565699173,480.32387565699173,480.3989585999516,480.3989585999516,480.3989585999516,480.3989585999516,480.3989585999516,480.3989585999516,480.3989585999516,480.3989585999516,480.3989585999516,480.3989585999516,480.3989585999516,480.3989585999516,480.3989585999516,480.3989585999516,480.3989585999516,482.90023609396303,482.90023609396303,482.90023609396303,482.90023609396303,482.90023609396303,50,36,71,46,50,43,7.0,1.8848967789672315,484.81488946895115,486.40776837896556,,,,,,,,102,f,25,2022-11-25_09h32.03.107,RL,2022.2.4,None,
1,53,0,53,0,,,,,,,,,,None,486.40776837896556,486.40776837896556,486.40776837896556,486.40776837896556,486.40776837896556,486.40776837896556,r,0.24984377500368282,486.7713056219509,486.7713056219509,486.7713056219509,486.7713056219509,486.7713056219509,486.7713056219509,487.059327809955,487.059327809955,488.0561412409879,488.0561412409879,488.0561412409879,488.0561412409879,488.0561412409879,488.0561412409879,488.0561412409879,488.0561412409879,488.0561412409879,488.0561412409879,488.0561412409879,488.0561412409879,488.0561412409879,488.0561412409879,488.0561412409879,488.0561412409879,488.0561412409879,490.5575471399934,490.5575471399934,490.5575471399934,490.5575471399934,490.5575471399934,43,33,70,42,43,51,6.0,1.582238590985071,492.164626379963,493.92327264597407,,,,,,,,102,f,25,2022-11-25_09h32.03.107,RL,2022.2.4,None,
1,54,0,54,0,,,,,,,,,,None,493.92327264597407,493.92327264597407,493.92327264597407,493.92327264597407,493.92327264597407,493.92327264597407,i,0.2610153009882197,494.255872204958,494.255872204958,494.255872204958,494.255872204958,494.255872204958,494.255872204958,494.53949133696733,494.53949133696733,495.4384743849514,495.4384743849514,495.4384743849514,495.4384743849514,495.4384743849514,495.4384743849514,495.4384743849514,495.4384743849514,495.4384743849514,495.4384743849514,495.4384743849514,495.4384743849514,495.4384743849514,495.4384743849514,495.4384743849514,495.4384743849514,495.4384743849514,497.9426540840068,497.9426540840068,497.9426540840068,497.9426540840068,497.9426540840068,48,35,69,54,69,68,7.0,1.4183204720029607,499.4263520480017,500.9882817559992,,,,,,,,102,f,25,2022-11-25_09h32.03.107,RL,2022.2.4,None,
1,55,0,55,0,,,,,,,,,,None,500.9882817559992,500.9882817559992,500.9882817559992,500.9882817559992,500.9882817559992,500.9882817559992,i,0.3054365209536627,501.3658195119933,501.3658195119933,501.3658195119933,501.3658195119933,501.3658195119933,501.3658195119933,501.63404629495926,501.63404629495926,503.6221030699671,503.6221030699671,503.65998370497255,503.65998370497255,503.65998370497255,503.65998370497255,503.65998370497255,503.65998370497255,503.65998370497255,503.65998370497255,503.65998370497255,503.65998370497255,503.65998370497255,503.65998370497255,503.65998370497255,503.65998370497255,503.65998370497255,506.1890924469917,506.1890924469917,506.1890924469917,506.1890924469917,506.1890924469917,51,34,66,57,66,42,7.0,1.388624818995595,507.62119044497376,509.5311238639988,,,,,,,,102,f,25,2022-11-25_09h32.03.107,RL,2022.2.4,None,
1,56,0,56,0,,,,,,,,,,None,509.5311238639988,509.5311238639988,509.5311238639988,509.5311238639988,509.5311238639988,509.5311238639988,i,0.5453445599996485,510.16744904598454,510.16744904598454,510.16744904598454,510.16744904598454,510.16744904598454,510.16744904598454,510.4598347969586,510.4598347969586,511.80737666395726,511.80737666395726,511.8466172379558,511.8466172379558,511.8466172379558,511.8466172379558,511.8466172379558,511.8466172379558,511.8466172379558,511.8466172379558,511.8466172379558,511.8466172379558,511.8466172379558,511.8466172379558,511.8466172379558,511.8466172379558,511.8466172379558,514.3749737049802,514.3749737049802,514.3749737049802,514.3749737049802,514.3749737049802,56,28,62,53,62,70,6.0,1.144121190009173,515.5456359969685,517.5024454189697,,,,,,,,102,f,25,2022-11-25_09h32.03.107,RL,2022.2.4,None,
1,57,0,57,0,,,,,,,,,,None,517.5024454189697,517.5024454189697,517.5024454189697,517.5024454189697,517.5024454189697,517.5024454189697,j,0.5948116650106385,518.1627713589696,518.1627713589696,518.1627713589696,518.1627713589696,518.1627713589696,518.1627713589696,518.4425993139739,518.4425993139739,520.3741171229631,520.3741171229631,520.4187349819695,520.4187349819695,520.4187349819695,520.4187349819695,520.4187349819695,520.4187349819695,520.4187349819695,520.4187349819695,520.4187349819695,520.4187349819695,520.4187349819695,520.4187349819695,520.4187349819695,520.4187349819695,520.4187349819695,522.9535756669939,522.9535756669939,522.9535756669939,522.9535756669939,522.9535756669939,56,34,66,54,54,45,7.0,0.9819477580022067,523.9718655039906,525.5554387180018,,,,,,,,102,f,25,2022-11-25_09h32.03.107,RL,2022.2.4,None,
1,58,0,58,0,,,,,,,,,,None,525.5554387180018,525.5554387180018,525.5554387180018,525.5554387180018,525.5554387180018,525.5554387180018,j,0.27671964903129265,525.934174561,525.934174561,525.934174561,525.934174561,525.934174561,525.934174561,526.227267624985,526.227267624985,527.5056088709971,527.5056088709971,527.5056088709971,527.5056088709971,527.5056088709971,527.5056088709971,527.5056088709971,527.5056088709971,527.5056088709971,527.5056088709971,527.5056088709971,527.5056088709971,527.5056088709971,527.5056088709971,527.5056088709971,527.5056088709971,527.5056088709971,530.0108556509949,530.0108556509949,530.0108556509949,530.0108556509949,530.0108556509949,67,36,56,48,48,71,6.0,1.314482341054827,531.3653436719906,532.9445664689993,,,,,,,,102,f,25,2022-11-25_09h32.03.107,RL,2022.2.4,None,
1,59,0,59,0,,,,,,,,,,None,532.9445664689993,532.9445664689993,532.9445664689993,532.9445664689993,532.9445664689993,532.9445664689993,r,0.37478313699830323,533.4015675039846,533.4015675039846,533.4015675039846,533.4015675039846,533.4015675039846,533.4015675039846,533.691055385978,533.691055385978,534.7528764729504,534.7528764729504,534.7528764729504,534.7528764729504,534.7528764729504,534.7528764729504,534.7528764729504,534.7528764729504,534.7528764729504,534.7528764729504,534.7528764729504,534.7528764729504,534.7528764729504,534.7528764729504,534.7528764729504,534.7528764729504,534.7528764729504,537.2990987799712,537.2990987799712,537.2990987799712,537.2990987799712,537.2990987799712,55,23,71,54,55,66,6.0,0.774798438011203,538.1103304149583,539.9450917519862,,,,,,,,102,f,25,2022-11-25_09h32.03.107,RL,2022.2.4,None,
1,60,0,60,0,,,,,,,,,,None,539.9450917519862,539.9450917519862,539.9450917519862,539.9450917519862,539.9450917519862,539.9450917519862,r,0.6349193470086902,540.6682243149844,540.6682243149844,540.6682243149844,540.6682243149844,540.6682243149844,540.6682243149844,540.9425407819799,540.9425407819799,542.8296262769727,542.8296262769727,542.8829962339951,542.8829962339951,542.8829962339951,542.8829962339951,542.8829962339951,542.8829962339951,542.8829962339951,542.8829962339951,542.8829962339951,542.8829962339951,542.8829962339951,542.8829962339951,542.8829962339951,542.8829962339951,542.8829962339951,545.3896179879666,545.3896179879666,545.3896179879666,545.3896179879666,545.3896179879666,53,31,56,46,53,48,7.0,1.8082102329935879,547.2311499789939,549.2577883909689,,,,,,,,102,f,25,2022-11-25_09h32.03.107,RL,2022.2.4,None,
1,61,0,61,0,,,,,,,,,,None,549.2577883909689,549.2577883909689,549.2577883909689,549.2577883909689,549.2577883909689,549.2577883909689,r,0.3222552540246397,549.6934134920011,549.6934134920011,549.6934134920011,549.6934134920011,549.6934134920011,549.6934134920011,549.9609718609718,549.9609718609718,551.969359183975,551.969359183975,551.969359183975,551.969359183975,551.969359183975,551.969359183975,551.969359183975,551.969359183975,551.969359183975,551.969359183975,551.969359183975,551.969359183975,551.969359183975,551.969359183975,551.969359183975,551.969359183975,551.969359183975,554.4816663969541,554.4816663969541,554.4816663969541,554.4816663969541,554.4816663969541,54,27,58,41,54,47,7.0,1.4615044650272466,555.9676723099547,557.7330931319739,,,,,,,,102,f,25,2022-11-25_09h32.03.107,RL,2022.2.4,None,
1,62,0,62,0,,,,,,,,,,None,557.7330931319739,557.7330931319739,557.7330931319739,557.7330931319739,557.7330931319739,557.7330931319739,j,0.34077829599846154,558.1638857229846,558.1638857229846,558.1638857229846,558.1638857229846,558.1638857229846,558.1638857229846,558.3998607409885,558.3998607409885,559.918522891996,559.918522891996,559.9654094069847,559.9654094069847,559.9654094069847,559.9654094069847,559.9654094069847,559.9654094069847,559.9654094069847,559.9654094069847,559.9654094069847,559.9654094069847,559.9654094069847,559.9654094069847,559.9654094069847,559.9654094069847,559.9654094069847,562.4864012839971,562.4864012839971,562.4864012839971,562.4864012839971,562.4864012839971,54,34,57,49,49,70,6.0,1.409600838960614,563.9324809939717,565.5931997029693,,,,,,,,102,f,25,2022-11-25_09h32.03.107,RL,2022.2.4,None,
1,63,0,63,0,,,,,,,,,,None,565.5931997029693,565.5931997029693,565.5931997029693,565.5931997029693,565.5931997029693,565.5931997029693,i,0.3408394409925677,566.0481603689841,566.0481603689841,566.0481603689841,566.0481603689841,566.0481603689841,566.0481603689841,566.3063352779718,566.3063352779718,567.2067704459769,567.2067704459769,567.2457161269849,567.2457161269849,567.2457161269849,567.2457161269849,567.2457161269849,567.2457161269849,567.2457161269849,567.2457161269849,567.2457161269849,567.2457161269849,567.2457161269849,567.2457161269849,567.2457161269849,567.2457161269849,567.2457161269849,569.7852997739683,569.7852997739683,569.7852997739683,569.7852997739683,569.7852997739683,59,34,54,37,54,38,7.0,1.784042696992401,571.6407920959755,573.2551727239625,,,,,,,,102,f,25,2022-11-25_09h32.03.107,RL,2022.2.4,None,
1,64,0,64,0,,,,,,,,,,None,573.2551727239625,573.2551727239625,573.2551727239625,573.2551727239625,573.2551727239625,573.2551727239625,i,0.5177712329896167,573.8487723669969,573.8487723669969,573.8487723669969,573.8487723669969,573.8487723669969,573.8487723669969,574.115038140968,574.115038140968,575.3450135099702,575.3450135099702,575.3819811999565,575.3819811999565,575.3819811999565,575.3819811999565,575.3819811999565,575.3819811999565,575.3819811999565,575.3819811999565,575.3819811999565,575.3819811999565,575.3819811999565,575.3819811999565,575.3819811999565,575.3819811999565,575.3819811999565,577.9100833709817,577.9100833709817,577.9100833709817,577.9100833709817,577.9100833709817,51,30,60,42,60,68,5.0,1.1305787109886296,579.1043287829962,581.1425763169536,,,,,,,,102,f,25,2022-11-25_09h32.03.107,RL,2022.2.4,None,
1,65,0,65,0,,,,,,,,,,None,581.1425763169536,581.1425763169536,581.1425763169536,581.1425763169536,581.1425763169536,581.1425763169536,r,0.46643446100642905,581.695556644001,581.695556644001,581.695556644001,581.695556644001,581.695556644001,581.695556644001,581.965498378966,581.965498378966,583.9812951399945,583.9812951399945,584.0192119359854,584.0192119359854,584.0192119359854,584.0192119359854,584.0192119359854,584.0192119359854,584.0192119359854,584.0192119359854,584.0192119359854,584.0192119359854,584.0192119359854,584.0192119359854,584.0192119359854,584.0192119359854,584.0192119359854,586.5286794549902,586.5286794549902,586.5286794549902,586.5286794549902,586.5286794549902,48,25,62,53,48,71,5.0,1.049923659011256,587.609188249975,589.5604007489746,,,,,,,,102,f,25,2022-11-25_09h32.03.107,RL,2022.2.4,None,
1,66,0,66,0,,,,,,,,,,None,589.5604007489746,589.5604007489746,589.5604007489746,589.5604007489746,589.5604007489746,589.5604007489746,j,0.23918728000717238,589.8843752139946,589.8843752139946,589.8843752139946,589.8843752139946,589.8843752139946,589.8843752139946,590.1403879369609,590.1403879369609,591.12412222696,591.12412222696,591.1626276269672,591.1626276269672,591.1626276269672,591.1626276269672,591.1626276269672,591.1626276269672,591.1626276269672,591.1626276269672,591.1626276269672,591.1626276269672,591.1626276269672,591.1626276269672,591.1626276269672,591.1626276269672,591.1626276269672,593.714291065,593.714291065,593.714291065,593.714291065,593.714291065,52,31,52,49,49,71,5.0,1.200734524987638,594.9503492490039,596.6857925700024,,,,,,,,102,f,25,2022-11-25_09h32.03.107,RL,2022.2.4,None,
1,67,0,67,0,,,,,,,,,,None,596.6857925700024,596.6857925700024,596.6857925700024,596.6857925700024,596.6857925700024,596.6857925700024,i,0.4445763829862699,597.2298080839682,597.2298080839682,597.2298080839682,597.2298080839682,597.2298080839682,597.2298080839682,597.4832035049913,597.4832035049913,598.5555198289803,598.5555198289803,598.651580995007,598.651580995007,598.651580995007,598.651580995007,598.651580995007,598.651580995007,598.651580995007,598.651580995007,598.651580995007,598.651580995007,598.651580995007,598.651580995007,598.651580995007,598.651580995007,598.651580995007,601.1949793300009,601.1949793300009,601.1949793300009,601.1949793300009,601.1949793300009,47,20,64,60,64,45,6.0,1.1228293400490656,602.3504437899683,604.2575331399566,,,,,,,,102,f,25,2022-11-25_09h32.03.107,RL,2022.2.4,None,
1,68,0,68,0,,,,,,,,,,None,604.2575331399566,604.2575331399566,604.2575331399566,604.2575331399566,604.2575331399566,604.2575331399566,i,0.4110919560189359,604.7662063969765,604.7662063969765,604.7662063969765,604.7662063969765,604.7662063969765,604.7662063969765,605.0081878899946,605.0081878899946,606.0929572900059,606.0929572900059,606.0929572900059,606.0929572900059,606.0929572900059,606.0929572900059,606.0929572900059,606.0929572900059,606.0929572900059,606.0929572900059,606.0929572900059,606.0929572900059,606.0929572900059,606.0929572900059,606.0929572900059,606.0929572900059,606.0929572900059,608.599212956964,608.599212956964,608.599212956964,608.599212956964,608.599212956964,48,21,59,68,59,65,5.0,1.8297336109681055,610.4534407850006,612.1641645149793,,,,,,,,102,f,25,2022-11-25_09h32.03.107,RL,2022.2.4,None,
1,69,0,69,0,,,,,,,,,,None,612.1641645149793,612.1641645149793,612.1641645149793,612.1641645149793,612.1641645149793,612.1641645149793,i,0.3496734509826638,612.5823621479794,612.5823621479794,612.5823621479794,612.5823621479794,612.5823621479794,612.5823621479794,612.8817632909631,612.8817632909631,614.6832487679785,614.6832487679785,614.6832487679785,614.6832487679785,614.6832487679785,614.6832487679785,614.6832487679785,614.6832487679785,614.6832487679785,614.6832487679785,614.6832487679785,614.6832487679785,614.6832487679785,614.6832487679785,614.6832487679785,614.6832487679785,614.6832487679785,617.200485548994,617.200485548994,617.200485548994,617.200485548994,617.200485548994,57,27,54,58,54,62,5.0,0.7332506109960377,617.9575065859826,619.5708110230044,,,,,,,,102,f,25,2022-11-25_09h32.03.107,RL,2022.2.4,None,
1,70,0,70,0,,,,,,,,,,None,619.5708110230044,619.5708110230044,619.5708110230044,619.5708110230044,619.5708110230044,619.5708110230044,r,0.3483976229908876,620.0162914369721,620.0162914369721,620.0162914369721,620.0162914369721,620.0162914369721,620.0162914369721,620.3137333209743,620.3137333209743,621.3721034500049,621.3721034500049,621.3721034500049,621.3721034500049,621.3721034500049,621.3721034500049,621.3721034500049,621.3721034500049,621.3721034500049,621.3721034500049,621.3721034500049,621.3721034500049,621.3721034500049,621.3721034500049,621.3721034500049,621.3721034500049,621.3721034500049,623.8739452799782,623.8739452799782,623.8739452799782,623.8739452799782,623.8739452799782,49,24,46,57,49,62,5.0,0.7943228039657697,624.7097567589954,626.3052625459968,,,,,,,,102,f,25,2022-11-25_09h32.03.107,RL,2022.2.4,None,
1,71,0,71,0,,,,,,,,,,None,626.3052625459968,626.3052625459968,626.3052625459968,626.3052625459968,626.3052625459968,626.3052625459968,j,0.33307098399382085,626.7092094349791,626.7092094349791,626.7092094349791,626.7092094349791,626.7092094349791,626.7092094349791,626.9771356279962,626.9771356279962,628.0743808840052,628.0743808840052,628.1171781949815,628.1171781949815,628.1171781949815,628.1171781949815,628.1171781949815,628.1171781949815,628.1171781949815,628.1171781949815,628.1171781949815,628.1171781949815,628.1171781949815,628.1171781949815,628.1171781949815,628.1171781949815,628.1171781949815,630.6393082409631,630.6393082409631,630.6393082409631,630.6393082409631,630.6393082409631,43,26,49,46,46,69,5.0,1.4147918570088223,632.0616798889823,633.7254162929603,,,,,,,,102,f,25,2022-11-25_09h32.03.107,RL,2022.2.4,None,
1,72,0,72,0,,,,,,,,,,None,633.7254162929603,633.7254162929603,633.7254162929603,633.7254162929603,633.7254162929603,633.7254162929603,f,0.37215305998688564,634.1875048989896,634.1875048989896,634.1875048989896,634.1875048989896,634.1875048989896,634.1875048989896,634.4845278379507,634.4845278379507,636.0384535749909,636.0384535749909,636.0384535749909,636.0384535749909,636.0384535749909,636.0384535749909,636.0384535749909,636.0384535749909,636.0384535749909,636.0384535749909,636.0384535749909,636.0384535749909,636.0384535749909,636.0384535749909,636.0384535749909,636.0384535749909,636.0384535749909,638.5795121709816,638.5795121709816,638.5795121709816,638.5795121709816,638.5795121709816,40,31,60,58,31,76,5.0,0.6312600810197182,639.2139334629755,641.0564515299629,,,,,,,,102,f,25,2022-11-25_09h32.03.107,RL,2022.2.4,None,
1,73,0,73,0,,,,,,,,,,None,641.0564515299629,641.0564515299629,641.0564515299629,641.0564515299629,641.0564515299629,641.0564515299629,i,0.5353833779809065,641.6592045929865,641.6592045929865,641.6592045929865,641.6592045929865,641.6592045929865,641.6592045929865,641.9221341239754,641.9221341239754,643.4488769199816,643.4488769199816,643.4903424420045,643.4903424420045,643.4903424420045,643.4903424420045,643.4903424420045,643.4903424420045,643.4903424420045,643.4903424420045,643.4903424420045,643.4903424420045,643.4903424420045,643.4903424420045,643.4903424420045,643.4903424420045,643.4903424420045,646.0095261170063,646.0095261170063,646.0095261170063,646.0095261170063,646.0095261170063,41,34,48,55,48,71,5.0,1.2351340819732286,647.2790881579858,649.1169077850063,,,,,,,,102,f,25,2022-11-25_09h32.03.107,RL,2022.2.4,None,
1,74,0,74,0,,,,,,,,,,None,649.1169077850063,649.1169077850063,649.1169077850063,649.1169077850063,649.1169077850063,649.1169077850063,r,0.3044364539673552,649.4959164959728,649.4959164959728,649.4959164959728,649.4959164959728,649.4959164959728,649.4959164959728,649.7670544729917,649.7670544729917,650.8608500019764,650.8608500019764,650.8979662619531,650.8979662619531,650.8979662619531,650.8979662619531,650.8979662619531,650.8979662619531,650.8979662619531,650.8979662619531,650.8979662619531,650.8979662619531,650.8979662619531,650.8979662619531,650.8979662619531,650.8979662619531,650.8979662619531,653.4162373729632,653.4162373729632,653.4162373729632,653.4162373729632,653.4162373729632,49,34,42,55,49,63,5.0,0.8558948690188117,654.3026978339767,655.8700678019668,,,,,,,,102,f,25,2022-11-25_09h32.03.107,RL,2022.2.4,None,
1,75,0,75,0,,,,,,,,,,q,730.8529283499811,730.8529283499811,730.8529283499811,730.8529283499811,730.8529283499811,730.8529283499811,r,1.3527012640261091,732.3238392339554,732.3238392339554,732.3238392339554,732.3238392339554,732.3238392339554,732.3238392339554,732.5606180320028,732.5606180320028,733.9112830319791,733.9112830319791,733.9523305539624,733.9523305539624,733.9523305539624,733.9523305539624,733.9523305539624,733.9523305539624,733.9523305539624,733.9523305539624,733.9523305539624,733.9523305539624,733.9523305539624,733.9523305539624,733.9523305539624,733.9523305539624,733.9523305539624,736.4699559779838,736.4699559779838,736.4699559779838,736.4699559779838,736.4699559779838,55,35,45,58,55,75,5.0,1.7347537850146182,738.2382996319793,740.2753740299959,655.8700678019668,655.8700678019668,74.85467763099587,,,,,102,f,25,2022-11-25_09h32.03.107,RL,2022.2.4,None,
1,76,0,76,0,,,,,,,,,,None,740.2753740299959,740.2753740299959,740.2753740299959,740.2753740299959,740.2753740299959,740.2753740299959,i,0.48441959999036044,740.856036696001,740.856036696001,740.856036696001,740.856036696001,740.856036696001,740.856036696001,741.1178434779868,741.1178434779868,742.1777218869538,742.1777218869538,742.2673391019925,742.2673391019925,742.2673391019925,742.2673391019925,742.2673391019925,742.2673391019925,742.2673391019925,742.2673391019925,742.2673391019925,742.2673391019925,742.2673391019925,742.2673391019925,742.2673391019925,742.2673391019925,742.2673391019925,744.7619325389969,744.7619325389969,744.7619325389969,744.7619325389969,744.7619325389969,52,36,41,66,41,70,5.0,0.78546617802931,745.5663907029666,747.2124585899874,,,,,,,,102,f,25,2022-11-25_09h32.03.107,RL,2022.2.4,None,
1,77,0,77,0,,,,,,,,,,None,747.2124585899874,747.2124585899874,747.2124585899874,747.2124585899874,747.2124585899874,747.2124585899874,j,0.2468095729709603,747.5890137130045,747.5890137130045,747.5890137130045,747.5890137130045,747.5890137130045,747.5890137130045,747.8401928989915,747.8401928989915,749.144087972003,749.144087972003,749.1942802679841,749.1942802679841,749.1942802679841,749.1942802679841,749.1942802679841,749.1942802679841,749.1942802679841,749.1942802679841,749.1942802679841,749.1942802679841,749.1942802679841,749.1942802679841,749.1942802679841,749.1942802679841,749.1942802679841,751.6726788499509,751.6726788499509,751.6726788499509,751.6726788499509,751.6726788499509,54,39,30,65,65,67,5.0,1.0393240740522742,752.7452985869604,754.7508510579937,,,,,,,,102,f,25,2022-11-25_09h32.03.107,RL,2022.2.4,None,
1,78,0,78,0,,,,,,,,,,None,754.7508510579937,754.7508510579937,754.7508510579937,754.7508510579937,754.7508510579937,754.7508510579937,j,0.28736733499681577,755.1606083780061,755.1606083780061,755.1606083780061,755.1606083780061,755.1606083780061,755.1606083780061,755.3985698629986,755.3985698629986,757.3525134259835,757.3525134259835,757.4470525719807,757.4470525719807,757.4470525719807,757.4470525719807,757.4470525719807,757.4470525719807,757.4470525719807,757.4470525719807,757.4470525719807,757.4470525719807,757.4470525719807,757.4470525719807,757.4470525719807,757.4470525719807,757.4470525719807,759.9488492079545,759.9488492079545,759.9488492079545,759.9488492079545,759.9488492079545,50,41,38,68,68,41,6.0,1.569787955028005,761.5562217949773,763.3763485429808,,,,,,,,102,f,25,2022-11-25_09h32.03.107,RL,2022.2.4,None,
1,79,0,79,0,,,,,,,,,,None,763.3763485429808,763.3763485429808,763.3763485429808,763.3763485429808,763.3763485429808,763.3763485429808,j,0.38091351999901235,763.8766808459768,763.8766808459768,763.8766808459768,763.8766808459768,763.8766808459768,763.8766808459768,764.1169478009688,764.1169478009688,765.5058071509702,765.5058071509702,765.5917841129703,765.5917841129703,765.5917841129703,765.5917841129703,765.5917841129703,765.5917841129703,765.5917841129703,765.5917841129703,765.5917841129703,765.5917841129703,765.5917841129703,765.5917841129703,765.5917841129703,765.5917841129703,765.5917841129703,768.1161319419625,768.1161319419625,768.1161319419625,768.1161319419625,768.1161319419625,60,48,30,73,73,70,7.0,0.907202303991653,769.0472794380039,770.622410736978,,,,,,,,102,f,25,2022-11-25_09h32.03.107,RL,2022.2.4,None,
1,80,0,80,0,,,,,,,,,,None,770.622410736978,770.622410736978,770.622410736978,770.622410736978,770.622410736978,770.622410736978,j,0.3903238360071555,771.1018425849616,771.1018425849616,771.1018425849616,771.1018425849616,771.1018425849616,771.1018425849616,771.3557360949926,771.3557360949926,772.1954686379759,772.1954686379759,772.2285826779553,772.2285826779553,772.2285826779553,772.2285826779553,772.2285826779553,772.2285826779553,772.2285826779553,772.2285826779553,772.2285826779553,772.2285826779553,772.2285826779553,772.2285826779553,772.2285826779553,772.2285826779553,772.2285826779553,774.7569837229676,774.7569837229676,774.7569837229676,774.7569837229676,774.7569837229676,58,57,32,70,70,66,7.0,1.2811572030186653,776.0564468319644,777.930256122956,,,,,,,,102,f,25,2022-11-25_09h32.03.107,RL,2022.2.4,None,
1,81,0,81,0,,,,,,,,,,None,777.930256122956,777.930256122956,777.930256122956,777.930256122956,777.930256122956,777.930256122956,j,0.3465238920180127,778.3560973719577,778.3560973719577,778.3560973719577,778.3560973719577,778.3560973719577,778.3560973719577,778.6140904939966,778.6140904939966,780.2792515979963,780.2792515979963,780.3365358570009,780.3365358570009,780.3365358570009,780.3365358570009,780.3365358570009,780.3365358570009,780.3365358570009,780.3365358570009,780.3365358570009,780.3365358570009,780.3365358570009,780.3365358570009,780.3365358570009,780.3365358570009,780.3365358570009,782.8426182999974,782.8426182999974,782.8426182999974,782.8426182999974,782.8426182999974,62,53,32,65,65,69,6.0,0.4853970490512438,783.3519415589981,785.3570720279822,,,,,,,,102,f,25,2022-11-25_09h32.03.107,RL,2022.2.4,None,
1,82,0,82,0,,,,,,,,,,None,785.3570720279822,785.3570720279822,785.3570720279822,785.3570720279822,785.3570720279822,785.3570720279822,i,0.2749244879814796,785.7217893939815,785.7217893939815,785.7217893939815,785.7217893939815,785.7217893939815,785.7217893939815,785.9954917039722,785.9954917039722,787.7894677689765,787.7894677689765,787.825140564004,787.825140564004,787.825140564004,787.825140564004,787.825140564004,787.825140564004,787.825140564004,787.825140564004,787.825140564004,787.825140564004,787.825140564004,787.825140564004,787.825140564004,787.825140564004,787.825140564004,790.3282650119509,790.3282650119509,790.3282650119509,790.3282650119509,790.3282650119509,59,47,30,69,30,66,5.0,0.9394884000066668,791.3073934119893,792.9945034160046,,,,,,,,102,f,25,2022-11-25_09h32.03.107,RL,2022.2.4,None,
1,83,0,83,0,,,,,,,,,,None,792.9945034160046,792.9945034160046,792.9945034160046,792.9945034160046,792.9945034160046,792.9945034160046,r,0.3388184430077672,793.4105181579944,793.4105181579944,793.4105181579944,793.4105181579944,793.4105181579944,793.4105181579944,793.6757849800051,793.6757849800051,794.7175820309785,794.7175820309785,794.7175820309785,794.7175820309785,794.7175820309785,794.7175820309785,794.7175820309785,794.7175820309785,794.7175820309785,794.7175820309785,794.7175820309785,794.7175820309785,794.7175820309785,794.7175820309785,794.7175820309785,794.7175820309785,794.7175820309785,797.2673277439899,797.2673277439899,797.2673277439899,797.2673277439899,797.2673277439899,53,50,39,58,53,66,5.0,0.9213076499872841,798.211327527999,799.7807470389525,,,,,,,,102,f,25,2022-11-25_09h32.03.107,RL,2022.2.4,None,
1,84,0,84,0,,,,,,,,,,None,799.7807470389525,799.7807470389525,799.7807470389525,799.7807470389525,799.7807470389525,799.7807470389525,j,0.3624977800063789,800.2141299739596,800.2141299739596,800.2141299739596,800.2141299739596,800.2141299739596,800.2141299739596,800.5191415229929,800.5191415229929,801.6318346639746,801.6318346639746,801.6318346639746,801.6318346639746,801.6318346639746,801.6318346639746,801.6318346639746,801.6318346639746,801.6318346639746,801.6318346639746,801.6318346639746,801.6318346639746,801.6318346639746,801.6318346639746,801.6318346639746,801.6318346639746,801.6318346639746,804.1649197869701,804.1649197869701,804.1649197869701,804.1649197869701,804.1649197869701,49,57,44,66,66,79,5.0,0.9299492490245029,805.1385537369642,806.7535158949904,,,,,,,,102,f,25,2022-11-25_09h32.03.107,RL,2022.2.4,None,
1,85,0,85,0,,,,,,,,,,None,806.7535158949904,806.7535158949904,806.7535158949904,806.7535158949904,806.7535158949904,806.7535158949904,i,0.8790941439801827,807.7124650809565,807.7124650809565,807.7124650809565,807.7124650809565,807.7124650809565,807.7124650809565,808.0024165709619,808.0024165709619,809.9478715209989,809.9478715209989,809.9478715209989,809.9478715209989,809.9478715209989,809.9478715209989,809.9478715209989,809.9478715209989,809.9478715209989,809.9478715209989,809.9478715209989,809.9478715209989,809.9478715209989,809.9478715209989,809.9478715209989,809.9478715209989,809.9478715209989,812.4675715579651,812.4675715579651,812.4675715579651,812.4675715579651,812.4675715579651,56,58,38,66,38,76,5.0,0.8259881379781291,813.333326583961,815.0718758039875,,,,,,,,102,f,25,2022-11-25_09h32.03.107,RL,2022.2.4,None,
1,86,0,86,0,,,,,,,,,,None,815.0718758039875,815.0718758039875,815.0718758039875,815.0718758039875,815.0718758039875,815.0718758039875,f,0.6390573790413328,815.7801769059733,815.7801769059733,815.7801769059733,815.7801769059733,815.7801769059733,815.7801769059733,816.0609609229723,816.0609609229723,817.7653824869776,817.7653824869776,817.7972402339801,817.7972402339801,817.7972402339801,817.7972402339801,817.7972402339801,817.7972402339801,817.7972402339801,817.7972402339801,817.7972402339801,817.7972402339801,817.7972402339801,817.7972402339801,817.7972402339801,817.7972402339801,817.7972402339801,820.3122280319803,820.3122280319803,820.3122280319803,820.3122280319803,820.3122280319803,53,51,44,57,51,74,5.0,0.8153774160309695,821.1712664359948,823.1558861549711,,,,,,,,102,f,25,2022-11-25_09h32.03.107,RL,2022.2.4,None,
1,87,0,87,0,,,,,,,,,,None,823.1558861549711,823.1558861549711,823.1558861549711,823.1558861549711,823.1558861549711,823.1558861549711,r,0.43721493397606537,823.6676225339761,823.6676225339761,823.6676225339761,823.6676225339761,823.6676225339761,823.6676225339761,823.9410901169758,823.9410901169758,825.20636384096,825.20636384096,825.2602739979629,825.2602739979629,825.2602739979629,825.2602739979629,825.2602739979629,825.2602739979629,825.2602739979629,825.2602739979629,825.2602739979629,825.2602739979629,825.2602739979629,825.2602739979629,825.2602739979629,825.2602739979629,825.2602739979629,827.7769056819961,827.7769056819961,827.7769056819961,827.7769056819961,827.7769056819961,60,57,42,65,60,63,6.0,1.277981530991383,829.0914077469497,830.9725488299737,,,,,,,,102,f,25,2022-11-25_09h32.03.107,RL,2022.2.4,None,
1,88,0,88,0,,,,,,,,,,None,830.9725488299737,830.9725488299737,830.9725488299737,830.9725488299737,830.9725488299737,830.9725488299737,r,0.36465114599559456,831.414512221003,831.414512221003,831.414512221003,831.414512221003,831.414512221003,831.414512221003,831.693535490951,831.693535490951,832.7766810570029,832.7766810570029,832.821598349954,832.821598349954,832.821598349954,832.821598349954,832.821598349954,832.821598349954,832.821598349954,832.821598349954,832.821598349954,832.821598349954,832.821598349954,832.821598349954,832.821598349954,832.821598349954,832.821598349954,835.3499399959692,835.3499399959692,835.3499399959692,835.3499399959692,835.3499399959692,50,63,50,63,50,50,6.0,0.806371524988208,836.1825006429572,838.2122598979622,,,,,,,,102,f,25,2022-11-25_09h32.03.107,RL,2022.2.4,None,
1,89,0,89,0,,,,,,,,,,None,838.2122598979622,838.2122598979622,838.2122598979622,838.2122598979622,838.2122598979622,838.2122598979622,r,0.32190807396546006,838.6471313939546,838.6471313939546,838.6471313939546,838.6471313939546,838.6471313939546,838.6471313939546,838.9092985219904,838.9092985219904,840.0418482669629,840.0418482669629,840.0802482349682,840.0802482349682,840.0802482349682,840.0802482349682,840.0802482349682,840.0802482349682,840.0802482349682,840.0802482349682,840.0802482349682,840.0802482349682,840.0802482349682,840.0802482349682,840.0802482349682,840.0802482349682,840.0802482349682,842.6359251959948,842.6359251959948,842.6359251959948,842.6359251959948,842.6359251959948,54,54,48,57,54,66,5.0,0.7511922540143132,843.3983023639885,845.0686959729646,,,,,,,,102,f,25,2022-11-25_09h32.03.107,RL,2022.2.4,None,
1,90,0,90,0,,,,,,,,,,None,845.0686959729646,845.0686959729646,845.0686959729646,845.0686959729646,845.0686959729646,845.0686959729646,r,0.28429003001656383,845.4645587079576,845.4645587079576,845.4645587079576,845.4645587079576,845.4645587079576,845.4645587079576,845.729110049957,845.729110049957,847.2665162209887,847.2665162209887,847.3189130289829,847.3189130289829,847.3189130289829,847.3189130289829,847.3189130289829,847.3189130289829,847.3189130289829,847.3189130289829,847.3189130289829,847.3189130289829,847.3189130289829,847.3189130289829,847.3189130289829,847.3189130289829,847.3189130289829,849.8336996439612,849.8336996439612,849.8336996439612,849.8336996439612,849.8336996439612,59,60,45,58,59,45,7.0,0.9797952880035155,850.8362989039742,852.8118601229507,,,,,,,,102,f,25,2022-11-25_09h32.03.107,RL,2022.2.4,None,
1,91,0,91,0,,,,,,,,,,None,852.8118601229507,852.8118601229507,852.8118601229507,852.8118601229507,852.8118601229507,852.8118601229507,r,0.3587035260279663,853.2775261869538,853.2775261869538,853.2775261869538,853.2775261869538,853.2775261869538,853.2775261869538,853.578264034004,853.578264034004,855.0172700340045,855.0172700340045,855.0172700340045,855.0172700340045,855.0172700340045,855.0172700340045,855.0172700340045,855.0172700340045,855.0172700340045,855.0172700340045,855.0172700340045,855.0172700340045,855.0172700340045,855.0172700340045,855.0172700340045,855.0172700340045,855.0172700340045,857.5558913749992,857.5558913749992,857.5558913749992,857.5558913749992,857.5558913749992,51,54,42,53,51,60,6.0,1.2963261000113562,858.915151188965,860.5973629249493,,,,,,,,102,f,25,2022-11-25_09h32.03.107,RL,2022.2.4,None,
1,92,0,92,0,,,,,,,,,,None,860.5973629249493,860.5973629249493,860.5973629249493,860.5973629249493,860.5973629249493,860.5973629249493,j,0.3344946129946038,861.0100418599905,861.0100418599905,861.0100418599905,861.0100418599905,861.0100418599905,861.0100418599905,861.3012482780032,861.3012482780032,862.4591472009779,862.4591472009779,862.4591472009779,862.4591472009779,862.4591472009779,862.4591472009779,862.4591472009779,862.4591472009779,862.4591472009779,862.4591472009779,862.4591472009779,862.4591472009779,862.4591472009779,862.4591472009779,862.4591472009779,862.4591472009779,862.4591472009779,864.9402522229939,864.9402522229939,864.9402522229939,864.9402522229939,864.9402522229939,58,52,45,55,55,76,5.0,0.7133267230237834,865.691403720004,867.627955178963,,,,,,,,102,f,25,2022-11-25_09h32.03.107,RL,2022.2.4,None,
1,93,0,93,0,,,,,,,,,,None,867.627955178963,867.627955178963,867.627955178963,867.627955178963,867.627955178963,867.627955178963,j,0.26070321298902854,867.9688805189799,867.9688805189799,867.9688805189799,867.9688805189799,867.9688805189799,867.9688805189799,868.2580452759867,868.2580452759867,869.3681540349498,869.3681540349498,869.3681540349498,869.3681540349498,869.3681540349498,869.3681540349498,869.3681540349498,869.3681540349498,869.3681540349498,869.3681540349498,869.3681540349498,869.3681540349498,869.3681540349498,869.3681540349498,869.3681540349498,869.3681540349498,869.3681540349498,871.8690518349758,871.8690518349758,871.8690518349758,871.8690518349758,871.8690518349758,47,47,49,49,49,75,5.0,0.8392386179766618,872.7480184549931,874.5206274069496,,,,,,,,102,f,25,2022-11-25_09h32.03.107,RL,2022.2.4,None,
1,94,0,94,0,,,,,,,,,,None,874.5206274069496,874.5206274069496,874.5206274069496,874.5206274069496,874.5206274069496,874.5206274069496,j,0.24231903703184798,874.8654659189633,874.8654659189633,874.8654659189633,874.8654659189633,874.8654659189633,874.8654659189633,875.1304873299669,875.1304873299669,876.6642971439869,876.6642971439869,876.7096103199874,876.7096103199874,876.7096103199874,876.7096103199874,876.7096103199874,876.7096103199874,876.7096103199874,876.7096103199874,876.7096103199874,876.7096103199874,876.7096103199874,876.7096103199874,876.7096103199874,876.7096103199874,876.7096103199874,879.2240124269738,879.2240124269738,879.2240124269738,879.2240124269738,879.2240124269738,56,49,54,56,56,48,6.0,1.4693233640282415,880.7290677679703,882.4730930329533,,,,,,,,102,f,25,2022-11-25_09h32.03.107,RL,2022.2.4,None,
1,95,0,95,0,,,,,,,,,,None,882.4730930329533,882.4730930329533,882.4730930329533,882.4730930329533,882.4730930329533,882.4730930329533,j,0.4531823949655518,883.0032896829653,883.0032896829653,883.0032896829653,883.0032896829653,883.0032896829653,883.0032896829653,883.3335954679642,883.3335954679642,885.2046985820052,885.2046985820052,885.1624645459815,885.1624645459815,885.1624645459815,885.1624645459815,885.1624645459815,885.1624645459815,885.2046985820052,885.2046985820052,885.2046985820052,885.2046985820052,885.2046985820052,885.2046985820052,885.2046985820052,885.2046985820052,885.2046985820052,887.7229742739582,887.7229742739582,887.7229742739582,887.7229742739582,887.7229742739582,52,61,55,56,56,68,6.0,1.5472513599670492,889.2945590209565,891.2358891890035,,,,,,,,102,f,25,2022-11-25_09h32.03.107,RL,2022.2.4,None,
1,96,0,96,0,,,,,,,,,,None,891.2358891890035,891.2358891890035,891.2358891890035,891.2358891890035,891.2358891890035,891.2358891890035,i,0.2974792430177331,891.6032075499534,891.6032075499534,891.6032075499534,891.6032075499534,891.6032075499534,891.6032075499534,891.8730555019574,891.8730555019574,892.9549932819791,892.9549932819791,892.9549932819791,892.9549932819791,892.9549932819791,892.9549932819791,892.9549932819791,892.9549932819791,892.9549932819791,892.9549932819791,892.9549932819791,892.9549932819791,892.9549932819791,892.9549932819791,892.9549932819791,892.9549932819791,892.9549932819791,895.4635334429913,895.4635334429913,895.4635334429913,895.4635334429913,895.4635334429913,56,56,63,52,63,70,5.0,1.3886409840197302,896.8580199309508,898.4487180099823,,,,,,,,102,f,25,2022-11-25_09h32.03.107,RL,2022.2.4,None,
1,97,0,97,0,,,,,,,,,,None,898.4487180099823,898.4487180099823,898.4487180099823,898.4487180099823,898.4487180099823,898.4487180099823,i,0.26744814502308145,898.796887894976,898.796887894976,898.796887894976,898.796887894976,898.796887894976,898.796887894976,899.0658012129716,899.0658012129716,900.7381704690051,900.7381704690051,900.7870707199909,900.7870707199909,900.7870707199909,900.7870707199909,900.7870707199909,900.7870707199909,900.7870707199909,900.7870707199909,900.7870707199909,900.7870707199909,900.7870707199909,900.7870707199909,900.7870707199909,900.7870707199909,900.7870707199909,903.3486282429658,903.3486282429658,903.3486282429658,903.3486282429658,903.3486282429658,52,55,68,48,68,63,7.0,0.9944437920348719,904.378530797956,906.1071976979729,,,,,,,,102,f,25,2022-11-25_09h32.03.107,RL,2022.2.4,None,
1,98,0,98,0,,,,,,,,,,None,906.1071976979729,906.1071976979729,906.1071976979729,906.1071976979729,906.1071976979729,906.1071976979729,i,0.3447473459527828,906.5110172359855,906.5110172359855,906.5110172359855,906.5110172359855,906.5110172359855,906.5110172359855,906.7906188289635,906.7906188289635,908.2757879429846,908.2757879429846,908.2757879429846,908.2757879429846,908.2757879429846,908.2757879429846,908.2757879429846,908.2757879429846,908.2757879429846,908.2757879429846,908.2757879429846,908.2757879429846,908.2757879429846,908.2757879429846,908.2757879429846,908.2757879429846,908.2757879429846,910.7798437209567,910.7798437209567,910.7798437209567,910.7798437209567,910.7798437209567,54,52,59,47,59,49,7.0,0.5702929709805176,911.36850193399,913.0594994489802,,,,,,,,102,f,25,2022-11-25_09h32.03.107,RL,2022.2.4,None,
1,99,0,99,0,,,,,,,,,,None,913.0594994489802,913.0594994489802,913.0594994489802,913.0594994489802,913.0594994489802,913.0594994489802,i,0.33792478003306314,913.4792583399685,913.4792583399685,913.4792583399685,913.4792583399685,913.4792583399685,913.4792583399685,913.7682905769907,913.7682905769907,915.1416741939611,915.1416741939611,915.1869136169553,915.1869136169553,915.1869136169553,915.1869136169553,915.1869136169553,915.1869136169553,915.1869136169553,915.1869136169553,915.1869136169553,915.1869136169553,915.1869136169553,915.1869136169553,915.1869136169553,915.1869136169553,915.1869136169553,917.6887194349547,917.6887194349547,917.6887194349547,917.6887194349547,917.6887194349547,58,68,67,46,67,27,7.0,0.4913709679967724,918.2010191970039,920.0966677069664,,,,,,,,102,f,25,2022-11-25_09h32.03.107,RL,2022.2.4,None,
1,100,0,100,0,,,,,,,,,,None,920.0966677069664,920.0966677069664,920.0966677069664,920.0966677069664,920.0966677069664,920.0966677069664,i,0.32656833302462474,920.5218790269573,920.5218790269573,920.5218790269573,920.5218790269573,920.5218790269573,920.5218790269573,920.782470606966,920.782470606966,922.5096520779771,922.5096520779771,922.559247903002,922.559247903002,922.559247903002,922.559247903002,922.559247903002,922.559247903002,922.559247903002,922.559247903002,922.559247903002,922.559247903002,922.559247903002,922.559247903002,922.559247903002,922.559247903002,922.559247903002,925.0600934599643,925.0600934599643,925.0600934599643,925.0600934599643,925.0600934599643,52,57,57,48,57,63,6.0,2.2055224400246516,927.3195027829497,929.1631879640045,,,,,,,,102,f,25,2022-11-25_09h32.03.107,RL,2022.2.4,None,
1,101,0,101,0,,,,,,,,,,None,929.1631879640045,929.1631879640045,929.1631879640045,929.1631879640045,929.1631879640045,929.1631879640045,r,0.6409672099980526,929.8941707109916,929.8941707109916,929.8941707109916,929.8941707109916,929.8941707109916,929.8941707109916,930.1506088589667,930.1506088589667,931.9187118209666,931.9187118209666,931.9187118209666,931.9187118209666,931.9187118209666,931.9187118209666,931.9187118209666,931.9187118209666,931.9187118209666,931.9187118209666,931.9187118209666,931.9187118209666,931.9187118209666,931.9187118209666,931.9187118209666,931.9187118209666,931.9187118209666,934.4339057749603,934.4339057749603,934.4339057749603,934.4339057749603,934.4339057749603,54,47,55,50,54,57,6.0,0.5182993799680844,934.9833049159497,936.6151056499803,,,,,,,,102,f,25,2022-11-25_09h32.03.107,RL,2022.2.4,None,
1,102,0,102,0,,,,,,,,,,None,936.6151056499803,936.6151056499803,936.6151056499803,936.6151056499803,936.6151056499803,936.6151056499803,r,0.3679970159428194,937.0539539209567,937.0539539209567,937.0539539209567,937.0539539209567,937.0539539209567,937.0539539209567,937.3585180919617,937.3585180919617,938.4501369729987,938.4501369729987,938.4501369729987,938.4501369729987,938.4501369729987,938.4501369729987,938.4501369729987,938.4501369729987,938.4501369729987,938.4501369729987,938.4501369729987,938.4501369729987,938.4501369729987,938.4501369729987,938.4501369729987,938.4501369729987,938.4501369729987,940.9634132559877,940.9634132559877,940.9634132559877,940.9634132559877,940.9634132559877,49,53,57,48,49,58,5.0,1.055447078018915,942.035205335007,943.7891297089518,,,,,,,,102,f,25,2022-11-25_09h32.03.107,RL,2022.2.4,None,
1,103,0,103,0,,,,,,,,,,None,943.7891297089518,943.7891297089518,943.7891297089518,943.7891297089518,943.7891297089518,943.7891297089518,r,0.28898504201788455,944.1677144590067,944.1677144590067,944.1677144590067,944.1677144590067,944.1677144590067,944.1677144590067,944.4309942889959,944.4309942889959,945.9855258669704,945.9855258669704,946.0463996399776,946.0463996399776,946.0463996399776,946.0463996399776,946.0463996399776,946.0463996399776,946.0463996399776,946.0463996399776,946.0463996399776,946.0463996399776,946.0463996399776,946.0463996399776,946.0463996399776,946.0463996399776,946.0463996399776,948.5810046809493,948.5810046809493,948.5810046809493,948.5810046809493,948.5810046809493,48,50,61,42,48,57,5.0,0.9249859109986573,949.5237662,951.5646620430052,,,,,,,,102,f,25,2022-11-25_09h32.03.107,RL,2022.2.4,None,
1,104,0,104,0,,,,,,,,,,None,951.5646620430052,951.5646620430052,951.5646620430052,951.5646620430052,951.5646620430052,951.5646620430052,i,0.3539517699973658,952.0158929069876,952.0158929069876,952.0158929069876,952.0158929069876,952.0158929069876,952.0158929069876,952.2914140439825,952.2914140439825,953.8699981909594,953.8699981909594,953.8699981909594,953.8699981909594,953.8699981909594,953.8699981909594,953.8699981909594,953.8699981909594,953.8699981909594,953.8699981909594,953.8699981909594,953.8699981909594,953.8699981909594,953.8699981909594,953.8699981909594,953.8699981909594,953.8699981909594,956.3885417509591,956.3885417509591,956.3885417509591,956.3885417509591,956.3885417509591,39,51,57,51,57,60,5.0,0.8959956910111941,957.3296588179655,959.1245910699945,,,,,,,,102,f,25,2022-11-25_09h32.03.107,RL,2022.2.4,None,
1,105,0,105,0,,,,,,,,,,None,959.1245910699945,959.1245910699945,959.1245910699945,959.1245910699945,959.1245910699945,959.1245910699945,i,0.30766139598563313,959.509304726962,959.509304726962,959.509304726962,959.509304726962,959.509304726962,959.509304726962,959.7471079069655,959.7471079069655,961.2546954099671,961.2546954099671,961.304690392979,961.304690392979,961.304690392979,961.304690392979,961.304690392979,961.304690392979,961.304690392979,961.304690392979,961.304690392979,961.304690392979,961.304690392979,961.304690392979,961.304690392979,961.304690392979,961.304690392979,963.8187201219844,963.8187201219844,963.8187201219844,963.8187201219844,963.8187201219844,51,51,57,62,57,36,7.0,1.442233192967251,965.3259575569537,967.0810298629804,,,,,,,,102,f,25,2022-11-25_09h32.03.107,RL,2022.2.4,None,
1,106,0,106,0,,,,,,,,,,None,967.0810298629804,967.0810298629804,967.0810298629804,967.0810298629804,967.0810298629804,967.0810298629804,i,0.27190658199833706,967.4165191669599,967.4165191669599,967.4165191669599,967.4165191669599,967.4165191669599,967.4165191669599,967.70750739699,967.70750739699,969.3850328989793,969.3850328989793,969.4307119019795,969.4307119019795,969.4307119019795,969.4307119019795,969.4307119019795,969.4307119019795,969.4307119019795,969.4307119019795,969.4307119019795,969.4307119019795,969.4307119019795,969.4307119019795,969.4307119019795,969.4307119019795,969.4307119019795,971.9294503929559,971.9294503929559,971.9294503929559,971.9294503929559,971.9294503929559,40,37,51,57,51,46,7.0,0.4721956109860912,972.4179195649922,974.3807395320036,,,,,,,,102,f,25,2022-11-25_09h32.03.107,RL,2022.2.4,None,
1,107,0,107,0,,,,,,,,,,None,974.3807395320036,974.3807395320036,974.3807395320036,974.3807395320036,974.3807395320036,974.3807395320036,i,0.33274728496326134,974.7990482680034,974.7990482680034,974.7990482680034,974.7990482680034,974.7990482680034,974.7990482680034,975.0756580339512,975.0756580339512,976.48185301997,976.48185301997,976.521270127967,976.521270127967,976.521270127967,976.521270127967,976.521270127967,976.521270127967,976.521270127967,976.521270127967,976.521270127967,976.521270127967,976.521270127967,976.521270127967,976.521270127967,976.521270127967,976.521270127967,979.0350195689825,979.0350195689825,979.0350195689825,979.0350195689825,979.0350195689825,40,42,49,59,49,55,6.0,0.8068699879804626,979.8698299049865,981.5741698759957,,,,,,,,102,f,25,2022-11-25_09h32.03.107,RL,2022.2.4,None,
1,108,0,108,0,,,,,,,,,,None,981.5741698759957,981.5741698759957,981.5741698759957,981.5741698759957,981.5741698759957,981.5741698759957,i,0.3752686190418899,982.0195440949756,982.0195440949756,982.0195440949756,982.0195440949756,982.0195440949756,982.0195440949756,982.3183325529681,982.3183325529681,983.5555043990025,983.5555043990025,983.5555043990025,983.5555043990025,983.5555043990025,983.5555043990025,983.5555043990025,983.5555043990025,983.5555043990025,983.5555043990025,983.5555043990025,983.5555043990025,983.5555043990025,983.5555043990025,983.5555043990025,983.5555043990025,983.5555043990025,986.0824880839791,986.0824880839791,986.0824880839791,986.0824880839791,986.0824880839791,46,45,56,65,56,44,7.0,0.9581305799656548,987.0836572769913,988.9085634839721,,,,,,,,102,f,25,2022-11-25_09h32.03.107,RL,2022.2.4,None,
1,109,0,109,0,,,,,,,,,,None,988.9085634839721,988.9085634839721,988.9085634839721,988.9085634839721,988.9085634839721,988.9085634839721,j,0.5678204409778118,989.5538947739988,989.5538947739988,989.5538947739988,989.5538947739988,989.5538947739988,989.5538947739988,989.846875312971,989.846875312971,991.6986183300032,991.6986183300032,991.7407486719894,991.7407486719894,991.7407486719894,991.7407486719894,991.7407486719894,991.7407486719894,991.7407486719894,991.7407486719894,991.7407486719894,991.7407486719894,991.7407486719894,991.7407486719894,991.7407486719894,991.7407486719894,991.7407486719894,994.273545146978,994.273545146978,994.273545146978,994.273545146978,994.273545146978,39,38,60,55,55,56,7.0,0.6359160579741001,994.9525748809683,996.5239807339967,,,,,,,,102,f,25,2022-11-25_09h32.03.107,RL,2022.2.4,None,
1,110,0,110,0,,,,,,,,,,None,996.5239807339967,996.5239807339967,996.5239807339967,996.5239807339967,996.5239807339967,996.5239807339967,j,0.33263651304878294,996.9381911139935,996.9381911139935,996.9381911139935,996.9381911139935,996.9381911139935,996.9381911139935,997.204143297975,997.204143297975,999.2352828889852,999.2352828889852,999.2852412429638,999.2852412429638,999.2852412429638,999.2852412429638,999.2852412429638,999.2852412429638,999.2852412429638,999.2852412429638,999.2852412429638,999.2852412429638,999.2852412429638,999.2852412429638,999.2852412429638,999.2852412429638,999.2852412429638,1001.8106623409549,1001.8106623409549,1001.8106623409549,1001.8106623409549,1001.8106623409549,40,41,56,59,59,56,7.0,0.5177842590492219,1002.3464999870048,1003.9424146509846,,,,,,,,102,f,25,2022-11-25_09h32.03.107,RL,2022.2.4,None,
1,111,0,111,0,,,,,,,,,,None,1003.9424146509846,1003.9424146509846,1003.9424146509846,1003.9424146509846,1003.9424146509846,1003.9424146509846,j,0.383534666034393,1004.3902254489949,1004.3902254489949,1004.3902254489949,1004.3902254489949,1004.3902254489949,1004.3902254489949,1004.6710846700007,1004.6710846700007,1005.5186538840062,1005.5186538840062,1005.5576963979984,1005.5576963979984,1005.5576963979984,1005.5576963979984,1005.5576963979984,1005.5576963979984,1005.5576963979984,1005.5576963979984,1005.5576963979984,1005.5576963979984,1005.5576963979984,1005.5576963979984,1005.5576963979984,1005.5576963979984,1005.5576963979984,1008.0681073659798,1008.0681073659798,1008.0681073659798,1008.0681073659798,1008.0681073659798,34,34,54,62,62,51,7.0,0.9113491059979424,1009.022485280002,1010.8448136829538,,,,,,,,102,f,25,2022-11-25_09h32.03.107,RL,2022.2.4,None,
1,112,0,112,0,,,,,,,,,,None,1010.8448136829538,1010.8448136829538,1010.8448136829538,1010.8448136829538,1010.8448136829538,1010.8448136829538,j,0.5512175600160845,1011.4936927999952,1011.4936927999952,1011.4936927999952,1011.4936927999952,1011.4936927999952,1011.4936927999952,1011.7984502849868,1011.7984502849868,1013.5596790199634,1013.5596790199634,1013.5596790199634,1013.5596790199634,1013.5596790199634,1013.5596790199634,1013.5596790199634,1013.5596790199634,1013.5596790199634,1013.5596790199634,1013.5596790199634,1013.5596790199634,1013.5596790199634,1013.5596790199634,1013.5596790199634,1013.5596790199634,1013.5596790199634,1016.0945110669709,1016.0945110669709,1016.0945110669709,1016.0945110669709,1016.0945110669709,47,43,59,73,73,43,7.0,0.6890979470335878,1016.8134351579938,1018.8330611999845,,,,,,,,102,f,25,2022-11-25_09h32.03.107,RL,2022.2.4,None,
1,113,0,113,0,,,,,,,,,,None,1018.8330611999845,1018.8330611999845,1018.8330611999845,1018.8330611999845,1018.8330611999845,1018.8330611999845,j,0.4472587199998088,1019.3721675789566,1019.3721675789566,1019.3721675789566,1019.3721675789566,1019.3721675789566,1019.3721675789566,1019.6293991970015,1019.6293991970015,1021.2190383949783,1021.2190383949783,1021.2638953769929,1021.2638953769929,1021.2638953769929,1021.2638953769929,1021.2638953769929,1021.2638953769929,1021.2638953769929,1021.2638953769929,1021.2638953769929,1021.2638953769929,1021.2638953769929,1021.2638953769929,1021.2638953769929,1021.2638953769929,1021.2638953769929,1023.7693771569757,1023.7693771569757,1023.7693771569757,1023.7693771569757,1023.7693771569757,49,41,45,59,59,40,7.0,0.7009464080329053,1024.5338916229666,1026.5084872909938,,,,,,,,102,f,25,2022-11-25_09h32.03.107,RL,2022.2.4,None,
1,114,0,114,0,,,,,,,,,,None,1026.5084872909938,1026.5084872909938,1026.5084872909938,1026.5084872909938,1026.5084872909938,1026.5084872909938,r,0.35385301400674507,1026.938842649979,1026.938842649979,1026.938842649979,1026.938842649979,1026.938842649979,1026.938842649979,1027.2317794859991,1027.2317794859991,1029.2142304229783,1029.2142304229783,1029.2142304229783,1029.2142304229783,1029.2142304229783,1029.2142304229783,1029.2142304229783,1029.2142304229783,1029.2142304229783,1029.2142304229783,1029.2142304229783,1029.2142304229783,1029.2142304229783,1029.2142304229783,1029.2142304229783,1029.2142304229783,1029.2142304229783,1031.7091147099854,1031.7091147099854,1031.7091147099854,1031.7091147099854,1031.7091147099854,44,39,44,53,44,55,6.0,1.4313590140081942,1033.1820953879505,1034.7525123469532,,,,,,,,102,f,25,2022-11-25_09h32.03.107,RL,2022.2.4,None,
1,115,0,115,0,,,,,,,,,,None,1034.7525123469532,1034.7525123469532,1034.7525123469532,1034.7525123469532,1034.7525123469532,1034.7525123469532,i,0.45344054501038045,1035.3128754959907,1035.3128754959907,1035.3128754959907,1035.3128754959907,1035.3128754959907,1035.3128754959907,1035.6125813609688,1035.6125813609688,1037.5498895009514,1037.5498895009514,1037.5498895009514,1037.5498895009514,1037.5498895009514,1037.5498895009514,1037.5498895009514,1037.5498895009514,1037.5498895009514,1037.5498895009514,1037.5498895009514,1037.5498895009514,1037.5498895009514,1037.5498895009514,1037.5498895009514,1037.5498895009514,1037.5498895009514,1040.039584241982,1040.039584241982,1040.039584241982,1040.039584241982,1040.039584241982,47,37,54,58,54,46,7.0,1.5215894199791364,1041.6051637359778,1043.5994107750012,,,,,,,,102,f,25,2022-11-25_09h32.03.107,RL,2022.2.4,None,
1,116,0,116,0,,,,,,,,,,None,1043.5994107750012,1043.5994107750012,1043.5994107750012,1043.5994107750012,1043.5994107750012,1043.5994107750012,i,0.36975269799586385,1044.0261525049573,1044.0261525049573,1044.0261525049573,1044.0261525049573,1044.0261525049573,1044.0261525049573,1044.3216623179615,1044.3216623179615,1046.1212289879913,1046.1212289879913,1046.1212289879913,1046.1212289879913,1046.1212289879913,1046.1212289879913,1046.1212289879913,1046.1212289879913,1046.1212289879913,1046.1212289879913,1046.1212289879913,1046.1212289879913,1046.1212289879913,1046.1212289879913,1046.1212289879913,1046.1212289879913,1046.1212289879913,1048.6361337219714,1048.6361337219714,1048.6361337219714,1048.6361337219714,1048.6361337219714,56,45,51,65,51,48,7.0,0.7691475310130045,1049.4318487769924,1050.974196245952,,,,,,,,102,f,25,2022-11-25_09h32.03.107,RL,2022.2.4,None,
