bandit,trials.thisRepN,trials.thisTrialN,trials.thisN,trials.thisIndex,instru_img1.started,instru_resp.started,instru_resp.keys,instru_resp.rt,instru_img2.started,instru_resp2.started,instru_resp2.keys,instru_resp2.rt,fixbefore_2.started,rest_response.keys,red.started,green.started,yellow.started,blue.started,choose_bandit.started,Fixation.started,choose_bandit.keys,choose_bandit.rt,black.started,red_2.started,green_2.started,yellow_2.started,blue_2.started,fixation_2.started,docs.started,image_2.started,docs.stopped,image_2.stopped,black.stopped,red_2.stopped,green_2.stopped,yellow_2.stopped,blue_2.stopped,fixation_2.stopped,black_com.started,reward_sub.started,palyerb.started,reward__sub.started,compare.started,red_compare.started,green_com.started,yellow_com.started,blue_com.started,image_3.started,slider.started,text.started,image_4.started,image_5.started,rewardyellow,rewardred,rewardblue,rewardgreen,subchoose,playerb,slider.response,slider.rt,intertrialfix.started,intertrialfix.stopped,bigx.started,bigx.stopped,rest_image.started,rest_response.started,rest_response.rt,image.started,key_resp.started,key_resp.keys,key_resp.rt,participant,Gender,Age,date,expName,psychopyVersion,frameRate,
,,,,,14.776892900001258,14.776892900001258,space,11.48844869993627,,,,,,,,,,,,,,,,,,,,,,,,,,,,,,,,,,,,,,,,,,,,,,,,,,,,,,,,,,,,,,,,103,f,19,2022-11-25_11h03.07.482,RL,2022.2.4,60.400625308598386,
,,,,,,,,,26.29625180014409,26.29625180014409,space,1.372706800000742,,,,,,,,,,,,,,,,,,,,,,,,,,,,,,,,,,,,,,,,,,,,,,,,,,,,,,,,,,,,103,f,19,2022-11-25_11h03.07.482,RL,2022.2.4,60.400625308598386,
1,0,0,0,0,,,,,,,,,27.686155200004578,None,28.701673000119627,28.701673000119627,28.701673000119627,28.701673000119627,28.701673000119627,28.701673000119627,i,0.2627604999579489,29.040916900150478,29.040916900150478,29.040916900150478,29.040916900150478,29.040916900150478,29.040916900150478,29.28327860007994,29.28327860007994,30.79536890005693,30.79536890005693,30.86279540020041,30.86279540020041,30.86279540020041,30.86279540020041,30.86279540020041,30.86279540020041,30.86279540020041,30.86279540020041,30.86279540020041,30.86279540020041,30.86279540020041,30.86279540020041,30.86279540020041,30.86279540020041,30.86279540020041,33.37147940020077,33.37147940020077,33.37147940020077,33.37147940020077,33.37147940020077,72,43,58,41,58,25,6.0,5.201830500038341,38.704340500058606,40.269512000028044,,,,,,,,,,103,f,19,2022-11-25_11h03.07.482,RL,2022.2.4,60.400625308598386,
1,1,0,1,0,,,,,,,,,,None,40.269512000028044,40.269512000028044,40.269512000028044,40.269512000028044,40.269512000028044,40.269512000028044,f,0.6599738001823425,40.951401400147006,40.951401400147006,40.951401400147006,40.951401400147006,40.951401400147006,40.951401400147006,41.25028630020097,41.25028630020097,42.81229570019059,42.81229570019059,42.81229570019059,42.81229570019059,42.81229570019059,42.81229570019059,42.81229570019059,42.81229570019059,42.81229570019059,42.81229570019059,42.81229570019059,42.81229570019059,42.81229570019059,42.81229570019059,42.81229570019059,42.81229570019059,42.81229570019059,45.321809500223026,45.321809500223026,45.321809500223026,45.321809500223026,45.321809500223026,70,33,57,37,33,29,6.0,1.5616020001471043,46.90038870018907,48.81257260008715,,,,,,,,,,103,f,19,2022-11-25_11h03.07.482,RL,2022.2.4,60.400625308598386,
1,2,0,2,0,,,,,,,,,,None,48.81257260008715,48.81257260008715,48.81257260008715,48.81257260008715,48.81257260008715,48.81257260008715,i,1.0033642000053078,49.84369370015338,49.84369370015338,49.84369370015338,49.84369370015338,49.84369370015338,49.84369370015338,50.14249910018407,50.14249910018407,51.804569400148466,51.804569400148466,51.804569400148466,51.804569400148466,51.804569400148466,51.804569400148466,51.804569400148466,51.804569400148466,51.804569400148466,51.804569400148466,51.804569400148466,51.804569400148466,51.804569400148466,51.804569400148466,51.804569400148466,51.804569400148466,51.804569400148466,54.314123300137,54.314123300137,54.314123300137,54.314123300137,54.314123300137,71,31,57,35,57,54,6.0,1.844281499972567,56.175202100072056,57.88760900008492,,,,,,,,,,103,f,19,2022-11-25_11h03.07.482,RL,2022.2.4,60.400625308598386,
1,3,0,3,0,,,,,,,,,,None,57.88760900008492,57.88760900008492,57.88760900008492,57.88760900008492,57.88760900008492,57.88760900008492,r,0.681327800033614,58.58902520011179,58.58902520011179,58.58902520011179,58.58902520011179,58.58902520011179,58.58902520011179,58.88617410021834,58.88617410021834,60.464157100068405,60.464157100068405,60.464157100068405,60.464157100068405,60.464157100068405,60.464157100068405,60.464157100068405,60.464157100068405,60.464157100068405,60.464157100068405,60.464157100068405,60.464157100068405,60.464157100068405,60.464157100068405,60.464157100068405,60.464157100068405,60.464157100068405,62.97350340010598,62.97350340010598,62.97350340010598,62.97350340010598,62.97350340010598,67,34,56,23,67,48,6.0,1.3135356998536736,64.30324000003748,66.18191120005213,,,,,,,,,,103,f,19,2022-11-25_11h03.07.482,RL,2022.2.4,60.400625308598386,
1,4,0,4,0,,,,,,,,,,None,66.18191120005213,66.18191120005213,66.18191120005213,66.18191120005213,66.18191120005213,66.18191120005213,i,0.6047821000684053,66.81455860007554,66.81455860007554,66.81455860007554,66.81455860007554,66.81455860007554,66.81455860007554,67.11353140021674,67.11353140021674,68.99141290015541,68.99141290015541,68.99141290015541,68.99141290015541,68.99141290015541,68.99141290015541,68.99141290015541,68.99141290015541,68.99141290015541,68.99141290015541,68.99141290015541,68.99141290015541,68.99141290015541,68.99141290015541,68.99141290015541,68.99141290015541,68.99141290015541,71.5005824000109,71.5005824000109,71.5005824000109,71.5005824000109,71.5005824000109,81,37,56,34,56,44,6.0,1.2296480999793857,72.74682110012509,74.54231480020098,,,,,,,,,,103,f,19,2022-11-25_11h03.07.482,RL,2022.2.4,60.400625308598386,
1,5,0,5,0,,,,,,,,,,None,74.54231480020098,74.54231480020098,74.54231480020098,74.54231480020098,74.54231480020098,74.54231480020098,j,0.7077576001174748,75.2743987001013,75.2743987001013,75.2743987001013,75.2743987001013,75.2743987001013,75.2743987001013,75.57298390008509,75.57298390008509,77.56748180021532,77.56748180021532,77.56748180021532,77.56748180021532,77.56748180021532,77.56748180021532,77.56748180021532,77.56748180021532,77.56748180021532,77.56748180021532,77.56748180021532,77.56748180021532,77.56748180021532,77.56748180021532,77.56748180021532,77.56748180021532,77.56748180021532,80.07673030020669,80.07673030020669,80.07673030020669,80.07673030020669,80.07673030020669,80,32,51,28,28,51,6.0,1.3059328000526875,81.38991010002792,83.2357822000049,,,,,,,,,,103,f,19,2022-11-25_11h03.07.482,RL,2022.2.4,60.400625308598386,
1,6,0,6,0,,,,,,,,,,None,83.2357822000049,83.2357822000049,83.2357822000049,83.2357822000049,83.2357822000049,83.2357822000049,r,0.7480663999449462,84.01707680011168,84.01707680011168,84.01707680011168,84.01707680011168,84.01707680011168,84.01707680011168,84.3160291002132,84.3160291002132,85.28005970013328,85.28005970013328,85.28005970013328,85.28005970013328,85.28005970013328,85.28005970013328,85.28005970013328,85.28005970013328,85.28005970013328,85.28005970013328,85.28005970013328,85.28005970013328,85.28005970013328,85.28005970013328,85.28005970013328,85.28005970013328,85.28005970013328,87.78910180018283,87.78910180018283,87.78910180018283,87.78910180018283,87.78910180018283,79,38,48,25,79,52,6.0,1.4620540000032634,89.26821250002831,91.26334090018645,,,,,,,,,,103,f,19,2022-11-25_11h03.07.482,RL,2022.2.4,60.400625308598386,
1,7,0,7,0,,,,,,,,,,None,91.26334090018645,91.26334090018645,91.26334090018645,91.26334090018645,91.26334090018645,91.26334090018645,f,0.5181619999930263,91.8124884001445,91.8124884001445,91.8124884001445,91.8124884001445,91.8124884001445,91.8124884001445,92.11132150003687,92.11132150003687,93.17517840000801,93.17517840000801,93.17517840000801,93.17517840000801,93.17517840000801,93.17517840000801,93.17517840000801,93.17517840000801,93.17517840000801,93.17517840000801,93.17517840000801,93.17517840000801,93.17517840000801,93.17517840000801,93.17517840000801,93.17517840000801,93.17517840000801,95.6846124001313,95.6846124001313,95.6846124001313,95.6846124001313,95.6846124001313,79,46,53,28,46,50,6.0,1.3120261000003666,97.01383720012382,98.95925780013204,,,,,,,,,,103,f,19,2022-11-25_11h03.07.482,RL,2022.2.4,60.400625308598386,
1,8,0,8,0,,,,,,,,,,None,98.95925780013204,98.95925780013204,98.95925780013204,98.95925780013204,98.95925780013204,98.95925780013204,i,0.7608103998936713,99.75004830001853,99.75004830001853,99.75004830001853,99.75004830001853,99.75004830001853,99.75004830001853,100.03983960021287,100.03983960021287,101.53559710015543,101.53559710015543,101.55219230009243,101.55219230009243,101.55219230009243,101.55219230009243,101.55219230009243,101.55219230009243,101.55219230009243,101.55219230009243,101.55219230009243,101.55219230009243,101.55219230009243,101.55219230009243,101.55219230009243,101.55219230009243,101.55219230009243,104.06131880008616,104.06131880008616,104.06131880008616,104.06131880008616,104.06131880008616,75,46,50,27,50,28,6.0,2.1765791999641806,106.25582390022464,108.03468410018831,,,,,,,,,,103,f,19,2022-11-25_11h03.07.482,RL,2022.2.4,60.400625308598386,
1,9,0,9,0,,,,,,,,,,None,108.03468410018831,108.03468410018831,108.03468410018831,108.03468410018831,108.03468410018831,108.03468410018831,f,0.6780850000213832,108.73301470000297,108.73301470000297,108.73301470000297,108.73301470000297,108.73301470000297,108.73301470000297,109.03193550021388,109.03193550021388,110.23000840004534,110.23000840004534,110.23000840004534,110.23000840004534,110.23000840004534,110.23000840004534,110.23000840004534,110.23000840004534,110.23000840004534,110.23000840004534,110.23000840004534,110.23000840004534,110.23000840004534,110.23000840004534,110.23000840004534,110.23000840004534,110.23000840004534,112.73773010005243,112.73773010005243,112.73773010005243,112.73773010005243,112.73773010005243,72,42,51,23,42,38,4.0,1.4288580000866205,114.18379590008408,116.12886190018617,,,,,,,,,,103,f,19,2022-11-25_11h03.07.482,RL,2022.2.4,60.400625308598386,
1,10,0,10,0,,,,,,,,,,None,116.12886190018617,116.12886190018617,116.12886190018617,116.12886190018617,116.12886190018617,116.12886190018617,None,,,,,,,,,,,,,,,,,,,,,,,,,,,,,,,,68,39,64,25,0,**,None,None,122.16184650012292,123.72512820013799,117.64889330021106,122.16184650012292,,,,,,,,103,f,19,2022-11-25_11h03.07.482,RL,2022.2.4,60.400625308598386,
1,11,0,11,0,,,,,,,,,,None,123.72512820013799,123.72512820013799,123.72512820013799,123.72512820013799,123.72512820013799,123.72512820013799,f,0.7145211999304593,124.46035040006973,124.46035040006973,124.46035040006973,124.46035040006973,124.46035040006973,124.46035040006973,124.7557764002122,124.7557764002122,126.48426680010743,126.48426680010743,126.48426680010743,126.48426680010743,126.48426680010743,126.48426680010743,126.48426680010743,126.48426680010743,126.48426680010743,126.48426680010743,126.48426680010743,126.48426680010743,126.48426680010743,126.48426680010743,126.48426680010743,126.48426680010743,126.48426680010743,128.99320920021273,128.99320920021273,128.99320920021273,128.99320920021273,128.99320920021273,68,39,57,30,39,53,3.0,1.022506200009957,130.0244603001047,131.7036176000256,,,,,,,,,,103,f,19,2022-11-25_11h03.07.482,RL,2022.2.4,60.400625308598386,
1,12,0,12,0,,,,,,,,,,None,131.7036176000256,131.7036176000256,131.7036176000256,131.7036176000256,131.7036176000256,131.7036176000256,i,0.2947668000124395,132.03989290003665,132.03989290003665,132.03989290003665,132.03989290003665,132.03989290003665,132.03989290003665,132.31846710015088,132.31846710015088,134.1631187000312,134.1631187000312,134.19627610011958,134.19627610011958,134.19627610011958,134.19627610011958,134.19627610011958,134.19627610011958,134.19627610011958,134.19627610011958,134.19627610011958,134.19627610011958,134.19627610011958,134.19627610011958,134.19627610011958,134.19627610011958,134.19627610011958,136.70567300007679,136.70567300007679,136.70567300007679,136.70567300007679,136.70567300007679,69,39,63,26,63,48,5.0,1.6118018999695778,138.33454470010474,140.24645410012454,,,,,,,,,,103,f,19,2022-11-25_11h03.07.482,RL,2022.2.4,60.400625308598386,
1,13,0,13,0,,,,,,,,,,None,140.24645410012454,140.24645410012454,140.24645410012454,140.24645410012454,140.24645410012454,140.24645410012454,r,0.4251979000400752,140.7011812001001,140.7011812001001,140.7011812001001,140.7011812001001,140.7011812001001,140.7011812001001,140.99509580014274,140.99509580014274,142.9729023000691,142.9729023000691,142.9729023000691,142.9729023000691,142.9729023000691,142.9729023000691,142.9729023000691,142.9729023000691,142.9729023000691,142.9729023000691,142.9729023000691,142.9729023000691,142.9729023000691,142.9729023000691,142.9729023000691,142.9729023000691,142.9729023000691,145.48175820009783,145.48175820009783,145.48175820009783,145.48175820009783,145.48175820009783,67,36,63,30,67,34,6.0,0.9797439000103623,146.47911610011943,148.22491070022807,,,,,,,,,,103,f,19,2022-11-25_11h03.07.482,RL,2022.2.4,60.400625308598386,
1,14,0,14,0,,,,,,,,,,None,148.22491070022807,148.22491070022807,148.22491070022807,148.22491070022807,148.22491070022807,148.22491070022807,i,0.3750356000382453,148.6281092001591,148.6281092001591,148.6281092001591,148.6281092001591,148.6281092001591,148.6281092001591,148.92326050018892,148.92326050018892,150.50198870012537,150.50198870012537,150.50198870012537,150.50198870012537,150.50198870012537,150.50198870012537,150.50198870012537,150.50198870012537,150.50198870012537,150.50198870012537,150.50198870012537,150.50198870012537,150.50198870012537,150.50198870012537,150.50198870012537,150.50198870012537,150.50198870012537,153.01133290003054,153.01133290003054,153.01133290003054,153.01133290003054,153.01133290003054,59,37,55,22,55,36,5.0,0.9290666999295354,153.95845110015944,155.93709560018033,,,,,,,,,,103,f,19,2022-11-25_11h03.07.482,RL,2022.2.4,60.400625308598386,
1,15,0,15,0,,,,,,,,,,None,155.93709560018033,155.93709560018033,155.93709560018033,155.93709560018033,155.93709560018033,155.93709560018033,j,0.37686230009421706,156.33726960001513,156.33726960001513,156.33726960001513,156.33726960001513,156.33726960001513,156.33726960001513,156.6358554000035,156.6358554000035,157.58278060005978,157.58278060005978,157.58278060005978,157.58278060005978,157.58278060005978,157.58278060005978,157.58278060005978,157.58278060005978,157.58278060005978,157.58278060005978,157.58278060005978,157.58278060005978,157.58278060005978,157.58278060005978,157.58278060005978,157.58278060005978,157.58278060005978,160.09188240021467,160.09188240021467,160.09188240021467,160.09188240021467,160.09188240021467,67,29,58,30,30,47,3.0,1.0112191999796778,161.12232140009291,163.10256620007567,,,,,,,,,,103,f,19,2022-11-25_11h03.07.482,RL,2022.2.4,60.400625308598386,
1,16,0,16,0,,,,,,,,,,None,163.10256620007567,163.10256620007567,163.10256620007567,163.10256620007567,163.10256620007567,163.10256620007567,r,0.24571529985405505,163.37032030010596,163.37032030010596,163.37032030010596,163.37032030010596,163.37032030010596,163.37032030010596,163.66646520001814,163.66646520001814,164.63016750011593,164.63016750011593,164.63016750011593,164.63016750011593,164.63016750011593,164.63016750011593,164.63016750011593,164.63016750011593,164.63016750011593,164.63016750011593,164.63016750011593,164.63016750011593,164.63016750011593,164.63016750011593,164.63016750011593,164.63016750011593,164.63016750011593,167.13921080017462,167.13921080017462,167.13921080017462,167.13921080017462,167.13921080017462,72,31,61,22,72,40,5.0,1.079511099960655,168.23626580019481,170.0984966000542,,,,,,,,,,103,f,19,2022-11-25_11h03.07.482,RL,2022.2.4,60.400625308598386,
1,17,0,17,0,,,,,,,,,,None,170.0984966000542,170.0984966000542,170.0984966000542,170.0984966000542,170.0984966000542,170.0984966000542,f,0.41440000012516975,170.5312244000379,170.5312244000379,170.5312244000379,170.5312244000379,170.5312244000379,170.5312244000379,170.82987230014987,170.82987230014987,172.0930797001347,172.0930797001347,172.0930797001347,172.0930797001347,172.0930797001347,172.0930797001347,172.0930797001347,172.0930797001347,172.0930797001347,172.0930797001347,172.0930797001347,172.0930797001347,172.0930797001347,172.0930797001347,172.0930797001347,172.0930797001347,172.0930797001347,174.60225530015305,174.60225530015305,174.60225530015305,174.60225530015305,174.60225530015305,62,40,60,34,40,37,4.0,0.9133584001101553,175.53348990017548,177.21256450004876,,,,,,,,,,103,f,19,2022-11-25_11h03.07.482,RL,2022.2.4,60.400625308598386,
1,18,0,18,0,,,,,,,,,,None,177.21256450004876,177.21256450004876,177.21256450004876,177.21256450004876,177.21256450004876,177.21256450004876,i,0.328664000146091,177.5620253002271,177.5620253002271,177.5620253002271,177.5620253002271,177.5620253002271,177.5620253002271,177.86082100006752,177.86082100006752,179.6724595001433,179.6724595001433,179.6724595001433,179.6724595001433,179.6724595001433,179.6724595001433,179.6724595001433,179.6724595001433,179.6724595001433,179.6724595001433,179.6724595001433,179.6724595001433,179.6724595001433,179.6724595001433,179.6724595001433,179.6724595001433,179.6724595001433,182.1815863000229,182.1815863000229,182.1815863000229,182.1815863000229,182.1815863000229,62,45,51,30,51,50,4.0,1.960460599977523,184.15980250015855,186.0217328001745,,,,,,,,,,103,f,19,2022-11-25_11h03.07.482,RL,2022.2.4,60.400625308598386,
1,19,0,19,0,,,,,,,,,,None,186.0217328001745,186.0217328001745,186.0217328001745,186.0217328001745,186.0217328001745,186.0217328001745,r,0.4378142000641674,186.48759840009734,186.48759840009734,186.48759840009734,186.48759840009734,186.48759840009734,186.48759840009734,186.786653800169,186.786653800169,187.83357270015404,187.83357270015404,187.83357270015404,187.83357270015404,187.83357270015404,187.83357270015404,187.83357270015404,187.83357270015404,187.83357270015404,187.83357270015404,187.83357270015404,187.83357270015404,187.83357270015404,187.83357270015404,187.83357270015404,187.83357270015404,187.83357270015404,190.34267860022373,190.34267860022373,190.34267860022373,190.34267860022373,190.34267860022373,65,33,42,27,65,16,6.0,1.0633235999848694,191.4229637000244,193.01921340008266,,,,,,,,,,103,f,19,2022-11-25_11h03.07.482,RL,2022.2.4,60.400625308598386,
1,20,0,20,0,,,,,,,,,,None,193.01921340008266,193.01921340008266,193.01921340008266,193.01921340008266,193.01921340008266,193.01921340008266,i,0.2895810999907553,193.3378141000867,193.3378141000867,193.3378141000867,193.3378141000867,193.3378141000867,193.3378141000867,193.6344484000001,193.6344484000001,195.11353960004635,195.11353960004635,195.11353960004635,195.11353960004635,195.11353960004635,195.11353960004635,195.11353960004635,195.11353960004635,195.11353960004635,195.11353960004635,195.11353960004635,195.11353960004635,195.11353960004635,195.11353960004635,195.11353960004635,195.11353960004635,195.11353960004635,197.62267840001732,197.62267840001732,197.62267840001732,197.62267840001732,197.62267840001732,55,43,45,24,45,45,4.0,0.980659699998796,198.62014230014756,200.3661102000624,,,,,,,,,,103,f,19,2022-11-25_11h03.07.482,RL,2022.2.4,60.400625308598386,
1,21,0,21,0,,,,,,,,,,None,200.3661102000624,200.3661102000624,200.3661102000624,200.3661102000624,200.3661102000624,200.3661102000624,j,0.31625359994359314,200.71759160002694,200.71759160002694,200.71759160002694,200.71759160002694,200.71759160002694,200.71759160002694,201.01452930015512,201.01452930015512,201.94539000000805,201.94539000000805,201.94539000000805,201.94539000000805,201.94539000000805,201.94539000000805,201.94539000000805,201.94539000000805,201.94539000000805,201.94539000000805,201.94539000000805,201.94539000000805,201.94539000000805,201.94539000000805,201.94539000000805,201.94539000000805,201.94539000000805,204.45407410012558,204.45407410012558,204.45407410012558,204.45407410012558,204.45407410012558,56,43,33,30,30,27,4.0,0.7319459000136703,205.2022909000516,207.14721280010417,,,,,,,,,,103,f,19,2022-11-25_11h03.07.482,RL,2022.2.4,60.400625308598386,
1,22,0,22,0,,,,,,,,,,None,207.14721280010417,207.14721280010417,207.14721280010417,207.14721280010417,207.14721280010417,207.14721280010417,r,0.2696134999860078,207.4470139001496,207.4470139001496,207.4470139001496,207.4470139001496,207.4470139001496,207.4470139001496,207.746645900188,207.746645900188,208.94271610002033,208.94271610002033,208.94271610002033,208.94271610002033,208.94271610002033,208.94271610002033,208.94271610002033,208.94271610002033,208.94271610002033,208.94271610002033,208.94271610002033,208.94271610002033,208.94271610002033,208.94271610002033,208.94271610002033,208.94271610002033,208.94271610002033,211.45175420003943,211.45175420003943,211.45175420003943,211.45175420003943,211.45175420003943,57,46,42,23,57,29,5.0,0.7471429998986423,212.2162784000393,213.92922590021044,,,,,,,,,,103,f,19,2022-11-25_11h03.07.482,RL,2022.2.4,60.400625308598386,
1,23,0,23,0,,,,,,,,,,None,213.92922590021044,213.92922590021044,213.92922590021044,213.92922590021044,213.92922590021044,213.92922590021044,f,0.3470960999839008,214.29526040004566,214.29526040004566,214.29526040004566,214.29526040004566,214.29526040004566,214.29526040004566,214.59381690016016,214.59381690016016,216.0399777002167,216.0399777002167,216.0399777002167,216.0399777002167,216.0399777002167,216.0399777002167,216.0399777002167,216.0399777002167,216.0399777002167,216.0399777002167,216.0399777002167,216.0399777002167,216.0399777002167,216.0399777002167,216.0399777002167,216.0399777002167,216.0399777002167,218.54909920017235,218.54909920017235,218.54909920017235,218.54909920017235,218.54909920017235,49,47,24,27,47,40,5.0,1.1795892999507487,219.74578210012987,221.5747202001512,,,,,,,,,,103,f,19,2022-11-25_11h03.07.482,RL,2022.2.4,60.400625308598386,
1,24,0,24,0,,,,,,,,,,None,221.5747202001512,221.5747202001512,221.5747202001512,221.5747202001512,221.5747202001512,221.5747202001512,i,0.3551904000341892,221.96859540021978,221.96859540021978,221.96859540021978,221.96859540021978,221.96859540021978,221.96859540021978,222.2568100001663,222.2568100001663,223.46967150014825,223.46967150014825,223.486292200163,223.486292200163,223.486292200163,223.486292200163,223.486292200163,223.486292200163,223.486292200163,223.486292200163,223.486292200163,223.486292200163,223.486292200163,223.486292200163,223.486292200163,223.486292200163,223.486292200163,225.9956403002143,225.9956403002143,225.9956403002143,225.9956403002143,225.9956403002143,58,45,39,18,39,37,4.0,0.8304784998763353,226.8429273001384,228.37305040005594,,,,,,,,,,103,f,19,2022-11-25_11h03.07.482,RL,2022.2.4,60.400625308598386,
1,25,0,25,0,,,,,,,,,,None,228.37305040005594,228.37305040005594,228.37305040005594,228.37305040005594,228.37305040005594,228.37305040005594,f,0.286409700056538,228.68937490019016,228.68937490019016,228.68937490019016,228.68937490019016,228.68937490019016,228.68937490019016,228.98832100001164,228.98832100001164,229.85224390006624,229.85224390006624,229.85224390006624,229.85224390006624,229.85224390006624,229.85224390006624,229.85224390006624,229.85224390006624,229.85224390006624,229.85224390006624,229.85224390006624,229.85224390006624,229.85224390006624,229.85224390006624,229.85224390006624,229.85224390006624,229.85224390006624,232.36127140000463,232.36127140000463,232.36127140000463,232.36127140000463,232.36127140000463,53,45,38,30,45,56,3.0,0.8799904999323189,233.2588397001382,235.25426520011388,,,,,,,,,,103,f,19,2022-11-25_11h03.07.482,RL,2022.2.4,60.400625308598386,
1,26,0,26,0,,,,,,,,,,None,235.25426520011388,235.25426520011388,235.25426520011388,235.25426520011388,235.25426520011388,235.25426520011388,r,0.26985589996911585,235.55371850007214,235.55371850007214,235.55371850007214,235.55371850007214,235.55371850007214,235.55371850007214,235.8527850001119,235.8527850001119,236.98328150017187,236.98328150017187,236.98328150017187,236.98328150017187,236.98328150017187,236.98328150017187,236.98328150017187,236.98328150017187,236.98328150017187,236.98328150017187,236.98328150017187,236.98328150017187,236.98328150017187,236.98328150017187,236.98328150017187,236.98328150017187,236.98328150017187,239.49193550017662,239.49193550017662,239.49193550017662,239.49193550017662,239.49193550017662,52,51,35,14,52,63,3.0,0.9970029001124203,240.50559570011683,242.50077770021744,,,,,,,,,,103,f,19,2022-11-25_11h03.07.482,RL,2022.2.4,60.400625308598386,
1,27,0,27,0,,,,,,,,,,None,242.50077770021744,242.50077770021744,242.50077770021744,242.50077770021744,242.50077770021744,242.50077770021744,i,0.411971400026232,242.93346870015375,242.93346870015375,242.93346870015375,242.93346870015375,242.93346870015375,242.93346870015375,243.23236410017125,243.23236410017125,244.77797160018235,244.77797160018235,244.77797160018235,244.77797160018235,244.77797160018235,244.77797160018235,244.77797160018235,244.77797160018235,244.77797160018235,244.77797160018235,244.77797160018235,244.77797160018235,244.77797160018235,244.77797160018235,244.77797160018235,244.77797160018235,244.77797160018235,247.28714610007592,247.28714610007592,247.28714610007592,247.28714610007592,247.28714610007592,45,47,36,7,36,61,2.0,1.1130971000529826,248.4174612001516,250.36364420014434,,,,,,,,,,103,f,19,2022-11-25_11h03.07.482,RL,2022.2.4,60.400625308598386,
1,28,0,28,0,,,,,,,,,,None,250.36364420014434,250.36364420014434,250.36364420014434,250.36364420014434,250.36364420014434,250.36364420014434,j,0.26811360009014606,250.66286700009368,250.66286700009368,250.66286700009368,250.66286700009368,250.66286700009368,250.66286700009368,250.96142230019905,250.96142230019905,252.02571870014071,252.02571870014071,252.02571870014071,252.02571870014071,252.02571870014071,252.02571870014071,252.02571870014071,252.02571870014071,252.02571870014071,252.02571870014071,252.02571870014071,252.02571870014071,252.02571870014071,252.02571870014071,252.02571870014071,252.02571870014071,252.02571870014071,254.53440670017153,254.53440670017153,254.53440670017153,254.53440670017153,254.53440670017153,53,45,34,10,10,57,1.0,0.9802665999159217,255.53116860007867,257.4102463000454,,,,,,,,,,103,f,19,2022-11-25_11h03.07.482,RL,2022.2.4,60.400625308598386,
1,29,0,29,0,,,,,,,,,,None,257.4102463000454,257.4102463000454,257.4102463000454,257.4102463000454,257.4102463000454,257.4102463000454,r,0.316262099891901,257.7597939001862,257.7597939001862,257.7597939001862,257.7597939001862,257.7597939001862,257.7597939001862,258.0585760001559,258.0585760001559,258.88982860022224,258.88982860022224,258.88982860022224,258.88982860022224,258.88982860022224,258.88982860022224,258.88982860022224,258.88982860022224,258.88982860022224,258.88982860022224,258.88982860022224,258.88982860022224,258.88982860022224,258.88982860022224,258.88982860022224,258.88982860022224,258.88982860022224,261.39879370015115,261.39879370015115,261.39879370015115,261.39879370015115,261.39879370015115,63,44,42,19,63,38,4.0,0.6962349000386894,262.11352000012994,263.7596942000091,,,,,,,,,,103,f,19,2022-11-25_11h03.07.482,RL,2022.2.4,60.400625308598386,
1,30,0,30,0,,,,,,,,,,None,263.7596942000091,263.7596942000091,263.7596942000091,263.7596942000091,263.7596942000091,263.7596942000091,f,0.27603810001164675,264.06159590021707,264.06159590021707,264.06159590021707,264.06159590021707,264.06159590021707,264.06159590021707,264.35828100005165,264.35828100005165,266.00344040011987,266.00344040011987,266.02022330020554,266.02022330020554,266.02022330020554,266.02022330020554,266.02022330020554,266.02022330020554,266.02022330020554,266.02022330020554,266.02022330020554,266.02022330020554,266.02022330020554,266.02022330020554,266.02022330020554,266.02022330020554,266.02022330020554,268.52934880019166,268.52934880019166,268.52934880019166,268.52934880019166,268.52934880019166,53,41,36,19,41,55,3.0,0.9302157999482006,269.47643020004034,271.0234497000929,,,,,,,,,,103,f,19,2022-11-25_11h03.07.482,RL,2022.2.4,60.400625308598386,
1,31,0,31,0,,,,,,,,,,None,271.0234497000929,271.0234497000929,271.0234497000929,271.0234497000929,271.0234497000929,271.0234497000929,j,0.24200500012375414,271.29759080009535,271.29759080009535,271.29759080009535,271.29759080009535,271.29759080009535,271.29759080009535,271.5885260000359,271.5885260000359,272.6024068000261,272.6024068000261,272.61927950009704,272.61927950009704,272.61927950009704,272.61927950009704,272.61927950009704,272.61927950009704,272.61927950009704,272.61927950009704,272.61927950009704,272.61927950009704,272.61927950009704,272.61927950009704,272.61927950009704,272.61927950009704,272.61927950009704,275.12810520012863,275.12810520012863,275.12810520012863,275.12810520012863,275.12810520012863,44,37,32,12,12,67,2.0,1.0235227001830935,276.15848530014046,277.87105670012534,,,,,,,,,,103,f,19,2022-11-25_11h03.07.482,RL,2022.2.4,60.400625308598386,
1,32,0,32,0,,,,,,,,,,None,277.87105670012534,277.87105670012534,277.87105670012534,277.87105670012534,277.87105670012534,277.87105670012534,r,0.44388230005279183,278.33708740002476,278.33708740002476,278.33708740002476,278.33708740002476,278.33708740002476,278.33708740002476,278.636144899996,278.636144899996,280.54722960013896,280.54722960013896,280.54722960013896,280.54722960013896,280.54722960013896,280.54722960013896,280.54722960013896,280.54722960013896,280.54722960013896,280.54722960013896,280.54722960013896,280.54722960013896,280.54722960013896,280.54722960013896,280.54722960013896,280.54722960013896,280.54722960013896,283.0564293002244,283.0564293002244,283.0564293002244,283.0564293002244,283.0564293002244,42,40,36,13,42,59,3.0,1.0136927999556065,284.08694620011374,285.7828441001475,,,,,,,,,,103,f,19,2022-11-25_11h03.07.482,RL,2022.2.4,60.400625308598386,
1,33,0,33,0,,,,,,,,,,None,285.7828441001475,285.7828441001475,285.7828441001475,285.7828441001475,285.7828441001475,285.7828441001475,f,0.28581070015206933,286.1012795001734,286.1012795001734,286.1012795001734,286.1012795001734,286.1012795001734,286.1012795001734,286.39808480022475,286.39808480022475,288.3425412001088,288.3425412001088,288.3425412001088,288.3425412001088,288.3425412001088,288.3425412001088,288.3425412001088,288.3425412001088,288.3425412001088,288.3425412001088,288.3425412001088,288.3425412001088,288.3425412001088,288.3425412001088,288.3425412001088,288.3425412001088,288.3425412001088,290.8517253000755,290.8517253000755,290.8517253000755,290.8517253000755,290.8517253000755,41,44,46,12,44,51,3.0,1.8613020000047982,292.72999930009246,294.6920686000958,,,,,,,,,,103,f,19,2022-11-25_11h03.07.482,RL,2022.2.4,60.400625308598386,
1,34,0,34,0,,,,,,,,,,None,294.6920686000958,294.6920686000958,294.6920686000958,294.6920686000958,294.6920686000958,294.6920686000958,i,0.2291737999767065,294.94323950004764,294.94323950004764,294.94323950004764,294.94323950004764,294.94323950004764,294.94323950004764,295.2406049000565,295.2406049000565,297.0024034001399,297.0024034001399,297.0024034001399,297.0024034001399,297.0024034001399,297.0024034001399,297.0024034001399,297.0024034001399,297.0024034001399,297.0024034001399,297.0024034001399,297.0024034001399,297.0024034001399,297.0024034001399,297.0024034001399,297.0024034001399,297.0024034001399,299.51152070006356,299.51152070006356,299.51152070006356,299.51152070006356,299.51152070006356,40,37,45,15,45,58,3.0,0.7137653001118451,300.2431632000953,302.0720273000188,,,,,,,,,,103,f,19,2022-11-25_11h03.07.482,RL,2022.2.4,60.400625308598386,
1,35,0,35,0,,,,,,,,,,None,302.0720273000188,302.0720273000188,302.0720273000188,302.0720273000188,302.0720273000188,302.0720273000188,j,0.2630340000614524,302.35514500015415,302.35514500015415,302.35514500015415,302.35514500015415,302.35514500015415,302.35514500015415,302.6535589999985,302.6535589999985,304.21747000003234,304.21747000003234,304.21747000003234,304.21747000003234,304.21747000003234,304.21747000003234,304.21747000003234,304.21747000003234,304.21747000003234,304.21747000003234,304.21747000003234,304.21747000003234,304.21747000003234,304.21747000003234,304.21747000003234,304.21747000003234,304.21747000003234,306.72552600014023,306.72552600014023,306.72552600014023,306.72552600014023,306.72552600014023,48,45,36,16,16,53,2.0,0.714953700080514,307.47108440008014,309.01995420013554,,,,,,,,,,103,f,19,2022-11-25_11h03.07.482,RL,2022.2.4,60.400625308598386,
1,36,0,36,0,,,,,,,,,,None,309.01995420013554,309.01995420013554,309.01995420013554,309.01995420013554,309.01995420013554,309.01995420013554,r,0.28502679988741875,309.33580830018036,309.33580830018036,309.33580830018036,309.33580830018036,309.33580830018036,309.33580830018036,309.6351184002124,309.6351184002124,311.612571900012,311.612571900012,311.612571900012,311.612571900012,311.612571900012,311.612571900012,311.612571900012,311.612571900012,311.612571900012,311.612571900012,311.612571900012,311.612571900012,311.612571900012,311.612571900012,311.612571900012,311.612571900012,311.612571900012,314.1214130001608,314.1214130001608,314.1214130001608,314.1214130001608,314.1214130001608,41,52,36,13,41,45,3.0,0.7135809001047164,314.8528021001257,316.5821458999999,,,,,,,,,,103,f,19,2022-11-25_11h03.07.482,RL,2022.2.4,60.400625308598386,
1,37,0,37,0,,,,,,,,,,None,316.5821458999999,316.5821458999999,316.5821458999999,316.5821458999999,316.5821458999999,316.5821458999999,f,0.43090969999320805,317.03178680012934,317.03178680012934,317.03178680012934,317.03178680012934,317.03178680012934,317.03178680012934,317.33036730019376,317.33036730019376,318.9097592001781,318.9097592001781,318.9097592001781,318.9097592001781,318.9097592001781,318.9097592001781,318.9097592001781,318.9097592001781,318.9097592001781,318.9097592001781,318.9097592001781,318.9097592001781,318.9097592001781,318.9097592001781,318.9097592001781,318.9097592001781,318.9097592001781,321.4184968001209,321.4184968001209,321.4184968001209,321.4184968001209,321.4184968001209,44,50,34,17,50,55,3.0,0.978107700124383,322.4154346000869,324.2942303000018,,,,,,,,,,103,f,19,2022-11-25_11h03.07.482,RL,2022.2.4,60.400625308598386,
1,38,0,38,0,,,,,,,,,,None,324.2942303000018,324.2942303000018,324.2942303000018,324.2942303000018,324.2942303000018,324.2942303000018,j,0.24818830005824566,324.5646226000972,324.5646226000972,324.5646226000972,324.5646226000972,324.5646226000972,324.5646226000972,324.85929440008476,324.85929440008476,325.7569733001292,325.7569733001292,325.7569733001292,325.7569733001292,325.7569733001292,325.7569733001292,325.7569733001292,325.7569733001292,325.7569733001292,325.7569733001292,325.7569733001292,325.7569733001292,325.7569733001292,325.7569733001292,325.7569733001292,325.7569733001292,325.7569733001292,328.26629560021684,328.26629560021684,328.26629560021684,328.26629560021684,328.26629560021684,26,54,45,8,8,65,1.0,0.9631062999833375,329.24720930005424,330.9433460000437,,,,,,,,,,103,f,19,2022-11-25_11h03.07.482,RL,2022.2.4,60.400625308598386,
1,39,0,39,0,,,,,,,,,,None,330.9433460000437,330.9433460000437,330.9433460000437,330.9433460000437,330.9433460000437,330.9433460000437,f,0.29857310000807047,331.2760183000937,331.2760183000937,331.2760183000937,331.2760183000937,331.2760183000937,331.2760183000937,331.57479330012575,331.57479330012575,332.5387787001673,332.5387787001673,332.5387787001673,332.5387787001673,332.5387787001673,332.5387787001673,332.5387787001673,332.5387787001673,332.5387787001673,332.5387787001673,332.5387787001673,332.5387787001673,332.5387787001673,332.5387787001673,332.5387787001673,332.5387787001673,332.5387787001673,335.0480090000201,335.0480090000201,335.0480090000201,335.0480090000201,335.0480090000201,39,55,45,15,55,43,3.0,2.2097100000828505,337.27531420020387,339.03770070010796,,,,,,,,,,103,f,19,2022-11-25_11h03.07.482,RL,2022.2.4,60.400625308598386,
1,40,0,40,0,,,,,,,,,,None,339.03770070010796,339.03770070010796,339.03770070010796,339.03770070010796,339.03770070010796,339.03770070010796,j,0.6131110999267548,339.6698158001527,339.6698158001527,339.6698158001527,339.6698158001527,339.6698158001527,339.6698158001527,339.96900400007144,339.96900400007144,341.5142174002249,341.5142174002249,341.5142174002249,341.5142174002249,341.5142174002249,341.5142174002249,341.5142174002249,341.5142174002249,341.5142174002249,341.5142174002249,341.5142174002249,341.5142174002249,341.5142174002249,341.5142174002249,341.5142174002249,341.5142174002249,341.5142174002249,344.0235680001788,344.0235680001788,344.0235680001788,344.0235680001788,344.0235680001788,42,51,41,14,14,53,2.0,2.027126800036058,346.06780820013955,347.97971470002085,,,,,,,,,,103,f,19,2022-11-25_11h03.07.482,RL,2022.2.4,60.400625308598386,
1,41,0,41,0,,,,,,,,,,None,347.97971470002085,347.97971470002085,347.97971470002085,347.97971470002085,347.97971470002085,347.97971470002085,f,0.24869529996067286,348.2487235001754,348.2487235001754,348.2487235001754,348.2487235001754,348.2487235001754,348.2487235001754,348.54524520016275,348.54524520016275,350.52371070021763,350.52371070021763,350.53964970004745,350.53964970004745,350.53964970004745,350.53964970004745,350.53964970004745,350.53964970004745,350.53964970004745,350.53964970004745,350.53964970004745,350.53964970004745,350.53964970004745,350.53964970004745,350.53964970004745,350.53964970004745,350.53964970004745,353.0494225001894,353.0494225001894,353.0494225001894,353.0494225001894,353.0494225001894,45,60,46,13,60,58,3.0,1.510360499843955,354.5777698000893,356.1910609002225,,,,,,,,,,103,f,19,2022-11-25_11h03.07.482,RL,2022.2.4,60.400625308598386,
1,42,0,42,0,,,,,,,,,,None,356.1910609002225,356.1910609002225,356.1910609002225,356.1910609002225,356.1910609002225,356.1910609002225,f,0.6956012998707592,356.9088940001093,356.9088940001093,356.9088940001093,356.9088940001093,356.9088940001093,356.9088940001093,357.2049120001029,357.2049120001029,358.70107030007057,358.70107030007057,358.70107030007057,358.70107030007057,358.70107030007057,358.70107030007057,358.70107030007057,358.70107030007057,358.70107030007057,358.70107030007057,358.70107030007057,358.70107030007057,358.70107030007057,358.70107030007057,358.70107030007057,358.70107030007057,358.70107030007057,361.2098250000272,361.2098250000272,361.2098250000272,361.2098250000272,361.2098250000272,44,59,42,13,59,49,4.0,1.395798500161618,362.6229842000175,364.3188901001122,,,,,,,,,,103,f,19,2022-11-25_11h03.07.482,RL,2022.2.4,60.400625308598386,
1,43,0,43,0,,,,,,,,,,None,364.3188901001122,364.3188901001122,364.3188901001122,364.3188901001122,364.3188901001122,364.3188901001122,f,0.3869634000584483,364.73444680008106,364.73444680008106,364.73444680008106,364.73444680008106,364.73444680008106,364.73444680008106,365.03367210016586,365.03367210016586,366.29657690017484,366.29657690017484,366.29657690017484,366.29657690017484,366.29657690017484,366.29657690017484,366.29657690017484,366.29657690017484,366.29657690017484,366.29657690017484,366.29657690017484,366.29657690017484,366.29657690017484,366.29657690017484,366.29657690017484,366.29657690017484,366.29657690017484,368.8058984000236,368.8058984000236,368.8058984000236,368.8058984000236,368.8058984000236,32,59,50,10,59,47,4.0,0.8972802001517266,369.72006320022047,371.6817842000164,,,,,,,,,,103,f,19,2022-11-25_11h03.07.482,RL,2022.2.4,60.400625308598386,
1,44,0,44,0,,,,,,,,,,None,371.6817842000164,371.6817842000164,371.6817842000164,371.6817842000164,371.6817842000164,371.6817842000164,f,0.3725717000197619,372.0843798001297,372.0843798001297,372.0843798001297,372.0843798001297,372.0843798001297,372.0843798001297,372.38025899999775,372.38025899999775,373.7262575000059,373.7262575000059,373.7262575000059,373.7262575000059,373.7262575000059,373.7262575000059,373.7262575000059,373.7262575000059,373.7262575000059,373.7262575000059,373.7262575000059,373.7262575000059,373.7262575000059,373.7262575000059,373.7262575000059,373.7262575000059,373.7262575000059,376.2352030000184,376.2352030000184,376.2352030000184,376.2352030000184,376.2352030000184,42,44,49,5,44,47,3.0,1.8425891001243144,378.0968861000147,380.0588683001697,,,,,,,,,,103,f,19,2022-11-25_11h03.07.482,RL,2022.2.4,60.400625308598386,
1,45,0,45,0,,,,,,,,,,None,380.0588683001697,380.0588683001697,380.0588683001697,380.0588683001697,380.0588683001697,380.0588683001697,j,0.574086399981752,380.6577188000083,380.6577188000083,380.6577188000083,380.6577188000083,380.6577188000083,380.6577188000083,380.9568920000456,380.9568920000456,381.85434220009483,381.85434220009483,381.85434220009483,381.85434220009483,381.85434220009483,381.85434220009483,381.85434220009483,381.85434220009483,381.85434220009483,381.85434220009483,381.85434220009483,381.85434220009483,381.85434220009483,381.85434220009483,381.85434220009483,381.85434220009483,381.85434220009483,384.3631907000672,384.3631907000672,384.3631907000672,384.3631907000672,384.3631907000672,43,54,37,9,9,48,1.0,0.8138530999422073,385.19427700014785,387.0731445001438,,,,,,,,,,103,f,19,2022-11-25_11h03.07.482,RL,2022.2.4,60.400625308598386,
1,46,0,46,0,,,,,,,,,,None,387.0731445001438,387.0731445001438,387.0731445001438,387.0731445001438,387.0731445001438,387.0731445001438,f,0.294917699880898,387.3909063001629,387.3909063001629,387.3909063001629,387.3909063001629,387.3909063001629,387.3909063001629,387.6882868001703,387.6882868001703,388.9849771000445,388.9849771000445,388.9849771000445,388.9849771000445,388.9849771000445,388.9849771000445,388.9849771000445,388.9849771000445,388.9849771000445,388.9849771000445,388.9849771000445,388.9849771000445,388.9849771000445,388.9849771000445,388.9849771000445,388.9849771000445,388.9849771000445,391.4938781000674,391.4938781000674,391.4938781000674,391.4938781000674,391.4938781000674,42,55,41,16,55,37,4.0,1.7269913000054657,393.2389178001322,395.134507200215,,,,,,,,,,103,f,19,2022-11-25_11h03.07.482,RL,2022.2.4,60.400625308598386,
1,47,0,47,0,,,,,,,,,,None,395.134507200215,395.134507200215,395.134507200215,395.134507200215,395.134507200215,395.134507200215,i,0.27674280013889074,395.4362119000871,395.4362119000871,395.4362119000871,395.4362119000871,395.4362119000871,395.4362119000871,395.7331929001957,395.7331929001957,396.6139590002131,396.6139590002131,396.6139590002131,396.6139590002131,396.6139590002131,396.6139590002131,396.6139590002131,396.6139590002131,396.6139590002131,396.6139590002131,396.6139590002131,396.6139590002131,396.6139590002131,396.6139590002131,396.6139590002131,396.6139590002131,396.6139590002131,399.12308460008353,399.12308460008353,399.12308460008353,399.12308460008353,399.12308460008353,30,62,42,8,42,34,5.0,1.7937790001742542,400.934831000166,402.64735360001214,,,,,,,,,,103,f,19,2022-11-25_11h03.07.482,RL,2022.2.4,60.400625308598386,
1,48,0,48,0,,,,,,,,,,None,402.64735360001214,402.64735360001214,402.64735360001214,402.64735360001214,402.64735360001214,402.64735360001214,f,0.5730622000992298,403.24664940009825,403.24664940009825,403.24664940009825,403.24664940009825,403.24664940009825,403.24664940009825,403.5453615000006,403.5453615000006,405.4234859000426,405.4234859000426,405.4234859000426,405.4234859000426,405.4234859000426,405.4234859000426,405.4234859000426,405.4234859000426,405.4234859000426,405.4234859000426,405.4234859000426,405.4234859000426,405.4234859000426,405.4234859000426,405.4234859000426,405.4234859000426,405.4234859000426,407.9324258000124,407.9324258000124,407.9324258000124,407.9324258000124,407.9324258000124,34,64,54,1,64,48,5.0,0.8808274001348764,408.83022860018536,410.64213480008766,,,,,,,,,,103,f,19,2022-11-25_11h03.07.482,RL,2022.2.4,60.400625308598386,
1,49,0,49,0,,,,,,,,,,None,410.64213480008766,410.64213480008766,410.64213480008766,410.64213480008766,410.64213480008766,410.64213480008766,i,0.267354300012812,410.94211980002,410.94211980002,410.94211980002,410.94211980002,410.94211980002,410.94211980002,411.2412882000208,411.2412882000208,412.3044118999969,412.3044118999969,412.3044118999969,412.3044118999969,412.3044118999969,412.3044118999969,412.3044118999969,412.3044118999969,412.3044118999969,412.3044118999969,412.3044118999969,412.3044118999969,412.3044118999969,412.3044118999969,412.3044118999969,412.3044118999969,412.3044118999969,414.81357030011714,414.81357030011714,414.81357030011714,414.81357030011714,414.81357030011714,33,58,45,11,45,25,5.0,0.7470192001201212,415.5786060001701,417.457039100118,,,,,,,,,,103,f,19,2022-11-25_11h03.07.482,RL,2022.2.4,60.400625308598386,
1,50,0,50,0,,,,,,,,,,None,417.457039100118,417.457039100118,417.457039100118,417.457039100118,417.457039100118,417.457039100118,f,0.40148850018158555,417.89763840008527,417.89763840008527,417.89763840008527,417.89763840008527,417.89763840008527,417.89763840008527,418.1887890000362,418.1887890000362,419.0863101000432,419.0863101000432,419.0863101000432,419.0863101000432,419.0863101000432,419.0863101000432,419.0863101000432,419.0863101000432,419.0863101000432,419.0863101000432,419.0863101000432,419.0863101000432,419.0863101000432,419.0863101000432,419.0863101000432,419.0863101000432,419.0863101000432,421.5951326000504,421.5951326000504,421.5951326000504,421.5951326000504,421.5951326000504,32,56,38,4,56,43,4.0,0.8286690001841635,422.4434116000775,424.0222952000331,,,,,,,,,,103,f,19,2022-11-25_11h03.07.482,RL,2022.2.4,60.400625308598386,
1,51,0,51,0,,,,,,,,,,None,424.0222952000331,424.0222952000331,424.0222952000331,424.0222952000331,424.0222952000331,424.0222952000331,i,0.3112675999291241,424.355636900058,424.355636900058,424.355636900058,424.355636900058,424.355636900058,424.355636900058,424.65420030010864,424.65420030010864,425.4688941000495,425.4688941000495,425.4688941000495,425.4688941000495,425.4688941000495,425.4688941000495,425.4688941000495,425.4688941000495,425.4688941000495,425.4688941000495,425.4688941000495,425.4688941000495,425.4688941000495,425.4688941000495,425.4688941000495,425.4688941000495,425.4688941000495,427.9775524002034,427.9775524002034,427.9775524002034,427.9775524002034,427.9775524002034,25,60,37,18,37,40,4.0,0.7785614000167698,428.7753591001965,430.72075810004026,,,,,,,,,,103,f,19,2022-11-25_11h03.07.482,RL,2022.2.4,60.400625308598386,
1,52,0,52,0,,,,,,,,,,None,430.72075810004026,430.72075810004026,430.72075810004026,430.72075810004026,430.72075810004026,430.72075810004026,r,0.31752040004357696,431.0701817001682,431.0701817001682,431.0701817001682,431.0701817001682,431.0701817001682,431.0701817001682,431.3525837000925,431.3525837000925,432.86492740013637,432.86492740013637,432.8819895000197,432.8819895000197,432.8819895000197,432.8819895000197,432.8819895000197,432.8819895000197,432.8819895000197,432.8819895000197,432.8819895000197,432.8819895000197,432.8819895000197,432.8819895000197,432.8819895000197,432.8819895000197,432.8819895000197,435.39075320004486,435.39075320004486,435.39075320004486,435.39075320004486,435.39075320004486,29,50,33,11,29,62,2.0,0.9972493001259863,436.4045259000268,438.13373480015434,,,,,,,,,,103,f,19,2022-11-25_11h03.07.482,RL,2022.2.4,60.400625308598386,
1,53,0,53,0,,,,,,,,,,None,438.13373480015434,438.13373480015434,438.13373480015434,438.13373480015434,438.13373480015434,438.13373480015434,f,0.2842726001981646,438.462694800226,438.462694800226,438.462694800226,438.462694800226,438.462694800226,438.462694800226,438.7491343000438,438.7491343000438,440.4447247001808,440.4447247001808,440.46122770011425,440.46122770011425,440.46122770011425,440.46122770011425,440.46122770011425,440.46122770011425,440.46122770011425,440.46122770011425,440.46122770011425,440.46122770011425,440.46122770011425,440.46122770011425,440.46122770011425,440.46122770011425,440.46122770011425,442.97026480012573,442.97026480012573,442.97026480012573,442.97026480012573,442.97026480012573,32,58,35,16,58,39,4.0,2.093711500056088,445.08079760009423,446.85993580007926,,,,,,,,,,103,f,19,2022-11-25_11h03.07.482,RL,2022.2.4,60.400625308598386,
1,54,0,54,0,,,,,,,,,,None,446.85993580007926,446.85993580007926,446.85993580007926,446.85993580007926,446.85993580007926,446.85993580007926,i,0.3753144000656903,447.2622453002259,447.2622453002259,447.2622453002259,447.2622453002259,447.2622453002259,447.2622453002259,447.55856160004623,447.55856160004623,449.02101130015217,449.02101130015217,449.02101130015217,449.02101130015217,449.02101130015217,449.02101130015217,449.02101130015217,449.02101130015217,449.02101130015217,449.02101130015217,449.02101130015217,449.02101130015217,449.02101130015217,449.02101130015217,449.02101130015217,449.02101130015217,449.02101130015217,451.5303585000802,451.5303585000802,451.5303585000802,451.5303585000802,451.5303585000802,35,58,40,5,40,35,4.0,1.1649962000083178,452.71035480010323,454.58931180019863,,,,,,,,,,103,f,19,2022-11-25_11h03.07.482,RL,2022.2.4,60.400625308598386,
1,55,0,55,0,,,,,,,,,,None,454.58931180019863,454.58931180019863,454.58931180019863,454.58931180019863,454.58931180019863,454.58931180019863,f,0.27984509989619255,454.89405820006505,454.89405820006505,454.89405820006505,454.89405820006505,454.89405820006505,454.89405820006505,455.1872977002058,455.1872977002058,456.51709710014984,456.51709710014984,456.51709710014984,456.51709710014984,456.51709710014984,456.51709710014984,456.51709710014984,456.51709710014984,456.51709710014984,456.51709710014984,456.51709710014984,456.51709710014984,456.51709710014984,456.51709710014984,456.51709710014984,456.51709710014984,456.51709710014984,459.0262859000359,459.0262859000359,459.0262859000359,459.0262859000359,459.0262859000359,32,66,36,5,66,56,4.0,1.3771852001082152,460.4223822001368,462.21792480000295,,,,,,,,,,103,f,19,2022-11-25_11h03.07.482,RL,2022.2.4,60.400625308598386,
1,56,0,56,0,,,,,,,,,,None,462.21792480000295,462.21792480000295,462.21792480000295,462.21792480000295,462.21792480000295,462.21792480000295,i,0.36057749995961785,462.60105040017515,462.60105040017515,462.60105040017515,462.60105040017515,462.60105040017515,462.60105040017515,462.9000983000733,462.9000983000733,464.5455160001293,464.5455160001293,464.5455160001293,464.5455160001293,464.5455160001293,464.5455160001293,464.5455160001293,464.5455160001293,464.5455160001293,464.5455160001293,464.5455160001293,464.5455160001293,464.5455160001293,464.5455160001293,464.5455160001293,464.5455160001293,464.5455160001293,467.05448770010844,467.05448770010844,467.05448770010844,467.05448770010844,467.05448770010844,26,64,37,12,37,23,5.0,0.6971519000362605,467.7693494001869,469.4650751000736,,,,,,,,,,103,f,19,2022-11-25_11h03.07.482,RL,2022.2.4,60.400625308598386,
1,57,0,57,0,,,,,,,,,,None,469.4650751000736,469.4650751000736,469.4650751000736,469.4650751000736,469.4650751000736,469.4650751000736,f,0.3076269000303,469.7980789002031,469.7980789002031,469.7980789002031,469.7980789002031,469.7980789002031,469.7980789002031,470.0980780001264,470.0980780001264,471.7920862000901,471.7920862000901,471.7920862000901,471.7920862000901,471.7920862000901,471.7920862000901,471.7920862000901,471.7920862000901,471.7920862000901,471.7920862000901,471.7920862000901,471.7920862000901,471.7920862000901,471.7920862000901,471.7920862000901,471.7920862000901,471.7920862000901,474.30121460021473,474.30121460021473,474.30121460021473,474.30121460021473,474.30121460021473,37,60,30,14,60,53,5.0,1.1467454000376165,475.46471790014766,477.11083510005847,,,,,,,,,,103,f,19,2022-11-25_11h03.07.482,RL,2022.2.4,60.400625308598386,
1,58,0,58,0,,,,,,,,,,None,477.11083510005847,477.11083510005847,477.11083510005847,477.11083510005847,477.11083510005847,477.11083510005847,i,0.2913236999884248,477.43019240000285,477.43019240000285,477.43019240000285,477.43019240000285,477.43019240000285,477.43019240000285,477.72647049999796,477.72647049999796,478.5571266000625,478.5571266000625,478.5736977001652,478.5736977001652,478.5736977001652,478.5736977001652,478.5736977001652,478.5736977001652,478.5736977001652,478.5736977001652,478.5736977001652,478.5736977001652,478.5736977001652,478.5736977001652,478.5736977001652,478.5736977001652,478.5736977001652,481.0830890000798,481.0830890000798,481.0830890000798,481.0830890000798,481.0830890000798,44,67,25,20,25,46,5.0,0.8453365999739617,481.9471001001075,483.49343270016834,,,,,,,,,,103,f,19,2022-11-25_11h03.07.482,RL,2022.2.4,60.400625308598386,
1,59,0,59,0,,,,,,,,,,None,483.49343270016834,483.49343270016834,483.49343270016834,483.49343270016834,483.49343270016834,483.49343270016834,r,0.3429773000534624,483.85996150015853,483.85996150015853,483.85996150015853,483.85996150015853,483.85996150015853,483.85996150015853,484.1585408002138,484.1585408002138,485.7552591001149,485.7552591001149,485.7552591001149,485.7552591001149,485.7552591001149,485.7552591001149,485.7552591001149,485.7552591001149,485.7552591001149,485.7552591001149,485.7552591001149,485.7552591001149,485.7552591001149,485.7552591001149,485.7552591001149,485.7552591001149,485.7552591001149,488.2634008000605,488.2634008000605,488.2634008000605,488.2634008000605,488.2634008000605,36,65,33,11,36,47,3.0,0.6803420002106577,488.96118090022355,490.84165270021185,,,,,,,,,,103,f,19,2022-11-25_11h03.07.482,RL,2022.2.4,60.400625308598386,
1,60,0,60,0,,,,,,,,,,None,490.84165270021185,490.84165270021185,490.84165270021185,490.84165270021185,490.84165270021185,490.84165270021185,j,0.2596769998781383,491.12351720011793,491.12351720011793,491.12351720011793,491.12351720011793,491.12351720011793,491.12351720011793,491.42189430003054,491.42189430003054,493.2172728001606,493.2172728001606,493.2172728001606,493.2172728001606,493.2172728001606,493.2172728001606,493.2172728001606,493.2172728001606,493.2172728001606,493.2172728001606,493.2172728001606,493.2172728001606,493.2172728001606,493.2172728001606,493.2172728001606,493.2172728001606,493.2172728001606,495.72621960006654,495.72621960006654,495.72621960006654,495.72621960006654,495.72621960006654,36,56,25,20,20,46,2.0,0.9976711000781506,496.74005910009146,498.73509010020643,,,,,,,,,,103,f,19,2022-11-25_11h03.07.482,RL,2022.2.4,60.400625308598386,
1,61,0,61,0,,,,,,,,,,None,498.73509010020643,498.73509010020643,498.73509010020643,498.73509010020643,498.73509010020643,498.73509010020643,f,0.28075730009004474,499.03975630016066,499.03975630016066,499.03975630016066,499.03975630016066,499.03975630016066,499.03975630016066,499.3336339001544,499.3336339001544,500.63026000000536,500.63026000000536,500.6468268001918,500.6468268001918,500.6468268001918,500.6468268001918,500.6468268001918,500.6468268001918,500.6468268001918,500.6468268001918,500.6468268001918,500.6468268001918,500.6468268001918,500.6468268001918,500.6468268001918,500.6468268001918,500.6468268001918,503.1559067000635,503.1559067000635,503.1559067000635,503.1559067000635,503.1559067000635,23,61,25,16,61,42,4.0,0.7473309000488371,503.920320100151,505.63301210012287,,,,,,,,,,103,f,19,2022-11-25_11h03.07.482,RL,2022.2.4,60.400625308598386,
1,62,0,62,0,,,,,,,,,,None,505.63301210012287,505.63301210012287,505.63301210012287,505.63301210012287,505.63301210012287,505.63301210012287,f,0.3268989999778569,505.9826778001152,505.9826778001152,505.9826778001152,505.9826778001152,505.9826778001152,505.9826778001152,506.28153170016594,506.28153170016594,507.8272620001808,507.8272620001808,507.8272620001808,507.8272620001808,507.8272620001808,507.8272620001808,507.8272620001808,507.8272620001808,507.8272620001808,507.8272620001808,507.8272620001808,507.8272620001808,507.8272620001808,507.8272620001808,507.8272620001808,507.8272620001808,507.8272620001808,510.3362827000674,510.3362827000674,510.3362827000674,510.3362827000674,510.3362827000674,36,49,35,10,49,21,4.0,0.8154456000775099,511.1672033001669,512.9798017002176,,,,,,,,,,103,f,19,2022-11-25_11h03.07.482,RL,2022.2.4,60.400625308598386,
1,63,0,63,0,,,,,,,,,,None,512.9798017002176,512.9798017002176,512.9798017002176,512.9798017002176,512.9798017002176,512.9798017002176,i,0.31973719992674887,513.3295153002255,513.3295153002255,513.3295153002255,513.3295153002255,513.3295153002255,513.3295153002255,513.6281990001444,513.6281990001444,515.3567283002194,515.3567283002194,515.3567283002194,515.3567283002194,515.3567283002194,515.3567283002194,515.3567283002194,515.3567283002194,515.3567283002194,515.3567283002194,515.3567283002194,515.3567283002194,515.3567283002194,515.3567283002194,515.3567283002194,515.3567283002194,515.3567283002194,517.8659157000948,517.8659157000948,517.8659157000948,517.8659157000948,517.8659157000948,38,54,34,12,34,39,3.0,0.7979725000914186,518.6801164001226,520.3927841000259,,,,,,,,,,103,f,19,2022-11-25_11h03.07.482,RL,2022.2.4,60.400625308598386,
1,64,0,64,0,,,,,,,,,,None,520.3927841000259,520.3927841000259,520.3927841000259,520.3927841000259,520.3927841000259,520.3927841000259,f,0.41075220005586743,520.8258886002004,520.8258886002004,520.8258886002004,520.8258886002004,520.8258886002004,520.8258886002004,521.1242950002197,521.1242950002197,522.7198623002041,522.7198623002041,522.7365329000168,522.7365329000168,522.7365329000168,522.7365329000168,522.7365329000168,522.7365329000168,522.7365329000168,522.7365329000168,522.7365329000168,522.7365329000168,522.7365329000168,522.7365329000168,522.7365329000168,522.7365329000168,522.7365329000168,525.250438200077,525.250438200077,525.250438200077,525.250438200077,525.250438200077,26,61,31,16,61,45,3.0,2.161355100106448,527.4396002001595,529.3684608000331,,,,,,,,,,103,f,19,2022-11-25_11h03.07.482,RL,2022.2.4,60.400625308598386,
1,65,0,65,0,,,,,,,,,,None,529.3684608000331,529.3684608000331,529.3684608000331,529.3684608000331,529.3684608000331,529.3684608000331,f,0.2890844000503421,529.6850267001428,529.6850267001428,529.6850267001428,529.6850267001428,529.6850267001428,529.6850267001428,529.983667800203,529.983667800203,531.729227000149,531.729227000149,531.729227000149,531.729227000149,531.729227000149,531.729227000149,531.729227000149,531.729227000149,531.729227000149,531.729227000149,531.729227000149,531.729227000149,531.729227000149,531.729227000149,531.729227000149,531.729227000149,531.729227000149,534.2377870001364,534.2377870001364,534.2377870001364,534.2377870001364,534.2377870001364,29,58,26,12,58,47,5.0,0.880513200070709,535.1353264001664,536.7485457002185,,,,,,,,,,103,f,19,2022-11-25_11h03.07.482,RL,2022.2.4,60.400625308598386,
1,66,0,66,0,,,,,,,,,,None,536.7485457002185,536.7485457002185,536.7485457002185,536.7485457002185,536.7485457002185,536.7485457002185,f,0.40823019994422793,537.1809473000467,537.1809473000467,537.1809473000467,537.1809473000467,537.1809473000467,537.1809473000467,537.4798749000765,537.4798749000765,538.8261334002018,538.8261334002018,538.8261334002018,538.8261334002018,538.8261334002018,538.8261334002018,538.8261334002018,538.8261334002018,538.8261334002018,538.8261334002018,538.8261334002018,538.8261334002018,538.8261334002018,538.8261334002018,538.8261334002018,538.8261334002018,538.8261334002018,541.3351788001601,541.3351788001601,541.3351788001601,541.3351788001601,541.3351788001601,50,56,24,19,56,34,5.0,1.1460868997965008,542.4990515001118,544.0287057000678,,,,,,,,,,103,f,19,2022-11-25_11h03.07.482,RL,2022.2.4,60.400625308598386,
1,67,0,67,0,,,,,,,,,,None,544.0287057000678,544.0287057000678,544.0287057000678,544.0287057000678,544.0287057000678,544.0287057000678,f,0.46406219992786646,544.5108427000232,544.5108427000232,544.5108427000232,544.5108427000232,544.5108427000232,544.5108427000232,544.8104500002228,544.8104500002228,545.9064973001368,545.9064973001368,545.9064973001368,545.9064973001368,545.9064973001368,545.9064973001368,545.9064973001368,545.9064973001368,545.9064973001368,545.9064973001368,545.9064973001368,545.9064973001368,545.9064973001368,545.9064973001368,545.9064973001368,545.9064973001368,545.9064973001368,548.4158120001666,548.4158120001666,548.4158120001666,548.4158120001666,548.4158120001666,45,44,34,15,44,32,5.0,1.0299883999396116,549.4630867000669,551.158887400059,,,,,,,,,,103,f,19,2022-11-25_11h03.07.482,RL,2022.2.4,60.400625308598386,
1,68,0,68,0,,,,,,,,,,None,551.158887400059,551.158887400059,551.158887400059,551.158887400059,551.158887400059,551.158887400059,f,0.6829653000459075,551.8740664001089,551.8740664001089,551.8740664001089,551.8740664001089,551.8740664001089,551.8740664001089,552.1729995000642,552.1729995000642,553.6188458001707,553.6188458001707,553.6188458001707,553.6188458001707,553.6188458001707,553.6188458001707,553.6188458001707,553.6188458001707,553.6188458001707,553.6188458001707,553.6188458001707,553.6188458001707,553.6188458001707,553.6188458001707,553.6188458001707,553.6188458001707,553.6188458001707,556.1278799001593,556.1278799001593,556.1278799001593,556.1278799001593,556.1278799001593,51,44,34,17,44,24,5.0,1.1459093000739813,557.291423600167,558.8212780000176,,,,,,,,,,103,f,19,2022-11-25_11h03.07.482,RL,2022.2.4,60.400625308598386,
1,69,0,69,0,,,,,,,,,,None,558.8212780000176,558.8212780000176,558.8212780000176,558.8212780000176,558.8212780000176,558.8212780000176,f,0.28519789990969,559.1378774000332,559.1378774000332,559.1378774000332,559.1378774000332,559.1378774000332,559.1378774000332,559.4365421000402,559.4365421000402,561.2486013001762,561.2486013001762,561.2486013001762,561.2486013001762,561.2486013001762,561.2486013001762,561.2486013001762,561.2486013001762,561.2486013001762,561.2486013001762,561.2486013001762,561.2486013001762,561.2486013001762,561.2486013001762,561.2486013001762,561.2486013001762,561.2486013001762,563.7573139001615,563.7573139001615,563.7573139001615,563.7573139001615,563.7573139001615,46,56,33,15,56,30,5.0,0.8638086998835206,564.6381571001839,566.3176136000548,,,,,,,,,,103,f,19,2022-11-25_11h03.07.482,RL,2022.2.4,60.400625308598386,
1,70,0,70,0,,,,,,,,,,None,566.3176136000548,566.3176136000548,566.3176136000548,566.3176136000548,566.3176136000548,566.3176136000548,f,0.3519412998575717,566.7047897002194,566.7047897002194,566.7047897002194,566.7047897002194,566.7047897002194,566.7047897002194,566.9828366001602,566.9828366001602,568.2459258001763,568.2459258001763,568.262374300044,568.262374300044,568.262374300044,568.262374300044,568.262374300044,568.262374300044,568.262374300044,568.262374300044,568.262374300044,568.262374300044,568.262374300044,568.262374300044,568.262374300044,568.262374300044,568.262374300044,570.7716028001159,570.7716028001159,570.7716028001159,570.7716028001159,570.7716028001159,41,50,27,18,50,21,6.0,0.6809372000861913,571.4695894001052,573.3315234000329,,,,,,,,,,103,f,19,2022-11-25_11h03.07.482,RL,2022.2.4,60.400625308598386,
1,71,0,71,0,,,,,,,,,,None,573.3315234000329,573.3315234000329,573.3315234000329,573.3315234000329,573.3315234000329,573.3315234000329,f,0.3180683001410216,573.6813860000111,573.6813860000111,573.6813860000111,573.6813860000111,573.6813860000111,573.6813860000111,573.9805026000831,573.9805026000831,575.276489400072,575.276489400072,575.276489400072,575.276489400072,575.276489400072,575.276489400072,575.276489400072,575.276489400072,575.276489400072,575.276489400072,575.276489400072,575.276489400072,575.276489400072,575.276489400072,575.276489400072,575.276489400072,575.276489400072,577.7852499000728,577.7852499000728,577.7852499000728,577.7852499000728,577.7852499000728,48,45,21,22,45,35,5.0,1.7773702999111265,579.5806786001194,581.4925469001755,,,,,,,,,,103,f,19,2022-11-25_11h03.07.482,RL,2022.2.4,60.400625308598386,
1,72,0,72,0,,,,,,,,,,None,581.4925469001755,581.4925469001755,581.4925469001755,581.4925469001755,581.4925469001755,581.4925469001755,f,0.26046069990843534,581.778626400046,581.778626400046,581.778626400046,581.778626400046,581.778626400046,581.778626400046,582.0746924001724,582.0746924001724,583.0054902001284,583.0054902001284,583.021882200148,583.021882200148,583.021882200148,583.021882200148,583.021882200148,583.021882200148,583.021882200148,583.021882200148,583.021882200148,583.021882200148,583.021882200148,583.021882200148,583.021882200148,583.021882200148,583.021882200148,585.5310935000889,585.5310935000889,585.5310935000889,585.5310935000889,585.5310935000889,41,45,27,6,45,42,4.0,2.45944119989872,588.0075821001083,589.8863728002179,,,,,,,,,,103,f,19,2022-11-25_11h03.07.482,RL,2022.2.4,60.400625308598386,
1,73,0,73,0,,,,,,,,,,None,589.8863728002179,589.8863728002179,589.8863728002179,589.8863728002179,589.8863728002179,589.8863728002179,i,0.23575409990735352,590.1531780001242,590.1531780001242,590.1531780001242,590.1531780001242,590.1531780001242,590.1531780001242,590.4518713001162,590.4518713001162,592.0974171000998,592.0974171000998,592.0974171000998,592.0974171000998,592.0974171000998,592.0974171000998,592.0974171000998,592.0974171000998,592.0974171000998,592.0974171000998,592.0974171000998,592.0974171000998,592.0974171000998,592.0974171000998,592.0974171000998,592.0974171000998,592.0974171000998,594.6067089000717,594.6067089000717,594.6067089000717,594.6067089000717,594.6067089000717,38,48,22,13,22,40,3.0,3.0409866999834776,597.6647725000512,599.394037600141,,,,,,,,,,103,f,19,2022-11-25_11h03.07.482,RL,2022.2.4,60.400625308598386,
1,74,0,74,0,,,,,,,,,,None,599.394037600141,599.394037600141,599.394037600141,599.394037600141,599.394037600141,599.394037600141,r,0.24967620009556413,599.6769666001201,599.6769666001201,599.6769666001201,599.6769666001201,599.6769666001201,599.6769666001201,599.976072100224,599.976072100224,601.6710395000409,601.6710395000409,601.6876544000115,601.6876544000115,601.6876544000115,601.6876544000115,601.6876544000115,601.6876544000115,601.6876544000115,601.6876544000115,601.6876544000115,601.6876544000115,601.6876544000115,601.6876544000115,601.6876544000115,601.6876544000115,601.6876544000115,604.197870900156,604.197870900156,604.197870900156,604.197870900156,604.197870900156,41,45,18,4,41,56,3.0,1.9926711998414248,606.2082299001049,608.0366831000429,,,,,,,,,,103,f,19,2022-11-25_11h03.07.482,RL,2022.2.4,60.400625308598386,
1,75,0,75,0,,,,,,,,,,q,721.6271444000304,721.6271444000304,721.6271444000304,721.6271444000304,721.6271444000304,721.6271444000304,f,0.7521265998948365,722.412794600008,722.412794600008,722.412794600008,722.412794600008,722.412794600008,722.412794600008,722.6911696000025,722.6911696000025,723.9543802000117,723.9543802000117,723.9709800002165,723.9709800002165,723.9709800002165,723.9709800002165,723.9709800002165,723.9709800002165,723.9709800002165,723.9709800002165,723.9709800002165,723.9709800002165,723.9709800002165,723.9709800002165,723.9709800002165,723.9709800002165,723.9709800002165,726.4805882000364,726.4805882000364,726.4805882000364,726.4805882000364,726.4805882000364,36,45,16,13,45,53,3.0,1.2469885000027716,727.7435195001308,729.3727544001304,,,608.0366831000429,608.0366831000429,113.56320059997961,,,,,103,f,19,2022-11-25_11h03.07.482,RL,2022.2.4,60.400625308598386,
1,76,0,76,0,,,,,,,,,,None,729.3727544001304,729.3727544001304,729.3727544001304,729.3727544001304,729.3727544001304,729.3727544001304,i,0.31094569992274046,729.7113369000144,729.7113369000144,729.7113369000144,729.7113369000144,729.7113369000144,729.7113369000144,730.0044839000329,730.0044839000329,731.4509092001244,731.4509092001244,731.4509092001244,731.4509092001244,731.4509092001244,731.4509092001244,731.4509092001244,731.4509092001244,731.4509092001244,731.4509092001244,731.4509092001244,731.4509092001244,731.4509092001244,731.4509092001244,731.4509092001244,731.4509092001244,731.4509092001244,733.9596974002197,733.9596974002197,733.9596974002197,733.9596974002197,733.9596974002197,32,54,17,15,17,62,2.0,1.0138940000906587,734.9904039001558,736.8191189002246,,,,,,,,,,103,f,19,2022-11-25_11h03.07.482,RL,2022.2.4,60.400625308598386,
1,77,0,77,0,,,,,,,,,,None,736.8191189002246,736.8191189002246,736.8191189002246,736.8191189002246,736.8191189002246,736.8191189002246,r,0.2790798000060022,737.1213561000768,737.1213561000768,737.1213561000768,737.1213561000768,737.1213561000768,737.1213561000768,737.4176270000171,737.4176270000171,738.5650925000664,738.5650925000664,738.5814035001677,738.5814035001677,738.5814035001677,738.5814035001677,738.5814035001677,738.5814035001677,738.5814035001677,738.5814035001677,738.5814035001677,738.5814035001677,738.5814035001677,738.5814035001677,738.5814035001677,738.5814035001677,738.5814035001677,741.0901606001426,741.0901606001426,741.0901606001426,741.0901606001426,741.0901606001426,38,42,23,18,38,56,2.0,1.027352999895811,742.1371201002039,744.09912860021,,,,,,,,,,103,f,19,2022-11-25_11h03.07.482,RL,2022.2.4,60.400625308598386,
1,78,0,78,0,,,,,,,,,,None,744.09912860021,744.09912860021,744.09912860021,744.09912860021,744.09912860021,744.09912860021,j,0.2776127001270652,744.3991152001545,744.3991152001545,744.3991152001545,744.3991152001545,744.3991152001545,744.3991152001545,744.6979527000804,744.6979527000804,746.0608795001172,746.0608795001172,746.0608795001172,746.0608795001172,746.0608795001172,746.0608795001172,746.0608795001172,746.0608795001172,746.0608795001172,746.0608795001172,746.0608795001172,746.0608795001172,746.0608795001172,746.0608795001172,746.0608795001172,746.0608795001172,746.0608795001172,748.5696218002122,748.5696218002122,748.5696218002122,748.5696218002122,748.5696218002122,37,42,23,19,19,52,2.0,0.8311948000919074,749.4172338000499,750.947250300087,,,,,,,,,,103,f,19,2022-11-25_11h03.07.482,RL,2022.2.4,60.400625308598386,
1,79,0,79,0,,,,,,,,,,None,750.947250300087,750.947250300087,750.947250300087,750.947250300087,750.947250300087,750.947250300087,f,0.489623999921605,751.4635069000069,751.4635069000069,751.4635069000069,751.4635069000069,751.4635069000069,751.4635069000069,751.7621463001706,751.7621463001706,753.6067248000763,753.6067248000763,753.6067248000763,753.6067248000763,753.6067248000763,753.6067248000763,753.6067248000763,753.6067248000763,753.6067248000763,753.6067248000763,753.6067248000763,753.6067248000763,753.6067248000763,753.6067248000763,753.6067248000763,753.6067248000763,753.6067248000763,756.1157770000864,756.1157770000864,756.1157770000864,756.1157770000864,756.1157770000864,38,31,16,9,31,62,3.0,1.1619755001738667,757.2958290001843,759.1577709000558,,,,,,,,,,103,f,19,2022-11-25_11h03.07.482,RL,2022.2.4,60.400625308598386,
1,80,0,80,0,,,,,,,,,,None,759.1577709000558,759.1577709000558,759.1577709000558,759.1577709000558,759.1577709000558,759.1577709000558,j,0.2580460999161005,759.4442672000732,759.4442672000732,759.4442672000732,759.4442672000732,759.4442672000732,759.4442672000732,759.7524364001583,759.7524364001583,761.4856158001348,761.4856158001348,761.467765700072,761.467765700072,761.467765700072,761.467765700072,761.467765700072,761.467765700072,761.4856158001348,761.4856158001348,761.4856158001348,761.4856158001348,761.4856158001348,761.4856158001348,761.4856158001348,761.4856158001348,761.4856158001348,763.9942976001184,763.9942976001184,763.9942976001184,763.9942976001184,763.9942976001184,30,31,15,5,5,53,1.0,1.3274674999993294,765.3409988000058,767.2195617000107,,,,,,,,,,103,f,19,2022-11-25_11h03.07.482,RL,2022.2.4,60.400625308598386,
1,81,0,81,0,,,,,,,,,,None,767.2195617000107,767.2195617000107,767.2195617000107,767.2195617000107,767.2195617000107,767.2195617000107,i,0.25917040021158755,767.5087675000541,767.5087675000541,767.5087675000541,767.5087675000541,767.5087675000541,767.5087675000541,767.8016257002018,767.8016257002018,768.6655997000635,768.6655997000635,768.6821245001629,768.6821245001629,768.6821245001629,768.6821245001629,768.6821245001629,768.6821245001629,768.6821245001629,768.6821245001629,768.6821245001629,768.6821245001629,768.6821245001629,768.6821245001629,768.6821245001629,768.6821245001629,768.6821245001629,771.1915410000365,771.1915410000365,771.1915410000365,771.1915410000365,771.1915410000365,34,22,15,11,15,73,2.0,1.0301983000244945,772.2385435001925,773.8682749001309,,,,,,,,,,103,f,19,2022-11-25_11h03.07.482,RL,2022.2.4,60.400625308598386,
1,82,0,82,0,,,,,,,,,,None,773.8682749001309,773.8682749001309,773.8682749001309,773.8682749001309,773.8682749001309,773.8682749001309,r,0.24497390002943575,774.135448000161,774.135448000161,774.135448000161,774.135448000161,774.135448000161,774.135448000161,774.433448900003,774.433448900003,776.062392800115,776.062392800115,776.062392800115,776.062392800115,776.062392800115,776.062392800115,776.062392800115,776.062392800115,776.062392800115,776.062392800115,776.062392800115,776.062392800115,776.062392800115,776.062392800115,776.062392800115,776.062392800115,776.062392800115,778.5712861001957,778.5712861001957,778.5712861001957,778.5712861001957,778.5712861001957,33,32,26,14,33,49,2.0,1.860270399833098,780.449390000198,782.1454113000073,,,,,,,,,,103,f,19,2022-11-25_11h03.07.482,RL,2022.2.4,60.400625308598386,
1,83,0,83,0,,,,,,,,,,None,782.1454113000073,782.1454113000073,782.1454113000073,782.1454113000073,782.1454113000073,782.1454113000073,r,0.2911985998507589,782.4620722001418,782.4620722001418,782.4620722001418,782.4620722001418,782.4620722001418,782.4620722001418,782.7609672001563,782.7609672001563,784.4891072001774,784.4891072001774,784.5064424001612,784.5064424001612,784.5064424001612,784.5064424001612,784.5064424001612,784.5064424001612,784.5064424001612,784.5064424001612,784.5064424001612,784.5064424001612,784.5064424001612,784.5064424001612,784.5064424001612,784.5064424001612,784.5064424001612,787.0148303001188,787.0148303001188,787.0148303001188,787.0148303001188,787.0148303001188,28,27,29,15,28,65,2.0,1.245831600157544,788.2780581000261,789.8908864001278,,,,,,,,,,103,f,19,2022-11-25_11h03.07.482,RL,2022.2.4,60.400625308598386,
1,84,0,84,0,,,,,,,,,,None,789.8908864001278,789.8908864001278,789.8908864001278,789.8908864001278,789.8908864001278,789.8908864001278,f,0.2805184000171721,790.1912001001183,790.1912001001183,790.1912001001183,790.1912001001183,790.1912001001183,790.1912001001183,790.4893631001469,790.4893631001469,791.9190480001271,791.9190480001271,791.9190480001271,791.9190480001271,791.9190480001271,791.9190480001271,791.9190480001271,791.9190480001271,791.9190480001271,791.9190480001271,791.9190480001271,791.9190480001271,791.9190480001271,791.9190480001271,791.9190480001271,791.9190480001271,791.9190480001271,794.4279119002167,794.4279119002167,794.4279119002167,794.4279119002167,794.4279119002167,30,23,29,7,23,36,2.0,2.2431942999828607,796.6884497001301,798.5670066000894,,,,,,,,,,103,f,19,2022-11-25_11h03.07.482,RL,2022.2.4,60.400625308598386,
1,85,0,85,0,,,,,,,,,,None,798.5670066000894,798.5670066000894,798.5670066000894,798.5670066000894,798.5670066000894,798.5670066000894,i,0.2825588998384774,798.8679125001654,798.8679125001654,798.8679125001654,798.8679125001654,798.8679125001654,798.8679125001654,799.1662610000931,799.1662610000931,800.9774928002153,800.9774928002153,800.9774928002153,800.9774928002153,800.9774928002153,800.9774928002153,800.9774928002153,800.9774928002153,800.9774928002153,800.9774928002153,800.9774928002153,800.9774928002153,800.9774928002153,800.9774928002153,800.9774928002153,800.9774928002153,800.9774928002153,803.4865657000337,803.4865657000337,803.4865657000337,803.4865657000337,803.4865657000337,32,22,36,4,36,53,2.0,0.9788363999687135,804.4836131001357,806.4291903001722,,,,,,,,,,103,f,19,2022-11-25_11h03.07.482,RL,2022.2.4,60.400625308598386,
1,86,0,86,0,,,,,,,,,,None,806.4291903001722,806.4291903001722,806.4291903001722,806.4291903001722,806.4291903001722,806.4291903001722,f,0.29922559997066855,806.749467200134,806.749467200134,806.749467200134,806.749467200134,806.749467200134,806.749467200134,807.0442607000005,807.0442607000005,809.0387800000608,809.0387800000608,809.0387800000608,809.0387800000608,809.0387800000608,809.0387800000608,809.0387800000608,809.0387800000608,809.0387800000608,809.0387800000608,809.0387800000608,809.0387800000608,809.0387800000608,809.0387800000608,809.0387800000608,809.0387800000608,809.0387800000608,811.5480808001012,811.5480808001012,811.5480808001012,811.5480808001012,811.5480808001012,31,19,29,6,19,68,2.0,0.9962408000137657,812.5617661001161,814.2579551001545,,,,,,,,,,103,f,19,2022-11-25_11h03.07.482,RL,2022.2.4,60.400625308598386,
1,87,0,87,0,,,,,,,,,,None,814.2579551001545,814.2579551001545,814.2579551001545,814.2579551001545,814.2579551001545,814.2579551001545,i,0.2492649001069367,814.54097930016,814.54097930016,814.54097930016,814.54097930016,814.54097930016,814.54097930016,814.8401453001425,814.8401453001425,816.5515688001178,816.5515688001178,816.5515688001178,816.5515688001178,816.5515688001178,816.5515688001178,816.5515688001178,816.5515688001178,816.5515688001178,816.5515688001178,816.5515688001178,816.5515688001178,816.5515688001178,816.5515688001178,816.5515688001178,816.5515688001178,816.5515688001178,819.0607100001071,819.0607100001071,819.0607100001071,819.0607100001071,819.0607100001071,31,24,33,5,33,51,3.0,0.9966912001837045,820.0744939001743,821.8205255002249,,,,,,,,,,103,f,19,2022-11-25_11h03.07.482,RL,2022.2.4,60.400625308598386,
1,88,0,88,0,,,,,,,,,,None,821.8205255002249,821.8205255002249,821.8205255002249,821.8205255002249,821.8205255002249,821.8205255002249,i,0.23101720004342496,822.0715374001302,822.0715374001302,822.0715374001302,822.0715374001302,822.0715374001302,822.0715374001302,822.3692972999997,822.3692972999997,823.2666600001976,823.2666600001976,823.2666600001976,823.2666600001976,823.2666600001976,823.2666600001976,823.2666600001976,823.2666600001976,823.2666600001976,823.2666600001976,823.2666600001976,823.2666600001976,823.2666600001976,823.2666600001976,823.2666600001976,823.2666600001976,823.2666600001976,825.7756362000946,825.7756362000946,825.7756362000946,825.7756362000946,825.7756362000946,33,22,26,16,26,69,3.0,0.697431999957189,826.4904035001528,828.1365309001412,,,,,,,,,,103,f,19,2022-11-25_11h03.07.482,RL,2022.2.4,60.400625308598386,
1,89,0,89,0,,,,,,,,,,None,828.1365309001412,828.1365309001412,828.1365309001412,828.1365309001412,828.1365309001412,828.1365309001412,j,0.6598747000098228,828.8187055001035,828.8187055001035,828.8187055001035,828.8187055001035,828.8187055001035,828.8187055001035,829.1174952001311,829.1174952001311,830.7628252001014,830.7628252001014,830.7801406001672,830.7801406001672,830.7801406001672,830.7801406001672,830.7801406001672,830.7801406001672,830.7801406001672,830.7801406001672,830.7801406001672,830.7801406001672,830.7801406001672,830.7801406001672,830.7801406001672,830.7801406001672,830.7801406001672,833.2903182001319,833.2903182001319,833.2903182001319,833.2903182001319,833.2903182001319,29,27,33,16,16,70,2.0,0.6475313999690115,833.9535612000618,835.7822685001884,,,,,,,,,,103,f,19,2022-11-25_11h03.07.482,RL,2022.2.4,60.400625308598386,
1,90,0,90,0,,,,,,,,,,None,835.7822685001884,835.7822685001884,835.7822685001884,835.7822685001884,835.7822685001884,835.7822685001884,r,0.2484707001131028,836.0494125999976,836.0494125999976,836.0494125999976,836.0494125999976,836.0494125999976,836.0494125999976,836.3482918001246,836.3482918001246,837.6110694000963,837.6110694000963,837.6110694000963,837.6110694000963,837.6110694000963,837.6110694000963,837.6110694000963,837.6110694000963,837.6110694000963,837.6110694000963,837.6110694000963,837.6110694000963,837.6110694000963,837.6110694000963,837.6110694000963,837.6110694000963,837.6110694000963,840.1200804000255,840.1200804000255,840.1200804000255,840.1200804000255,840.1200804000255,31,26,31,16,31,51,3.0,2.076248899800703,842.2143151001073,844.0596874000039,,,,,,,,,,103,f,19,2022-11-25_11h03.07.482,RL,2022.2.4,60.400625308598386,
1,91,0,91,0,,,,,,,,,,None,844.0596874000039,844.0596874000039,844.0596874000039,844.0596874000039,844.0596874000039,844.0596874000039,i,0.2855344000272453,844.3806605001446,844.3806605001446,844.3806605001446,844.3806605001446,844.3806605001446,844.3806605001446,844.6750138001516,844.6750138001516,846.6532428001519,846.6532428001519,846.6697626002133,846.6697626002133,846.6697626002133,846.6697626002133,846.6697626002133,846.6697626002133,846.6697626002133,846.6697626002133,846.6697626002133,846.6697626002133,846.6697626002133,846.6697626002133,846.6697626002133,846.6697626002133,846.6697626002133,849.1786655001342,849.1786655001342,849.1786655001342,849.1786655001342,849.1786655001342,25,26,34,18,34,71,2.0,1.4937871000729501,850.6909198001958,852.5865308002103,,,,,,,,,,103,f,19,2022-11-25_11h03.07.482,RL,2022.2.4,60.400625308598386,
1,92,0,92,0,,,,,,,,,,None,852.5865308002103,852.5865308002103,852.5865308002103,852.5865308002103,852.5865308002103,852.5865308002103,f,0.257285000057891,852.873868000228,852.873868000228,852.873868000228,852.873868000228,852.873868000228,852.873868000228,853.1685864001047,853.1685864001047,854.1658485000953,854.1658485000953,854.1658485000953,854.1658485000953,854.1658485000953,854.1658485000953,854.1658485000953,854.1658485000953,854.1658485000953,854.1658485000953,854.1658485000953,854.1658485000953,854.1658485000953,854.1658485000953,854.1658485000953,854.1658485000953,854.1658485000953,856.6747901001945,856.6747901001945,856.6747901001945,856.6747901001945,856.6747901001945,20,33,33,7,33,69,2.0,1.4284043000079691,858.1208172000479,859.7667604000308,,,,,,,,,,103,f,19,2022-11-25_11h03.07.482,RL,2022.2.4,60.400625308598386,
1,93,0,93,0,,,,,,,,,,None,859.7667604000308,859.7667604000308,859.7667604000308,859.7667604000308,859.7667604000308,859.7667604000308,r,0.31675369990989566,860.1163937000092,860.1163937000092,860.1163937000092,860.1163937000092,860.1163937000092,860.1163937000092,860.3988346001133,860.3988346001133,861.2310481001623,861.2310481001623,861.2463848001789,861.2463848001789,861.2463848001789,861.2463848001789,861.2463848001789,861.2463848001789,861.2463848001789,861.2463848001789,861.2463848001789,861.2463848001789,861.2463848001789,861.2463848001789,861.2463848001789,861.2463848001789,861.2463848001789,863.7554372001905,863.7554372001905,863.7554372001905,863.7554372001905,863.7554372001905,19,42,33,10,19,64,2.0,1.0463286000303924,864.8191397001501,866.4162942999974,,,,,,,,,,103,f,19,2022-11-25_11h03.07.482,RL,2022.2.4,60.400625308598386,
1,94,0,94,0,,,,,,,,,,None,866.4162942999974,866.4162942999974,866.4162942999974,866.4162942999974,866.4162942999974,866.4162942999974,f,0.2230909001082182,866.6652705001179,866.6652705001179,866.6652705001179,866.6652705001179,866.6652705001179,866.6652705001179,866.9642580000218,866.9642580000218,868.0778393000364,868.0778393000364,868.0778393000364,868.0778393000364,868.0778393000364,868.0778393000364,868.0778393000364,868.0778393000364,868.0778393000364,868.0778393000364,868.0778393000364,868.0778393000364,868.0778393000364,868.0778393000364,868.0778393000364,868.0778393000364,868.0778393000364,870.5868764000479,870.5868764000479,870.5868764000479,870.5868764000479,870.5868764000479,29,42,36,8,42,55,3.0,2.0934484999161214,872.6976116001606,874.2108417002019,,,,,,,,,,103,f,19,2022-11-25_11h03.07.482,RL,2022.2.4,60.400625308598386,
1,95,0,95,0,,,,,,,,,,None,874.2108417002019,874.2108417002019,874.2108417002019,874.2108417002019,874.2108417002019,874.2108417002019,i,0.27779419999569654,874.5174162001349,874.5174162001349,874.5174162001349,874.5174162001349,874.5174162001349,874.5174162001349,874.8094194000587,874.8094194000587,876.1224248001818,876.1224248001818,876.1391866002232,876.1391866002232,876.1391866002232,876.1391866002232,876.1391866002232,876.1391866002232,876.1391866002232,876.1391866002232,876.1391866002232,876.1391866002232,876.1391866002232,876.1391866002232,876.1391866002232,876.1391866002232,876.1391866002232,878.6484878000338,878.6484878000338,878.6484878000338,878.6484878000338,878.6484878000338,36,35,43,18,43,54,3.0,1.213151999982074,879.8782143001445,881.6573596000671,,,,,,,,,,103,f,19,2022-11-25_11h03.07.482,RL,2022.2.4,60.400625308598386,
1,96,0,96,0,,,,,,,,,,None,881.6573596000671,881.6573596000671,881.6573596000671,881.6573596000671,881.6573596000671,881.6573596000671,f,0.8605458000674844,882.540840000147,882.540840000147,882.540840000147,882.540840000147,882.540840000147,882.540840000147,882.8376608002,882.8376608002,884.2668381000403,884.2668381000403,884.2668381000403,884.2668381000403,884.2668381000403,884.2668381000403,884.2668381000403,884.2668381000403,884.2668381000403,884.2668381000403,884.2668381000403,884.2668381000403,884.2668381000403,884.2668381000403,884.2668381000403,884.2668381000403,884.2668381000403,886.7760043002199,886.7760043002199,886.7760043002199,886.7760043002199,886.7760043002199,21,33,40,13,33,44,3.0,1.678869300056249,888.4713300000876,890.4499828000553,,,,,,,,,,103,f,19,2022-11-25_11h03.07.482,RL,2022.2.4,60.400625308598386,
1,97,0,97,0,,,,,,,,,,None,890.4499828000553,890.4499828000553,890.4499828000553,890.4499828000553,890.4499828000553,890.4499828000553,i,0.5875713001005352,891.0653072001878,891.0653072001878,891.0653072001878,891.0653072001878,891.0653072001878,891.0653072001878,891.3645034001675,891.3645034001675,892.3777060001157,892.3777060001157,892.3777060001157,892.3777060001157,892.3777060001157,892.3777060001157,892.3777060001157,892.3777060001157,892.3777060001157,892.3777060001157,892.3777060001157,892.3777060001157,892.3777060001157,892.3777060001157,892.3777060001157,892.3777060001157,892.3777060001157,894.8870689000469,894.8870689000469,894.8870689000469,894.8870689000469,894.8870689000469,28,28,32,10,32,51,3.0,0.6809658999554813,895.5852413000539,897.4640959000681,,,,,,,,,,103,f,19,2022-11-25_11h03.07.482,RL,2022.2.4,60.400625308598386,
1,98,0,98,0,,,,,,,,,,None,897.4640959000681,897.4640959000681,897.4640959000681,897.4640959000681,897.4640959000681,897.4640959000681,f,0.392924299929291,897.8827342002187,897.8827342002187,897.8827342002187,897.8827342002187,897.8827342002187,897.8827342002187,898.179019600153,898.179019600153,899.6084198001772,899.6084198001772,899.6084198001772,899.6084198001772,899.6084198001772,899.6084198001772,899.6084198001772,899.6084198001772,899.6084198001772,899.6084198001772,899.6084198001772,899.6084198001772,899.6084198001772,899.6084198001772,899.6084198001772,899.6084198001772,899.6084198001772,902.1174890000839,902.1174890000839,902.1174890000839,902.1174890000839,902.1174890000839,28,31,36,9,31,55,2.0,0.8794792999979109,903.0152572002262,904.6942794001661,,,,,,,,,,103,f,19,2022-11-25_11h03.07.482,RL,2022.2.4,60.400625308598386,
1,99,0,99,0,,,,,,,,,,None,904.6942794001661,904.6942794001661,904.6942794001661,904.6942794001661,904.6942794001661,904.6942794001661,r,0.3176691001281142,905.0446480000392,905.0446480000392,905.0446480000392,905.0446480000392,905.0446480000392,905.0446480000392,905.3428852001671,905.3428852001671,907.0713394000195,907.0713394000195,907.0885068001226,907.0885068001226,907.0885068001226,907.0885068001226,907.0885068001226,907.0885068001226,907.0885068001226,907.0885068001226,907.0885068001226,907.0885068001226,907.0885068001226,907.0885068001226,907.0885068001226,907.0885068001226,907.0885068001226,909.5980100000743,909.5980100000743,909.5980100000743,909.5980100000743,909.5980100000743,24,33,34,15,24,53,1.0,1.0632792999967933,910.6774248001166,912.29040490021,,,,,,,,,,103,f,19,2022-11-25_11h03.07.482,RL,2022.2.4,60.400625308598386,
1,100,0,100,0,,,,,,,,,,None,912.29040490021,912.29040490021,912.29040490021,912.29040490021,912.29040490021,912.29040490021,f,0.30051159998402,912.629861399997,912.629861399997,912.629861399997,912.629861399997,912.629861399997,912.629861399997,912.9222337000538,912.9222337000538,914.3014919999987,914.3014919999987,914.3183289000299,914.3183289000299,914.3183289000299,914.3183289000299,914.3183289000299,914.3183289000299,914.3183289000299,914.3183289000299,914.3183289000299,914.3183289000299,914.3183289000299,914.3183289000299,914.3183289000299,914.3183289000299,914.3183289000299,916.8273313001264,916.8273313001264,916.8273313001264,916.8273313001264,916.8273313001264,28,27,37,19,27,53,3.0,1.0465381999965757,917.8910859001335,919.7366583000403,,,,,,,,,,103,f,19,2022-11-25_11h03.07.482,RL,2022.2.4,60.400625308598386,
1,101,0,101,0,,,,,,,,,,None,919.7366583000403,919.7366583000403,919.7366583000403,919.7366583000403,919.7366583000403,919.7366583000403,i,0.28890000004321337,920.0537763000466,920.0537763000466,920.0537763000466,920.0537763000466,920.0537763000466,920.0537763000466,920.3517247000709,920.3517247000709,921.9326303000562,921.9326303000562,921.9326303000562,921.9326303000562,921.9326303000562,921.9326303000562,921.9326303000562,921.9326303000562,921.9326303000562,921.9326303000562,921.9326303000562,921.9326303000562,921.9326303000562,921.9326303000562,921.9326303000562,921.9326303000562,921.9326303000562,924.4399765001144,924.4399765001144,924.4399765001144,924.4399765001144,924.4399765001144,35,37,34,29,34,61,3.0,1.0138799999840558,925.4703826000914,927.0499065001495,,,,,,,,,,103,f,19,2022-11-25_11h03.07.482,RL,2022.2.4,60.400625308598386,
1,102,0,102,0,,,,,,,,,,None,927.0499065001495,927.0499065001495,927.0499065001495,927.0499065001495,927.0499065001495,927.0499065001495,j,0.27566509996540844,927.3520875000395,927.3520875000395,927.3520875000395,927.3520875000395,927.3520875000395,927.3520875000395,927.6486898001749,927.6486898001749,928.5294819001574,928.5294819001574,928.5294819001574,928.5294819001574,928.5294819001574,928.5294819001574,928.5294819001574,928.5294819001574,928.5294819001574,928.5294819001574,928.5294819001574,928.5294819001574,928.5294819001574,928.5294819001574,928.5294819001574,928.5294819001574,928.5294819001574,931.0387318001594,931.0387318001594,931.0387318001594,931.0387318001594,931.0387318001594,33,27,38,27,27,46,3.0,0.7912410998251289,931.8241883001756,933.6657607001252,,,,,,,,,,103,f,19,2022-11-25_11h03.07.482,RL,2022.2.4,60.400625308598386,
1,103,0,103,0,,,,,,,,,,None,933.6657607001252,933.6657607001252,933.6657607001252,933.6657607001252,933.6657607001252,933.6657607001252,f,0.27393179992213845,933.9659408000298,933.9659408000298,933.9659408000298,933.9659408000298,933.9659408000298,933.9659408000298,934.2638531001285,934.2638531001285,935.4285556001123,935.4285556001123,935.4285556001123,935.4285556001123,935.4285556001123,935.4285556001123,935.4285556001123,935.4285556001123,935.4285556001123,935.4285556001123,935.4285556001123,935.4285556001123,935.4285556001123,935.4285556001123,935.4285556001123,935.4285556001123,935.4285556001123,937.9364723002072,937.9364723002072,937.9364723002072,937.9364723002072,937.9364723002072,35,32,26,21,32,48,3.0,1.1462219001259655,939.1001716000028,940.9953175000846,,,,,,,,,,103,f,19,2022-11-25_11h03.07.482,RL,2022.2.4,60.400625308598386,
1,104,0,104,0,,,,,,,,,,None,940.9953175000846,940.9953175000846,940.9953175000846,940.9953175000846,940.9953175000846,940.9953175000846,j,0.2651823000051081,941.279964600224,941.279964600224,941.279964600224,941.279964600224,941.279964600224,941.279964600224,941.577264400199,941.577264400199,942.873673300026,942.873673300026,942.873673300026,942.873673300026,942.873673300026,942.873673300026,942.873673300026,942.873673300026,942.873673300026,942.873673300026,942.873673300026,942.873673300026,942.873673300026,942.873673300026,942.873673300026,942.873673300026,942.873673300026,945.3828234001994,945.3828234001994,945.3828234001994,945.3828234001994,945.3828234001994,33,30,23,14,14,55,1.0,1.0301765000913292,946.4302586000413,948.3750736000948,,,,,,,,,,103,f,19,2022-11-25_11h03.07.482,RL,2022.2.4,60.400625308598386,
1,105,0,105,0,,,,,,,,,,None,948.3750736000948,948.3750736000948,948.3750736000948,948.3750736000948,948.3750736000948,948.3750736000948,r,0.3690582001581788,948.7759878002107,948.7759878002107,948.7759878002107,948.7759878002107,948.7759878002107,948.7759878002107,949.0740340000484,949.0740340000484,950.652558100177,950.652558100177,950.652558100177,950.652558100177,950.652558100177,950.652558100177,950.652558100177,950.652558100177,950.652558100177,950.652558100177,950.652558100177,950.652558100177,950.652558100177,950.652558100177,950.652558100177,950.652558100177,950.652558100177,953.1615706000011,953.1615706000011,953.1615706000011,953.1615706000011,953.1615706000011,33,36,26,19,33,52,2.0,0.673987700138241,953.8433170001954,955.5223864000291,,,,,,,,,,103,f,19,2022-11-25_11h03.07.482,RL,2022.2.4,60.400625308598386,
1,106,0,106,0,,,,,,,,,,None,955.5223864000291,955.5223864000291,955.5223864000291,955.5223864000291,955.5223864000291,955.5223864000291,f,0.3662424997892231,955.9280698001385,955.9280698001385,955.9280698001385,955.9280698001385,955.9280698001385,955.9280698001385,956.2206400001887,956.2206400001887,957.799493700033,957.799493700033,957.799493700033,957.799493700033,957.799493700033,957.799493700033,957.799493700033,957.799493700033,957.799493700033,957.799493700033,957.799493700033,957.799493700033,957.799493700033,957.799493700033,957.799493700033,957.799493700033,957.799493700033,960.3086906000972,960.3086906000972,960.3086906000972,960.3086906000972,960.3086906000972,34,29,31,14,29,41,2.0,0.96291090012528,961.2892995001748,963.1184362000786,,,,,,,,,,103,f,19,2022-11-25_11h03.07.482,RL,2022.2.4,60.400625308598386,
1,107,0,107,0,,,,,,,,,,None,963.1184362000786,963.1184362000786,963.1184362000786,963.1184362000786,963.1184362000786,963.1184362000786,j,0.2540935000870377,963.4048330001533,963.4048330001533,963.4048330001533,963.4048330001533,963.4048330001533,963.4048330001533,963.7003816000652,963.7003816000652,965.3789438002277,965.3789438002277,965.3789438002277,965.3789438002277,965.3789438002277,965.3789438002277,965.3789438002277,965.3789438002277,965.3789438002277,965.3789438002277,965.3789438002277,965.3789438002277,965.3789438002277,965.3789438002277,965.3789438002277,965.3789438002277,965.3789438002277,967.8883261000738,967.8883261000738,967.8883261000738,967.8883261000738,967.8883261000738,25,27,33,20,20,42,2.0,0.8978542999830097,968.8027057000436,970.7142676000949,,,,,,,,,,103,f,19,2022-11-25_11h03.07.482,RL,2022.2.4,60.400625308598386,
1,108,0,108,0,,,,,,,,,,None,970.7142676000949,970.7142676000949,970.7142676000949,970.7142676000949,970.7142676000949,970.7142676000949,i,0.2477247000206262,970.983839499997,970.983839499997,970.983839499997,970.983839499997,970.983839499997,970.983839499997,971.2796494001523,971.2796494001523,972.9249596002046,972.9249596002046,972.9414836000651,972.9414836000651,972.9414836000651,972.9414836000651,972.9414836000651,972.9414836000651,972.9414836000651,972.9414836000651,972.9414836000651,972.9414836000651,972.9414836000651,972.9414836000651,972.9414836000651,972.9414836000651,972.9414836000651,975.4506790000014,975.4506790000014,975.4506790000014,975.4506790000014,975.4506790000014,27,31,26,26,26,53,2.0,0.6640755999833345,976.1321566000115,978.060906900093,,,,,,,,,,103,f,19,2022-11-25_11h03.07.482,RL,2022.2.4,60.400625308598386,
1,109,0,109,0,,,,,,,,,,None,978.060906900093,978.060906900093,978.060906900093,978.060906900093,978.060906900093,978.060906900093,f,0.2853812000248581,978.3851737000514,978.3851737000514,978.3851737000514,978.3851737000514,978.3851737000514,978.3851737000514,978.6761344000697,978.6761344000697,979.5571376001462,979.5571376001462,979.5571376001462,979.5571376001462,979.5571376001462,979.5571376001462,979.5571376001462,979.5571376001462,979.5571376001462,979.5571376001462,979.5571376001462,979.5571376001462,979.5571376001462,979.5571376001462,979.5571376001462,979.5571376001462,979.5571376001462,982.0660505001433,982.0660505001433,982.0660505001433,982.0660505001433,982.0660505001433,14,32,32,20,32,51,2.0,0.6480434997938573,982.7307095001452,984.5598343000747,,,,,,,,,,103,f,19,2022-11-25_11h03.07.482,RL,2022.2.4,60.400625308598386,
1,110,0,110,0,,,,,,,,,,None,984.5598343000747,984.5598343000747,984.5598343000747,984.5598343000747,984.5598343000747,984.5598343000747,r,0.42055279994383454,985.0091877002269,985.0091877002269,985.0091877002269,985.0091877002269,985.0091877002269,985.0091877002269,985.3079781001434,985.3079781001434,987.1529775001109,987.1529775001109,987.1529775001109,987.1529775001109,987.1529775001109,987.1529775001109,987.1529775001109,987.1529775001109,987.1529775001109,987.1529775001109,987.1529775001109,987.1529775001109,987.1529775001109,987.1529775001109,987.1529775001109,987.1529775001109,987.1529775001109,989.6623254001606,989.6623254001606,989.6623254001606,989.6623254001606,989.6623254001606,17,33,42,13,17,50,2.0,1.2619163999333978,990.9416842001956,992.9208397001494,,,,,,,,,,103,f,19,2022-11-25_11h03.07.482,RL,2022.2.4,60.400625308598386,
1,111,0,111,0,,,,,,,,,,None,992.9208397001494,992.9208397001494,992.9208397001494,992.9208397001494,992.9208397001494,992.9208397001494,j,0.2646174000110477,993.2040757001378,993.2040757001378,993.2040757001378,993.2040757001378,993.2040757001378,993.2040757001378,993.5027634000871,993.5027634000871,995.2472987000365,995.2472987000365,995.2472987000365,995.2472987000365,995.2472987000365,995.2472987000365,995.2472987000365,995.2472987000365,995.2472987000365,995.2472987000365,995.2472987000365,995.2472987000365,995.2472987000365,995.2472987000365,995.2472987000365,995.2472987000365,995.2472987000365,997.7565349000506,997.7565349000506,997.7565349000506,997.7565349000506,997.7565349000506,18,45,37,15,15,45,2.0,0.6647403999231756,998.437981300056,1000.3004201001022,,,,,,,,,,103,f,19,2022-11-25_11h03.07.482,RL,2022.2.4,60.400625308598386,
1,112,0,112,0,,,,,,,,,,None,1000.3004201001022,1000.3004201001022,1000.3004201001022,1000.3004201001022,1000.3004201001022,1000.3004201001022,i,0.3643434001132846,1000.6862534000538,1000.6862534000538,1000.6862534000538,1000.6862534000538,1000.6862534000538,1000.6862534000538,1000.9820170002058,1000.9820170002058,1002.5776586001739,1002.5776586001739,1002.5776586001739,1002.5776586001739,1002.5776586001739,1002.5776586001739,1002.5776586001739,1002.5776586001739,1002.5776586001739,1002.5776586001739,1002.5776586001739,1002.5776586001739,1002.5776586001739,1002.5776586001739,1002.5776586001739,1002.5776586001739,1002.5776586001739,1005.0871424002107,1005.0871424002107,1005.0871424002107,1005.0871424002107,1005.0871424002107,22,42,47,23,47,54,2.0,0.7471074999775738,1005.8512272001244,1007.6799490000121,,,,,,,,,,103,f,19,2022-11-25_11h03.07.482,RL,2022.2.4,60.400625308598386,
1,113,0,113,0,,,,,,,,,,None,1007.6799490000121,1007.6799490000121,1007.6799490000121,1007.6799490000121,1007.6799490000121,1007.6799490000121,i,0.25362100009806454,1007.9634262002073,1007.9634262002073,1007.9634262002073,1007.9634262002073,1007.9634262002073,1007.9634262002073,1008.2621866001282,1008.2621866001282,1010.2233486000914,1010.2233486000914,1010.2233486000914,1010.2233486000914,1010.2233486000914,1010.2233486000914,1010.2233486000914,1010.2233486000914,1010.2233486000914,1010.2233486000914,1010.2233486000914,1010.2233486000914,1010.2233486000914,1010.2233486000914,1010.2233486000914,1010.2233486000914,1010.2233486000914,1012.7324997000396,1012.7324997000396,1012.7324997000396,1012.7324997000396,1012.7324997000396,24,33,37,14,37,50,3.0,0.7637072999496013,1013.5133782001212,1015.4920030001085,,,,,,,,,,103,f,19,2022-11-25_11h03.07.482,RL,2022.2.4,60.400625308598386,
1,114,0,114,0,,,,,,,,,,None,1015.4920030001085,1015.4920030001085,1015.4920030001085,1015.4920030001085,1015.4920030001085,1015.4920030001085,f,0.3257802000734955,1015.8453405001201,1015.8453405001201,1015.8453405001201,1015.8453405001201,1015.8453405001201,1015.8453405001201,1016.1409435002133,1016.1409435002133,1017.2706057000905,1017.2706057000905,1017.2883039000444,1017.2883039000444,1017.2883039000444,1017.2883039000444,1017.2883039000444,1017.2883039000444,1017.2883039000444,1017.2883039000444,1017.2883039000444,1017.2883039000444,1017.2883039000444,1017.2883039000444,1017.2883039000444,1017.2883039000444,1017.2883039000444,1019.7965471001808,1019.7965471001808,1019.7965471001808,1019.7965471001808,1019.7965471001808,31,39,40,20,39,41,3.0,1.412523099919781,1021.2256879000925,1022.9883005002048,,,,,,,,,,103,f,19,2022-11-25_11h03.07.482,RL,2022.2.4,60.400625308598386,
