bandit,trials.thisRepN,trials.thisTrialN,trials.thisN,trials.thisIndex,instru_img1.started,instru_img1.stopped,instru_resp.keys,instru_resp.rt,instru_resp.started,instru_resp.stopped,instru_img2.started,instru_img2.stopped,instru_resp2.keys,instru_resp2.rt,instru_resp2.started,instru_resp2.stopped,fixbefore_2.started,fixbefore_2.stopped,rest_image.started,rest_image.stopped,rest_response.keys,rest_response.started,rest_response.stopped,red.started,red.stopped,green.started,green.stopped,yellow.started,yellow.stopped,blue.started,blue.stopped,choose_bandit.keys,choose_bandit.rt,choose_bandit.started,choose_bandit.stopped,Fixation.started,Fixation.stopped,black.started,black.stopped,red_2.started,red_2.stopped,green_2.started,green_2.stopped,yellow_2.started,yellow_2.stopped,blue_2.started,blue_2.stopped,fixation_2.started,fixation_2.stopped,docs.started,docs.stopped,image_2.started,image_2.stopped,black_com.started,black_com.stopped,reward_sub.started,reward_sub.stopped,palyerb.started,palyerb.stopped,reward__sub.started,reward__sub.stopped,compare.started,compare.stopped,red_compare.started,red_compare.stopped,green_com.started,green_com.stopped,yellow_com.started,yellow_com.stopped,blue_com.started,blue_com.stopped,rewardyellow,rewardred,rewardblue,rewardgreen,subchoose,playerb,image_3.started,image_3.stopped,slider.response,slider.rt,slider.started,slider.stopped,text.started,text.stopped,image_4.started,image_4.stopped,image_5.started,image_5.stopped,bigx.started,bigx.stopped,intertrialfix.started,intertrialfix.stopped,rest_response.rt,image.started,image.stopped,key_resp.keys,key_resp.started,key_resp.stopped,participant,Gender,Age,date,expName,psychopyVersion,frameRate,
,,,,,209.83535480000137,None,space,2.847086000001582,209.83535480000137,None,,,,,,,,,,,,,,,,,,,,,,,,,,,,,,,,,,,,,,,,,,,,,,,,,,,,,,,,,,,,,,,,,,,,,,,,,,,,,,,,,,,,,,,,,,104,f,25,2022_Nov_25_1103,RL,2021.2.3,60.005496505166,
,,,,,,,,,,,212.6993214000031,None,space,5.132969099999173,212.6993214000031,None,,,,,,,,,,,,,,,,,,,,,,,,,,,,,,,,,,,,,,,,,,,,,,,,,,,,,,,,,,,,,,,,,,,,,,,,,,,,,,,,,,,,104,f,25,2022_Nov_25_1103,RL,2021.2.3,60.005496505166,
1,0,0,0,0,,,,,,,,,,,,,217.86189800000284,None,None,None,None,None,None,218.89628960000118,None,218.89628960000118,None,218.89628960000118,None,218.89628960000118,None,f,0.39574989999528043,218.89628960000118,None,218.89628960000118,None,219.3478832000037,None,219.3478832000037,None,219.3478832000037,None,219.3478832000037,None,219.3478832000037,None,219.3478832000037,None,219.63642500000424,220.51968990000023,219.63642500000424,220.51968990000023,220.56934710000496,None,220.56934710000496,None,220.56934710000496,None,220.56934710000496,None,220.56934710000496,None,220.56934710000496,None,220.56934710000496,None,220.56934710000496,None,220.56934710000496,None,67,45,33,57,45,33,223.09259190000012,None,5.0,1.7845398000063142,223.09259190000012,None,223.09259190000012,None,223.09259190000012,None,223.09259190000012,None,None,None,224.91558800000348,None,,,,,,,104,f,25,2022_Nov_25_1103,RL,2021.2.3,60.005496505166,
1,1,0,1,0,,,,,,,,,,,,,,,None,None,None,None,None,226.79517820000183,None,226.79517820000183,None,226.79517820000183,None,226.79517820000183,None,f,0.657298100006301,226.79517820000183,None,226.79517820000183,None,227.49990080000134,None,227.49990080000134,None,227.49990080000134,None,227.49990080000134,None,227.49990080000134,None,227.49990080000134,None,227.77462129999913,229.4421685999987,227.77462129999913,229.4421685999987,229.46708349999972,None,229.46708349999972,None,229.46708349999972,None,229.46708349999972,None,229.46708349999972,None,229.46708349999972,None,229.46708349999972,None,229.46708349999972,None,229.46708349999972,None,65,50,46,66,50,44,231.98455580000154,None,5.0,1.4806328999984544,231.98455580000154,None,231.98455580000154,None,231.98455580000154,None,231.98455580000154,None,None,None,233.4870962999994,None,,,,,,,104,f,25,2022_Nov_25_1103,RL,2021.2.3,60.005496505166,
1,2,0,2,0,,,,,,,,,,,,,,,None,None,None,None,None,235.28288650000468,None,235.28288650000468,None,235.28288650000468,None,235.28288650000468,None,r,0.5192835000052582,235.28288650000468,None,235.28288650000468,None,235.8500286999988,None,235.8500286999988,None,235.8500286999988,None,235.8500286999988,None,235.8500286999988,None,235.8500286999988,None,236.14717029999883,None,236.14717029999883,None,237.70910780000122,None,237.70910780000122,None,237.70910780000122,None,237.70910780000122,None,237.70910780000122,None,237.70910780000122,None,237.70910780000122,None,237.70910780000122,None,237.70910780000122,None,67,55,35,58,67,64,240.2313093000048,None,5.0,1.3002428999971016,240.2313093000048,None,240.2313093000048,None,240.2313093000048,None,240.2313093000048,None,None,None,241.55513800000335,None,,,,,,,104,f,25,2022_Nov_25_1103,RL,2021.2.3,60.005496505166,
1,3,0,3,0,,,,,,,,,,,,,,,None,None,None,None,None,243.42151600000216,None,243.42151600000216,None,243.42151600000216,None,243.42151600000216,None,r,0.42063100000086706,243.42151600000216,None,243.42151600000216,None,243.89083270000265,None,243.89083270000265,None,243.89083270000265,None,243.89083270000265,None,243.89083270000265,None,243.89083270000265,None,244.18607370000245,246.05383280000387,244.18607370000245,246.05383280000387,246.08447320000414,None,246.08447320000414,None,246.08447320000414,None,246.08447320000414,None,246.08447320000414,None,246.08447320000414,None,246.08447320000414,None,246.08447320000414,None,246.08447320000414,None,62,56,27,52,62,68,248.61432900000364,None,3.0,1.6633168000043952,248.61432900000364,None,248.61432900000364,None,248.61432900000364,None,248.61432900000364,None,None,None,250.29909659999976,None,,,,,,,104,f,25,2022_Nov_25_1103,RL,2021.2.3,60.005496505166,
1,4,0,4,0,,,,,,,,,,,,,,,None,None,None,None,None,252.12949500000104,None,252.12949500000104,None,252.12949500000104,None,252.12949500000104,None,f,0.4031948999981978,252.12949500000104,None,252.12949500000104,None,252.58018760000414,None,252.58018760000414,None,252.58018760000414,None,252.58018760000414,None,252.58018760000414,None,252.58018760000414,None,252.87537230000453,None,252.87537230000453,None,253.88291530000424,None,253.88291530000424,None,253.88291530000424,None,253.88291530000424,None,253.88291530000424,None,253.88291530000424,None,253.88291530000424,None,253.88291530000424,None,253.88291530000424,None,66,57,25,54,57,77,256.4084116000013,None,3.0,1.072161199997936,256.4084116000013,None,256.4084116000013,None,256.4084116000013,None,256.4084116000013,None,None,None,257.4960353999995,None,,,,,,,104,f,25,2022_Nov_25_1103,RL,2021.2.3,60.005496505166,
1,5,0,5,0,,,,,,,,,,,,,,,None,None,None,None,None,259.2478775999989,None,259.2478775999989,None,259.2478775999989,None,259.2478775999989,None,i,0.48449069999333005,259.2478775999989,None,259.2478775999989,None,259.77927530000306,None,259.77927530000306,None,259.77927530000306,None,259.77927530000306,None,259.77927530000306,None,259.77927530000306,None,260.0802670000048,None,260.0802670000048,None,261.87654470000416,None,261.87654470000416,None,261.87654470000416,None,261.87654470000416,None,261.87654470000416,None,261.87654470000416,None,261.87654470000416,None,261.87654470000416,None,261.87654470000416,None,61,49,20,59,20,68,264.3963881000018,None,3.0,1.1388703000047826,264.3963881000018,None,264.3963881000018,None,264.3963881000018,None,264.3963881000018,None,None,None,265.5505206000016,None,,,,,,,104,f,25,2022_Nov_25_1103,RL,2021.2.3,60.005496505166,
1,6,0,6,0,,,,,,,,,,,,,,,None,None,None,None,None,267.2698201000021,None,267.2698201000021,None,267.2698201000021,None,267.2698201000021,None,j,0.46266779999859864,267.2698201000021,None,267.2698201000021,None,267.77325280000514,None,267.77325280000514,None,267.77325280000514,None,267.77325280000514,None,267.77325280000514,None,267.77325280000514,None,268.06934940000065,None,268.06934940000065,None,269.90157380000164,None,269.90157380000164,None,269.90157380000164,None,269.90157380000164,None,269.90157380000164,None,269.90157380000164,None,269.90157380000164,None,269.90157380000164,None,269.90157380000164,None,63,61,28,53,53,81,272.4158946000025,None,3.0,1.0214252000005217,272.4158946000025,None,272.4158946000025,None,272.4158946000025,None,272.4158946000025,None,None,None,273.45575649999955,None,,,,,,,104,f,25,2022_Nov_25_1103,RL,2021.2.3,60.005496505166,
1,7,0,7,0,,,,,,,,,,,,,,,None,None,None,None,None,275.3989800999989,None,275.3989800999989,None,275.3989800999989,None,275.3989800999989,None,f,0.3334517999974196,275.3989800999989,None,275.3989800999989,None,275.7826623000001,None,275.7826623000001,None,275.7826623000001,None,275.7826623000001,None,275.7826623000001,None,275.7826623000001,None,276.074930499999,277.01044370000454,276.074930499999,277.01044370000454,277.0376067000034,None,277.0376067000034,None,277.0376067000034,None,277.0376067000034,None,277.0376067000034,None,277.0376067000034,None,277.0376067000034,None,277.0376067000034,None,277.0376067000034,None,68,61,28,54,61,34,279.5612618000014,None,5.0,1.402851399994688,279.5612618000014,None,279.5612618000014,None,279.5612618000014,None,279.5612618000014,None,None,None,280.9814127999998,None,,,,,,,104,f,25,2022_Nov_25_1103,RL,2021.2.3,60.005496505166,
1,8,0,8,0,,,,,,,,,,,,,,,None,None,None,None,None,282.9293312000009,None,282.9293312000009,None,282.9293312000009,None,282.9293312000009,None,f,0.38470869999582646,282.9293312000009,None,282.9293312000009,None,283.3471223000015,None,283.3471223000015,None,283.3471223000015,None,283.3471223000015,None,283.3471223000015,None,283.3471223000015,None,283.6468420000019,None,283.6468420000019,None,284.49398140000267,None,284.49398140000267,None,284.49398140000267,None,284.49398140000267,None,284.49398140000267,None,284.49398140000267,None,284.49398140000267,None,284.49398140000267,None,284.49398140000267,None,69,61,29,65,61,55,287.01265879999846,None,5.0,1.4877552000034484,287.01265879999846,None,287.01265879999846,None,287.01265879999846,None,287.01265879999846,None,None,None,288.5205616000021,None,,,,,,,104,f,25,2022_Nov_25_1103,RL,2021.2.3,60.005496505166,
1,9,0,9,0,,,,,,,,,,,,,,,None,None,None,None,None,290.28650760000164,None,290.28650760000164,None,290.28650760000164,None,290.28650760000164,None,r,0.6470308999996632,290.28650760000164,None,290.28650760000164,None,290.9705893999999,None,290.9705893999999,None,290.9705893999999,None,290.9705893999999,None,290.9705893999999,None,290.9705893999999,None,291.2686074000012,293.1866121999992,291.2686074000012,293.1866121999992,293.21937510000134,None,293.21937510000134,None,293.21937510000134,None,293.21937510000134,None,293.21937510000134,None,293.21937510000134,None,293.21937510000134,None,293.21937510000134,None,293.21937510000134,None,67,64,31,64,67,79,295.73623610000504,None,3.0,2.138459800000419,295.73623610000504,None,295.73623610000504,None,295.73623610000504,None,295.73623610000504,None,None,None,297.8962984000027,None,,,,,,,104,f,25,2022_Nov_25_1103,RL,2021.2.3,60.005496505166,
1,10,0,10,0,,,,,,,,,,,,,,,None,None,None,None,None,299.4824526000011,None,299.4824526000011,None,299.4824526000011,None,299.4824526000011,None,f,0.4017537999970955,299.4824526000011,None,299.4824526000011,None,299.9337581,None,299.9337581,None,299.9337581,None,299.9337581,None,299.9337581,None,299.9337581,None,300.22484120000445,301.99251480000385,300.22484120000445,301.99251480000385,302.0181733999998,None,302.0181733999998,None,302.0181733999998,None,302.0181733999998,None,302.0181733999998,None,302.0181733999998,None,302.0181733999998,None,302.0181733999998,None,302.0181733999998,None,63,66,35,68,66,83,304.5372181999992,None,3.0,1.0906820999953197,304.5372181999992,None,304.5372181999992,None,304.5372181999992,None,304.5372181999992,None,None,None,305.644921799998,None,,,,,,,104,f,25,2022_Nov_25_1103,RL,2021.2.3,60.005496505166,
1,11,0,11,0,,,,,,,,,,,,,,,None,None,None,None,None,307.433741300003,None,307.433741300003,None,307.433741300003,None,307.433741300003,None,i,0.49988059999304824,307.433741300003,None,307.433741300003,None,307.97999070000515,None,307.97999070000515,None,307.97999070000515,None,307.97999070000515,None,307.97999070000515,None,307.97999070000515,None,308.2637567999991,309.5313920000044,308.2637567999991,309.5313920000044,309.5678121000019,None,309.5678121000019,None,309.5678121000019,None,309.5678121000019,None,309.5678121000019,None,309.5678121000019,None,309.5678121000019,None,309.5678121000019,None,309.5678121000019,None,78,57,31,62,31,84,312.09435099999973,None,3.0,1.1067431999981636,312.09435099999973,None,312.09435099999973,None,312.09435099999973,None,312.09435099999973,None,None,None,313.2197637999998,None,,,,,,,104,f,25,2022_Nov_25_1103,RL,2021.2.3,60.005496505166,
1,12,0,12,0,,,,,,,,,,,,,,,None,None,None,None,None,314.88479070000176,None,314.88479070000176,None,314.88479070000176,None,314.88479070000176,None,j,0.9391222000049311,314.88479070000176,None,314.88479070000176,None,315.87538340000174,None,315.87538340000174,None,315.87538340000174,None,315.87538340000174,None,315.87538340000174,None,315.87538340000174,None,316.16937080000207,None,316.16937080000207,None,317.1186677000005,None,317.1186677000005,None,317.1186677000005,None,317.1186677000005,None,317.1186677000005,None,317.1186677000005,None,317.1186677000005,None,317.1186677000005,None,317.1186677000005,None,70,58,26,66,66,54,319.6466739000025,None,5.0,1.6490407999954186,319.6466739000025,None,319.6466739000025,None,319.6466739000025,None,319.6466739000025,None,None,None,321.30586340000445,None,,,,,,,104,f,25,2022_Nov_25_1103,RL,2021.2.3,60.005496505166,
1,13,0,13,0,,,,,,,,,,,,,,,None,None,None,None,None,323.27917210000305,None,323.27917210000305,None,323.27917210000305,None,323.27917210000305,None,f,0.8948928000027081,323.27917210000305,None,323.27917210000305,None,324.21604740000475,None,324.21604740000475,None,324.21604740000475,None,324.21604740000475,None,324.21604740000475,None,324.21604740000475,None,324.4918947000042,325.82592509999813,324.4918947000042,325.82592509999813,325.861278700002,None,325.861278700002,None,325.861278700002,None,325.861278700002,None,325.861278700002,None,325.861278700002,None,325.861278700002,None,325.861278700002,None,325.861278700002,None,71,59,33,60,59,80,328.38535770000453,None,3.0,1.5096290000001318,328.38535770000453,None,328.38535770000453,None,328.38535770000453,None,328.38535770000453,None,None,None,329.9134242,None,,,,,,,104,f,25,2022_Nov_25_1103,RL,2021.2.3,60.005496505166,
1,14,0,14,0,,,,,,,,,,,,,,,None,None,None,None,None,331.715689800003,None,331.715689800003,None,331.715689800003,None,331.715689800003,None,r,0.47809789999882923,331.715689800003,None,331.715689800003,None,332.2382149000041,None,332.2382149000041,None,332.2382149000041,None,332.2382149000041,None,332.2382149000041,None,332.2382149000041,None,332.5306849000044,None,332.5306849000044,None,334.50318540000444,None,334.50318540000444,None,334.50318540000444,None,334.50318540000444,None,334.50318540000444,None,334.50318540000444,None,334.50318540000444,None,334.50318540000444,None,334.50318540000444,None,70,66,37,63,70,47,337.02517710000393,None,5.0,1.5757613000023412,337.02517710000393,None,337.02517710000393,None,337.02517710000393,None,337.02517710000393,None,None,None,338.62405690000014,None,,,,,,,104,f,25,2022_Nov_25_1103,RL,2021.2.3,60.005496505166,
1,15,0,15,0,,,,,,,,,,,,,,,None,None,None,None,None,340.5025487000021,None,340.5025487000021,None,340.5025487000021,None,340.5025487000021,None,r,0.48142879999795696,340.5025487000021,None,340.5025487000021,None,341.02555500000017,None,341.02555500000017,None,341.02555500000017,None,341.02555500000017,None,341.02555500000017,None,341.02555500000017,None,341.32000510000216,343.2054528000008,341.32000510000216,343.2054528000008,343.2334942000016,None,343.2334942000016,None,343.2334942000016,None,343.2334942000016,None,343.2334942000016,None,343.2334942000016,None,343.2334942000016,None,343.2334942000016,None,343.2334942000016,None,77,62,31,65,77,80,345.7613044000027,None,4.0,1.4126334999964456,345.7613044000027,None,345.7613044000027,None,345.7613044000027,None,345.7613044000027,None,None,None,347.1959751000031,None,,,,,,,104,f,25,2022_Nov_25_1103,RL,2021.2.3,60.005496505166,
1,16,0,16,0,,,,,,,,,,,,,,,None,None,None,None,None,349.1781390000033,None,349.1781390000033,None,349.1781390000033,None,349.1781390000033,None,r,0.5452009000000544,349.1781390000033,None,349.1781390000033,None,349.7585055000018,None,349.7585055000018,None,349.7585055000018,None,349.7585055000018,None,349.7585055000018,None,349.7585055000018,None,350.04267000000254,351.6604554000005,350.04267000000254,351.6604554000005,351.6987156000032,None,351.6987156000032,None,351.6987156000032,None,351.6987156000032,None,351.6987156000032,None,351.6987156000032,None,351.6987156000032,None,351.6987156000032,None,351.6987156000032,None,62,60,37,53,62,67,354.22775040000124,None,4.0,1.2159128000057535,354.22775040000124,None,354.22775040000124,None,354.22775040000124,None,354.22775040000124,None,None,None,355.4627924000015,None,,,,,,,104,f,25,2022_Nov_25_1103,RL,2021.2.3,60.005496505166,
1,17,0,17,0,,,,,,,,,,,,,,,None,None,None,None,None,357.2179372000028,None,357.2179372000028,None,357.2179372000028,None,357.2179372000028,None,f,0.40640990000247257,357.2179372000028,None,357.2179372000028,None,357.666426900003,None,357.666426900003,None,357.666426900003,None,357.666426900003,None,357.666426900003,None,357.666426900003,None,357.96649310000066,None,357.96649310000066,None,358.83262330000434,None,358.83262330000434,None,358.83262330000434,None,358.83262330000434,None,358.83262330000434,None,358.83262330000434,None,358.83262330000434,None,358.83262330000434,None,358.83262330000434,None,76,72,45,65,72,64,361.34816980000323,None,5.0,1.4378275999988546,361.34816980000323,None,361.34816980000323,None,361.34816980000323,None,361.34816980000323,None,None,None,362.8011082000012,None,,,,,,,104,f,25,2022_Nov_25_1103,RL,2021.2.3,60.005496505166,
1,18,0,18,0,,,,,,,,,,,,,,,None,None,None,None,None,364.4523251999999,None,364.4523251999999,None,364.4523251999999,None,364.4523251999999,None,f,0.5219327000013436,364.4523251999999,None,364.4523251999999,None,365.01972620000015,None,365.01972620000015,None,365.01972620000015,None,365.01972620000015,None,365.01972620000015,None,365.01972620000015,None,365.3200094999993,None,365.3200094999993,None,366.3062581999984,None,366.3062581999984,None,366.3062581999984,None,366.3062581999984,None,366.3062581999984,None,366.3062581999984,None,366.3062581999984,None,366.3062581999984,None,366.3062581999984,None,69,59,46,69,59,60,368.82000990000233,None,4.0,1.5176075999988825,368.82000990000233,None,368.82000990000233,None,368.82000990000233,None,368.82000990000233,None,None,None,370.357940599999,None,,,,,,,104,f,25,2022_Nov_25_1103,RL,2021.2.3,60.005496505166,
1,19,0,19,0,,,,,,,,,,,,,,,None,None,None,None,None,372.22706990000006,None,372.22706990000006,None,372.22706990000006,None,372.22706990000006,None,f,0.35710609999659937,372.22706990000006,None,372.22706990000006,None,372.62933090000297,None,372.62933090000297,None,372.62933090000297,None,372.62933090000297,None,372.62933090000297,None,372.62933090000297,None,372.9256286000018,373.95921530000487,372.9256286000018,373.95921530000487,374.00903059999837,None,374.00903059999837,None,374.00903059999837,None,374.00903059999837,None,374.00903059999837,None,374.00903059999837,None,374.00903059999837,None,374.00903059999837,None,374.00903059999837,None,61,63,48,63,63,85,376.51595780000207,None,3.0,0.6285776000004262,376.51595780000207,None,376.51595780000207,None,376.51595780000207,None,376.51595780000207,None,None,None,377.16391860000294,None,,,,,,,104,f,25,2022_Nov_25_1103,RL,2021.2.3,60.005496505166,
1,20,0,20,0,,,,,,,,,,,,,,,None,None,None,None,None,379.06678600000305,None,379.06678600000305,None,379.06678600000305,None,379.06678600000305,None,r,0.32721379999566125,379.06678600000305,None,379.06678600000305,None,379.437577100005,None,379.437577100005,None,379.437577100005,None,379.437577100005,None,379.437577100005,None,379.437577100005,None,379.7302229000052,381.61457950000477,379.7302229000052,381.61457950000477,381.6516292000015,None,381.6516292000015,None,381.6516292000015,None,381.6516292000015,None,381.6516292000015,None,381.6516292000015,None,381.6516292000015,None,381.6516292000015,None,381.6516292000015,None,68,68,44,59,68,91,384.1592843000035,None,3.0,1.4081876000054763,384.1592843000035,None,384.1592843000035,None,384.1592843000035,None,384.1592843000035,None,None,None,385.5895240000027,None,,,,,,,104,f,25,2022_Nov_25_1103,RL,2021.2.3,60.005496505166,
1,21,0,21,0,,,,,,,,,,,,,,,None,None,None,None,None,387.47306319999916,None,387.47306319999916,None,387.47306319999916,None,387.47306319999916,None,i,0.7911677000010968,387.47306319999916,None,387.47306319999916,None,388.3110377999983,None,388.3110377999983,None,388.3110377999983,None,388.3110377999983,None,388.3110377999983,None,388.3110377999983,None,388.60282200000074,None,388.60282200000074,None,389.97174639999866,None,389.97174639999866,None,389.97174639999866,None,389.97174639999866,None,389.97174639999866,None,389.97174639999866,None,389.97174639999866,None,389.97174639999866,None,389.97174639999866,None,71,77,42,66,42,87,392.4888898999998,None,3.0,2.0203926999965915,392.4888898999998,None,392.4888898999998,None,392.4888898999998,None,392.4888898999998,None,None,None,394.52376789999835,None,,,,,,,104,f,25,2022_Nov_25_1103,RL,2021.2.3,60.005496505166,
1,22,0,22,0,,,,,,,,,,,,,,,None,None,None,None,None,396.5080902000045,None,396.5080902000045,None,396.5080902000045,None,396.5080902000045,None,j,0.5557297999985167,396.5080902000045,None,396.5080902000045,None,397.10890220000147,None,397.10890220000147,None,397.10890220000147,None,397.10890220000147,None,397.10890220000147,None,397.10890220000147,None,397.4088428000032,None,397.4088428000032,None,398.8914292000045,None,398.8914292000045,None,398.8914292000045,None,398.8914292000045,None,398.8914292000045,None,398.8914292000045,None,398.8914292000045,None,398.8914292000045,None,398.8914292000045,None,63,67,45,62,62,27,401.41399300000194,None,5.0,1.74687090000225,401.41399300000194,None,401.41399300000194,None,401.41399300000194,None,401.41399300000194,None,None,None,403.18043410000246,None,,,,,,,104,f,25,2022_Nov_25_1103,RL,2021.2.3,60.005496505166,
1,23,0,23,0,,,,,,,,,,,,,,,None,None,None,None,None,405.1678294000012,None,405.1678294000012,None,405.1678294000012,None,405.1678294000012,None,f,0.6064744999966933,405.1678294000012,None,405.1678294000012,None,405.81983780000155,None,405.81983780000155,None,405.81983780000155,None,405.81983780000155,None,405.81983780000155,None,405.81983780000155,None,406.1158743000051,None,406.1158743000051,None,407.31206660000316,None,407.31206660000316,None,407.31206660000316,None,407.31206660000316,None,407.31206660000316,None,407.31206660000316,None,407.31206660000316,None,407.31206660000316,None,407.31206660000316,None,60,71,51,64,71,90,409.826968500005,None,3.0,1.4946417000028305,409.826968500005,None,409.826968500005,None,409.826968500005,None,409.826968500005,None,None,None,411.34802630000195,None,,,,,,,104,f,25,2022_Nov_25_1103,RL,2021.2.3,60.005496505166,
1,24,0,24,0,,,,,,,,,,,,,,,None,None,None,None,None,413.14190619999863,None,413.14190619999863,None,413.14190619999863,None,413.14190619999863,None,j,0.49237349999748403,413.14190619999863,None,413.14190619999863,None,413.6756777999981,None,413.6756777999981,None,413.6756777999981,None,413.6756777999981,None,413.6756777999981,None,413.6756777999981,None,413.97047040000325,None,413.97047040000325,None,415.46622700000444,None,415.46622700000444,None,415.46622700000444,None,415.46622700000444,None,415.46622700000444,None,415.46622700000444,None,415.46622700000444,None,415.46622700000444,None,415.46622700000444,None,65,70,39,58,58,99,417.9833226999981,None,3.0,1.791023600002518,417.9833226999981,None,417.9833226999981,None,417.9833226999981,None,417.9833226999981,None,None,None,419.8015688000014,None,,,,,,,104,f,25,2022_Nov_25_1103,RL,2021.2.3,60.005496505166,
1,25,0,25,0,,,,,,,,,,,,,,,None,None,None,None,None,421.7951275000014,None,421.7951275000014,None,421.7951275000014,None,421.7951275000014,None,f,0.7195159999973839,421.7951275000014,None,421.7951275000014,None,422.5652667000031,None,422.5652667000031,None,422.5652667000031,None,422.5652667000031,None,422.5652667000031,None,422.5652667000031,None,422.85993379999854,None,422.85993379999854,None,424.82849830000487,None,424.82849830000487,None,424.82849830000487,None,424.82849830000487,None,424.82849830000487,None,424.82849830000487,None,424.82849830000487,None,424.82849830000487,None,424.82849830000487,None,73,70,33,58,70,63,427.34021190000203,None,4.0,0.8570881000050576,427.34021190000203,None,427.34021190000203,None,427.34021190000203,None,427.34021190000203,None,None,None,428.21919750000234,None,,,,,,,104,f,25,2022_Nov_25_1103,RL,2021.2.3,60.005496505166,
1,26,0,26,0,,,,,,,,,,,,,,,None,None,None,None,None,429.95050849999825,None,429.95050849999825,None,429.95050849999825,None,429.95050849999825,None,None,,429.95050849999825,None,429.95050849999825,None,None,None,None,None,None,None,None,None,None,None,None,None,None,None,None,None,None,None,None,None,None,None,None,None,None,None,None,None,None,None,None,None,None,None,61,67,44,55,0,**,None,None,None,None,None,None,None,None,None,None,None,None,431.5119096999988,None,436.01864919999935,None,,,,,,,104,f,25,2022_Nov_25_1103,RL,2021.2.3,60.005496505166,
1,27,0,27,0,,,,,,,,,,,,,,,None,None,None,None,None,437.76120380000066,None,437.76120380000066,None,437.76120380000066,None,437.76120380000066,None,f,0.31306079999922076,437.76120380000066,None,437.76120380000066,None,438.12449560000096,None,438.12449560000096,None,438.12449560000096,None,438.12449560000096,None,438.12449560000096,None,438.12449560000096,None,438.42048929999874,439.25443559999985,438.42048929999874,439.25443559999985,439.2874503999992,None,439.2874503999992,None,439.2874503999992,None,439.2874503999992,None,439.2874503999992,None,439.2874503999992,None,439.2874503999992,None,439.2874503999992,None,439.2874503999992,None,62,63,39,65,63,91,441.81087610000395,None,3.0,1.1602739999943879,441.81087610000395,None,441.81087610000395,None,441.81087610000395,None,441.81087610000395,None,None,None,442.9896757000024,None,,,,,,,104,f,25,2022_Nov_25_1103,RL,2021.2.3,60.005496505166,
1,28,0,28,0,,,,,,,,,,,,,,,None,None,None,None,None,444.67898109999805,None,444.67898109999805,None,444.67898109999805,None,444.67898109999805,None,f,0.3652176999967196,444.67898109999805,None,444.67898109999805,None,445.10915000000386,None,445.10915000000386,None,445.10915000000386,None,445.10915000000386,None,445.10915000000386,None,445.10915000000386,None,445.3919653000048,446.4261194999999,445.3919653000048,446.4261194999999,446.45042739999917,None,446.45042739999917,None,446.45042739999917,None,446.45042739999917,None,446.45042739999917,None,446.45042739999917,None,446.45042739999917,None,446.45042739999917,None,446.45042739999917,None,61,63,40,61,63,90,448.9790963999985,None,3.0,0.7327551000053063,448.9790963999985,None,448.9790963999985,None,448.9790963999985,None,448.9790963999985,None,None,None,449.74651399999857,None,,,,,,,104,f,25,2022_Nov_25_1103,RL,2021.2.3,60.005496505166,
1,29,0,29,0,,,,,,,,,,,,,,,None,None,None,None,None,451.314976499998,None,451.314976499998,None,451.314976499998,None,451.314976499998,None,j,0.3695642000020598,451.314976499998,None,451.314976499998,None,451.7341921000043,None,451.7341921000043,None,451.7341921000043,None,451.7341921000043,None,451.7341921000043,None,451.7341921000043,None,452.0301854999998,None,452.0301854999998,None,453.64770339999814,None,453.64770339999814,None,453.64770339999814,None,453.64770339999814,None,453.64770339999814,None,453.64770339999814,None,453.64770339999814,None,453.64770339999814,None,453.64770339999814,None,65,58,47,60,60,94,456.16341470000043,None,3.0,1.7713841000004322,456.16341470000043,None,456.16341470000043,None,456.16341470000043,None,456.16341470000043,None,None,None,457.9506584000046,None,,,,,,,104,f,25,2022_Nov_25_1103,RL,2021.2.3,60.005496505166,
1,30,0,30,0,,,,,,,,,,,,,,,None,None,None,None,None,459.52130690000195,None,459.52130690000195,None,459.52130690000195,None,459.52130690000195,None,f,0.5040871000019251,459.52130690000195,None,459.52130690000195,None,460.0758816000016,None,460.0758816000016,None,460.0758816000016,None,460.0758816000016,None,460.0758816000016,None,460.0758816000016,None,460.3526617000025,461.73683580000215,460.3526617000025,461.73683580000215,461.7810726000025,None,461.7810726000025,None,461.7810726000025,None,461.7810726000025,None,461.7810726000025,None,461.7810726000025,None,461.7810726000025,None,461.7810726000025,None,461.7810726000025,None,56,60,44,58,60,90,464.3029156000048,None,3.0,0.8015641000019968,464.3029156000048,None,464.3029156000048,None,464.3029156000048,None,464.3029156000048,None,None,None,465.1222462000005,None,,,,,,,104,f,25,2022_Nov_25_1103,RL,2021.2.3,60.005496505166,
1,31,0,31,0,,,,,,,,,,,,,,,None,None,None,None,None,467.09035340000264,None,467.09035340000264,None,467.09035340000264,None,467.09035340000264,None,j,0.8653463999944506,467.09035340000264,None,467.09035340000264,None,467.99736069999926,None,467.99736069999926,None,467.99736069999926,None,467.99736069999926,None,467.99736069999926,None,467.99736069999926,None,468.29144290000113,469.4421003000025,468.29144290000113,469.4421003000025,469.4740638000003,None,469.4740638000003,None,469.4740638000003,None,469.4740638000003,None,469.4740638000003,None,469.4740638000003,None,469.4740638000003,None,469.4740638000003,None,469.4740638000003,None,52,59,45,48,48,89,471.9897153999991,None,3.0,0.7916763999965042,471.9897153999991,None,471.9897153999991,None,471.9897153999991,None,471.9897153999991,None,None,None,472.79438749999827,None,,,,,,,104,f,25,2022_Nov_25_1103,RL,2021.2.3,60.005496505166,
1,32,0,32,0,,,,,,,,,,,,,,,None,None,None,None,None,474.76252340000065,None,474.76252340000065,None,474.76252340000065,None,474.76252340000065,None,i,0.36319010000443086,474.76252340000065,None,474.76252340000065,None,475.174064800005,None,475.174064800005,None,475.174064800005,None,475.174064800005,None,475.174064800005,None,475.174064800005,None,475.46297739999864,None,475.46297739999864,None,476.8378911000036,None,476.8378911000036,None,476.8378911000036,None,476.8378911000036,None,476.8378911000036,None,476.8378911000036,None,476.8378911000036,None,476.8378911000036,None,476.8378911000036,None,56,66,42,51,42,94,479.3588146000038,None,3.0,1.2059536000015214,479.3588146000038,None,479.3588146000038,None,479.3588146000038,None,479.3588146000038,None,None,None,480.589710500004,None,,,,,,,104,f,25,2022_Nov_25_1103,RL,2021.2.3,60.005496505166,
1,33,0,33,0,,,,,,,,,,,,,,,None,None,None,None,None,482.4888662000012,None,482.4888662000012,None,482.4888662000012,None,482.4888662000012,None,i,0.31674809999822173,482.4888662000012,None,482.4888662000012,None,482.8550157999998,None,482.8550157999998,None,482.8550157999998,None,482.8550157999998,None,482.8550157999998,None,482.8550157999998,None,483.15158679999877,484.75286179999966,483.15158679999877,484.75286179999966,484.78204180000466,None,484.78204180000466,None,484.78204180000466,None,484.78204180000466,None,484.78204180000466,None,484.78204180000466,None,484.78204180000466,None,484.78204180000466,None,484.78204180000466,None,59,63,44,46,44,92,487.3146173999994,None,3.0,1.9406205999985104,487.3146173999994,None,487.3146173999994,None,487.3146173999994,None,487.3146173999994,None,None,None,489.2733754000001,None,,,,,,,104,f,25,2022_Nov_25_1103,RL,2021.2.3,60.005496505166,
1,34,0,34,0,,,,,,,,,,,,,,,None,None,None,None,None,491.103789300003,None,491.103789300003,None,491.103789300003,None,491.103789300003,None,i,0.3121032999988529,491.103789300003,None,491.103789300003,None,491.46724520000134,None,491.46724520000134,None,491.46724520000134,None,491.46724520000134,None,491.46724520000134,None,491.46724520000134,None,491.75766860000294,None,491.75766860000294,None,493.07846390000486,None,493.07846390000486,None,493.07846390000486,None,493.07846390000486,None,493.07846390000486,None,493.07846390000486,None,493.07846390000486,None,493.07846390000486,None,493.07846390000486,None,55,67,47,50,47,87,495.609083299998,None,3.0,1.3538661999991746,495.609083299998,None,495.609083299998,None,495.609083299998,None,495.609083299998,None,None,None,496.99965910000174,None,,,,,,,104,f,25,2022_Nov_25_1103,RL,2021.2.3,60.005496505166,
1,35,0,35,0,,,,,,,,,,,,,,,None,None,None,None,None,498.6652605999989,None,498.6652605999989,None,498.6652605999989,None,498.6652605999989,None,f,0.36093110000365414,498.6652605999989,None,498.6652605999989,None,499.07392139999865,None,499.07392139999865,None,499.07392139999865,None,499.07392139999865,None,499.07392139999865,None,499.07392139999865,None,499.3630182000052,None,499.3630182000052,None,500.87419450000016,None,500.87419450000016,None,500.87419450000016,None,500.87419450000016,None,500.87419450000016,None,500.87419450000016,None,500.87419450000016,None,500.87419450000016,None,500.87419450000016,None,64,67,46,49,67,81,503.3941969000007,None,3.0,1.0079427000018768,503.3941969000007,None,503.3941969000007,None,503.3941969000007,None,503.3941969000007,None,None,None,504.4416543000043,None,,,,,,,104,f,25,2022_Nov_25_1103,RL,2021.2.3,60.005496505166,
1,36,0,36,0,,,,,,,,,,,,,,,None,None,None,None,None,506.30414060000476,None,506.30414060000476,None,506.30414060000476,None,506.30414060000476,None,r,0.33192249999410706,506.30414060000476,None,506.30414060000476,None,506.69567480000114,None,506.69567480000114,None,506.69567480000114,None,506.69567480000114,None,506.69567480000114,None,506.69567480000114,None,506.98487690000184,508.46914030000335,506.98487690000184,508.46914030000335,508.4997108000025,None,508.4997108000025,None,508.4997108000025,None,508.4997108000025,None,508.4997108000025,None,508.4997108000025,None,508.4997108000025,None,508.4997108000025,None,508.4997108000025,None,71,65,41,47,71,80,511.01714780000475,None,3.0,1.0251478999998653,511.01714780000475,None,511.01714780000475,None,511.01714780000475,None,511.01714780000475,None,None,None,512.0556072000036,None,,,,,,,104,f,25,2022_Nov_25_1103,RL,2021.2.3,60.005496505166,
1,37,0,37,0,,,,,,,,,,,,,,,None,None,None,None,None,513.7923561999996,None,513.7923561999996,None,513.7923561999996,None,513.7923561999996,None,r,0.3431653000006918,513.7923561999996,None,513.7923561999996,None,514.1723350000029,None,514.1723350000029,None,514.1723350000029,None,514.1723350000029,None,514.1723350000029,None,514.1723350000029,None,514.4569594999994,516.1077570999987,514.4569594999994,516.1077570999987,516.1395570000022,None,516.1395570000022,None,516.1395570000022,None,516.1395570000022,None,516.1395570000022,None,516.1395570000022,None,516.1395570000022,None,516.1395570000022,None,516.1395570000022,None,63,70,47,45,63,79,518.6508203000049,None,3.0,1.0415088000008836,518.6508203000049,None,518.6508203000049,None,518.6508203000049,None,518.6508203000049,None,None,None,519.7141300000003,None,,,,,,,104,f,25,2022_Nov_25_1103,RL,2021.2.3,60.005496505166,
1,38,0,38,0,,,,,,,,,,,,,,,None,None,None,None,None,521.4461120000051,None,521.4461120000051,None,521.4461120000051,None,521.4461120000051,None,f,0.36983939999481663,521.4461120000051,None,521.4461120000051,None,521.8662985999981,None,521.8662985999981,None,521.8662985999981,None,521.8662985999981,None,521.8662985999981,None,521.8662985999981,None,522.1620232999994,None,522.1620232999994,None,523.8023153000031,None,523.8023153000031,None,523.8023153000031,None,523.8023153000031,None,523.8023153000031,None,523.8023153000031,None,523.8023153000031,None,523.8023153000031,None,523.8023153000031,None,66,75,57,42,75,57,526.3258631999997,None,5.0,0.9582302999988315,526.3258631999997,None,526.3258631999997,None,526.3258631999997,None,526.3258631999997,None,None,None,527.3017080999998,None,,,,,,,104,f,25,2022_Nov_25_1103,RL,2021.2.3,60.005496505166,
1,39,0,39,0,,,,,,,,,,,,,,,None,None,None,None,None,528.986487400005,None,528.986487400005,None,528.986487400005,None,528.986487400005,None,j,0.43983189999562455,528.986487400005,None,528.986487400005,None,529.4681692000013,None,529.4681692000013,None,529.4681692000013,None,529.4681692000013,None,529.4681692000013,None,529.4681692000013,None,529.7672898000019,None,529.7672898000019,None,531.1472802999997,None,531.1472802999997,None,531.1472802999997,None,531.1472802999997,None,531.1472802999997,None,531.1472802999997,None,531.1472802999997,None,531.1472802999997,None,531.1472802999997,None,65,77,52,50,50,79,533.6756048000025,None,3.0,0.945685599996068,533.6756048000025,None,533.6756048000025,None,533.6756048000025,None,533.6756048000025,None,None,None,534.6379520999981,None,,,,,,,104,f,25,2022_Nov_25_1103,RL,2021.2.3,60.005496505166,
1,40,0,40,0,,,,,,,,,,,,,,,None,None,None,None,None,536.2077275000047,None,536.2077275000047,None,536.2077275000047,None,536.2077275000047,None,f,0.5380242000028375,536.2077275000047,None,536.2077275000047,None,536.7936646000016,None,536.7936646000016,None,536.7936646000016,None,536.7936646000016,None,536.7936646000016,None,536.7936646000016,None,537.0895074,None,537.0895074,None,538.9532946000036,None,538.9532946000036,None,538.9532946000036,None,538.9532946000036,None,538.9532946000036,None,538.9532946000036,None,538.9532946000036,None,538.9532946000036,None,538.9532946000036,None,62,79,55,41,79,52,541.4790743999984,None,5.0,1.5868161000034888,541.4790743999984,None,541.4790743999984,None,541.4790743999984,None,541.4790743999984,None,None,None,543.0848994000044,None,,,,,,,104,f,25,2022_Nov_25_1103,RL,2021.2.3,60.005496505166,
1,41,0,41,0,,,,,,,,,,,,,,,None,None,None,None,None,544.7809861999995,None,544.7809861999995,None,544.7809861999995,None,544.7809861999995,None,r,0.38507509999908507,544.7809861999995,None,544.7809861999995,None,545.2160282000041,None,545.2160282000041,None,545.2160282000041,None,545.2160282000041,None,545.2160282000041,None,545.2160282000041,None,545.511508800002,546.7290184000012,545.511508800002,546.7290184000012,546.7621762999988,None,546.7621762999988,None,546.7621762999988,None,546.7621762999988,None,546.7621762999988,None,546.7621762999988,None,546.7621762999988,None,546.7621762999988,None,546.7621762999988,None,63,88,53,49,63,55,549.2807794000037,None,5.0,1.3002263000016683,549.2807794000037,None,549.2807794000037,None,549.2807794000037,None,549.2807794000037,None,None,None,550.5979369999986,None,,,,,,,104,f,25,2022_Nov_25_1103,RL,2021.2.3,60.005496505166,
1,42,0,42,0,,,,,,,,,,,,,,,None,None,None,None,None,552.5562007000044,None,552.5562007000044,None,552.5562007000044,None,552.5562007000044,None,r,0.400009000004502,552.5562007000044,None,552.5562007000044,None,553.0038835000014,None,553.0038835000014,None,553.0038835000014,None,553.0038835000014,None,553.0038835000014,None,553.0038835000014,None,553.300261000004,None,553.300261000004,None,554.1522403999988,None,554.1522403999988,None,554.1522403999988,None,554.1522403999988,None,554.1522403999988,None,554.1522403999988,None,554.1522403999988,None,554.1522403999988,None,554.1522403999988,None,68,79,42,47,68,68,556.6686857000022,None,4.0,0.686924599998747,556.6686857000022,None,556.6686857000022,None,556.6686857000022,None,556.6686857000022,None,None,None,557.379345500005,None,,,,,,,104,f,25,2022_Nov_25_1103,RL,2021.2.3,60.005496505166,
1,43,0,43,0,,,,,,,,,,,,,,,None,None,None,None,None,559.3234561999998,None,559.3234561999998,None,559.3234561999998,None,559.3234561999998,None,f,0.30267539999476867,559.3234561999998,None,559.3234561999998,None,559.6766839000047,None,559.6766839000047,None,559.6766839000047,None,559.6766839000047,None,559.6766839000047,None,559.6766839000047,None,559.9715534999996,None,559.9715534999996,None,561.6378104000032,None,561.6378104000032,None,561.6378104000032,None,561.6378104000032,None,561.6378104000032,None,561.6378104000032,None,561.6378104000032,None,561.6378104000032,None,561.6378104000032,None,71,82,45,57,82,73,564.1488323000012,None,5.0,0.8947317999991355,564.1488323000012,None,564.1488323000012,None,564.1488323000012,None,564.1488323000012,None,None,None,565.0630354000023,None,,,,,,,104,f,25,2022_Nov_25_1103,RL,2021.2.3,60.005496505166,
1,44,0,44,0,,,,,,,,,,,,,,,None,None,None,None,None,566.7400047000046,None,566.7400047000046,None,566.7400047000046,None,566.7400047000046,None,r,0.3763955999966129,566.7400047000046,None,566.7400047000046,None,567.1603199000019,None,567.1603199000019,None,567.1603199000019,None,567.1603199000019,None,567.1603199000019,None,567.1603199000019,None,567.4602176000044,None,567.4602176000044,None,568.9413118000011,None,568.9413118000011,None,568.9413118000011,None,568.9413118000011,None,568.9413118000011,None,568.9413118000011,None,568.9413118000011,None,568.9413118000011,None,568.9413118000011,None,65,79,47,53,65,41,571.4681678999987,None,5.0,1.1813828000013018,571.4681678999987,None,571.4681678999987,None,571.4681678999987,None,571.4681678999987,None,None,None,572.6642667000051,None,,,,,,,104,f,25,2022_Nov_25_1103,RL,2021.2.3,60.005496505166,
1,45,0,45,0,,,,,,,,,,,,,,,None,None,None,None,None,574.3868464000043,None,574.3868464000043,None,574.3868464000043,None,574.3868464000043,None,r,0.34890110000560526,574.3868464000043,None,574.3868464000043,None,574.7832502000019,None,574.7832502000019,None,574.7832502000019,None,574.7832502000019,None,574.7832502000019,None,574.7832502000019,None,575.082072199999,None,575.082072199999,None,576.0441890000002,None,576.0441890000002,None,576.0441890000002,None,576.0441890000002,None,576.0441890000002,None,576.0441890000002,None,576.0441890000002,None,576.0441890000002,None,576.0441890000002,None,71,81,36,50,71,70,578.5745506000021,None,4.0,0.5272724999958882,578.5745506000021,None,578.5745506000021,None,578.5745506000021,None,578.5745506000021,None,None,None,579.1193802999987,None,,,,,,,104,f,25,2022_Nov_25_1103,RL,2021.2.3,60.005496505166,
1,46,0,46,0,,,,,,,,,,,,,,,None,None,None,None,None,581.1050615999993,None,581.1050615999993,None,581.1050615999993,None,581.1050615999993,None,f,0.34125979999953415,581.1050615999993,None,581.1050615999993,None,581.4918078000046,None,581.4918078000046,None,581.4918078000046,None,581.4918078000046,None,581.4918078000046,None,581.4918078000046,None,581.787330500003,None,581.787330500003,None,583.2231567999988,None,583.2231567999988,None,583.2231567999988,None,583.2231567999988,None,583.2231567999988,None,583.2231567999988,None,583.2231567999988,None,583.2231567999988,None,583.2231567999988,None,70,84,46,54,84,72,585.7362456999981,None,5.0,1.1213916999986395,585.7362456999981,None,585.7362456999981,None,585.7362456999981,None,585.7362456999981,None,None,None,586.8790813000014,None,,,,,,,104,f,25,2022_Nov_25_1103,RL,2021.2.3,60.005496505166,
1,47,0,47,0,,,,,,,,,,,,,,,None,None,None,None,None,588.5419273000007,None,588.5419273000007,None,588.5419273000007,None,588.5419273000007,None,r,0.6345232000021497,588.5419273000007,None,588.5419273000007,None,589.2148579999994,None,589.2148579999994,None,589.2148579999994,None,589.2148579999994,None,589.2148579999994,None,589.2148579999994,None,589.5090120000023,None,589.5090120000023,None,591.3983289000025,None,591.3983289000025,None,591.3983289000025,None,591.3983289000025,None,591.3983289000025,None,591.3983289000025,None,591.3983289000025,None,591.3983289000025,None,591.3983289000025,None,76,83,48,45,76,65,593.9272666000033,None,5.0,1.4713549000007333,593.9272666000033,None,593.9272666000033,None,593.9272666000033,None,593.9272666000033,None,None,None,595.4207163000028,None,,,,,,,104,f,25,2022_Nov_25_1103,RL,2021.2.3,60.005496505166,
1,48,0,48,0,,,,,,,,,,,,,,,None,None,None,None,None,597.2804442000051,None,597.2804442000051,None,597.2804442000051,None,597.2804442000051,None,r,0.3658687999995891,597.2804442000051,None,597.2804442000051,None,597.6910904000033,None,597.6910904000033,None,597.6910904000033,None,597.6910904000033,None,597.6910904000033,None,597.6910904000033,None,597.9814044000013,None,597.9814044000013,None,598.9958421000047,None,598.9958421000047,None,598.9958421000047,None,598.9958421000047,None,598.9958421000047,None,598.9958421000047,None,598.9958421000047,None,598.9958421000047,None,598.9958421000047,None,77,88,47,45,77,68,601.5195736000023,None,5.0,1.6020556000003126,601.5195736000023,None,601.5195736000023,None,601.5195736000023,None,601.5195736000023,None,None,None,603.1425051000042,None,,,,,,,104,f,25,2022_Nov_25_1103,RL,2021.2.3,60.005496505166,
1,49,0,49,0,,,,,,,,,,,,,,,None,None,None,None,None,604.9547755000021,None,604.9547755000021,None,604.9547755000021,None,604.9547755000021,None,f,0.4215163000044413,604.9547755000021,None,604.9547755000021,None,605.4277266999998,None,605.4277266999998,None,605.4277266999998,None,605.4277266999998,None,605.4277266999998,None,605.4277266999998,None,605.720424799998,None,605.720424799998,None,607.5333315000025,None,607.5333315000025,None,607.5333315000025,None,607.5333315000025,None,607.5333315000025,None,607.5333315000025,None,607.5333315000025,None,607.5333315000025,None,607.5333315000025,None,71,81,49,42,81,47,610.0638352000024,None,5.0,1.2635240000017802,610.0638352000024,None,610.0638352000024,None,610.0638352000024,None,610.0638352000024,None,None,None,611.3482291000037,None,,,,,,,104,f,25,2022_Nov_25_1103,RL,2021.2.3,60.005496505166,
1,50,0,50,0,,,,,,,,,,,,,,,None,None,None,None,None,613.3611348999984,None,613.3611348999984,None,613.3611348999984,None,613.3611348999984,None,f,0.44537080000009155,613.3611348999984,None,613.3611348999984,None,613.8474295000051,None,613.8474295000051,None,613.8474295000051,None,613.8474295000051,None,613.8474295000051,None,613.8474295000051,None,614.1423809000044,615.7266651000027,614.1423809000044,615.7266651000027,615.7776214000041,None,615.7776214000041,None,615.7776214000041,None,615.7776214000041,None,615.7776214000041,None,615.7776214000041,None,615.7776214000041,None,615.7776214000041,None,615.7776214000041,None,68,83,39,50,83,52,618.2715553000016,None,5.0,1.54155119999632,618.2715553000016,None,618.2715553000016,None,618.2715553000016,None,618.2715553000016,None,None,None,619.829611000001,None,,,,,,,104,f,25,2022_Nov_25_1103,RL,2021.2.3,60.005496505166,
1,51,0,51,0,,,,,,,,,,,,,,,None,None,None,None,None,621.3514102000045,None,621.3514102000045,None,621.3514102000045,None,621.3514102000045,None,r,0.365919899995788,621.3514102000045,None,621.3514102000045,None,621.7695711000051,None,621.7695711000051,None,621.7695711000051,None,621.7695711000051,None,621.7695711000051,None,621.7695711000051,None,622.0645300000033,None,622.0645300000033,None,624.0831069999986,None,624.0831069999986,None,624.0831069999986,None,624.0831069999986,None,624.0831069999986,None,624.0831069999986,None,624.0831069999986,None,624.0831069999986,None,624.0831069999986,None,61,80,37,53,61,59,626.604705800004,None,4.0,1.0630199000006542,626.604705800004,None,626.604705800004,None,626.604705800004,None,626.604705800004,None,None,None,627.6848763000016,None,,,,,,,104,f,25,2022_Nov_25_1103,RL,2021.2.3,60.005496505166,
1,52,0,52,0,,,,,,,,,,,,,,,None,None,None,None,None,629.3868940000029,None,629.3868940000029,None,629.3868940000029,None,629.3868940000029,None,f,0.7303429000021424,629.3868940000029,None,629.3868940000029,None,630.1618391000011,None,630.1618391000011,None,630.1618391000011,None,630.1618391000011,None,630.1618391000011,None,630.1618391000011,None,630.4535820000019,None,630.4535820000019,None,631.8462381999998,None,631.8462381999998,None,631.8462381999998,None,631.8462381999998,None,631.8462381999998,None,631.8462381999998,None,631.8462381999998,None,631.8462381999998,None,631.8462381999998,None,54,79,41,53,79,75,634.3721302999984,None,5.0,1.2681623000025866,634.3721302999984,None,634.3721302999984,None,634.3721302999984,None,634.3721302999984,None,None,None,635.6617174999992,None,,,,,,,104,f,25,2022_Nov_25_1103,RL,2021.2.3,60.005496505166,
1,53,0,53,0,,,,,,,,,,,,,,,None,None,None,None,None,637.5443767000033,None,637.5443767000033,None,637.5443767000033,None,637.5443767000033,None,r,0.5633143000013661,637.5443767000033,None,637.5443767000033,None,638.1571135999984,None,638.1571135999984,None,638.1571135999984,None,638.1571135999984,None,638.1571135999984,None,638.1571135999984,None,638.4426663000049,639.493581200004,638.4426663000049,639.493581200004,639.5231356000004,None,639.5231356000004,None,639.5231356000004,None,639.5231356000004,None,639.5231356000004,None,639.5231356000004,None,639.5231356000004,None,639.5231356000004,None,639.5231356000004,None,57,76,28,49,57,41,642.0463272000052,None,5.0,1.486072100000456,642.0463272000052,None,642.0463272000052,None,642.0463272000052,None,642.0463272000052,None,None,None,643.5459125999987,None,,,,,,,104,f,25,2022_Nov_25_1103,RL,2021.2.3,60.005496505166,
1,54,0,54,0,,,,,,,,,,,,,,,None,None,None,None,None,645.1822088000044,None,645.1822088000044,None,645.1822088000044,None,645.1822088000044,None,r,0.4852866000001086,645.1822088000044,None,645.1822088000044,None,645.7074453000023,None,645.7074453000023,None,645.7074453000023,None,645.7074453000023,None,645.7074453000023,None,645.7074453000023,None,646.0106653000039,None,646.0106653000039,None,647.4164606999984,None,647.4164606999984,None,647.4164606999984,None,647.4164606999984,None,647.4164606999984,None,647.4164606999984,None,647.4164606999984,None,647.4164606999984,None,647.4164606999984,None,56,72,29,49,56,48,649.9350373999987,None,5.0,1.1676870999945095,649.9350373999987,None,649.9350373999987,None,649.9350373999987,None,649.9350373999987,None,None,None,651.1411091000045,None,,,,,,,104,f,25,2022_Nov_25_1103,RL,2021.2.3,60.005496505166,
1,55,0,55,0,,,,,,,,,,,,,,,None,None,None,None,None,652.9216531999991,None,652.9216531999991,None,652.9216531999991,None,652.9216531999991,None,f,0.32596249999915017,652.9216531999991,None,652.9216531999991,None,653.2912648999991,None,653.2912648999991,None,653.2912648999991,None,653.2912648999991,None,653.2912648999991,None,653.2912648999991,None,653.5865191000048,None,653.5865191000048,None,655.4747390999983,None,655.4747390999983,None,655.4747390999983,None,655.4747390999983,None,655.4747390999983,None,655.4747390999983,None,655.4747390999983,None,655.4747390999983,None,655.4747390999983,None,56,77,37,43,77,72,658.0137590000013,None,5.0,1.3304719000007026,658.0137590000013,None,658.0137590000013,None,658.0137590000013,None,658.0137590000013,None,None,None,659.3567949999997,None,,,,,,,104,f,25,2022_Nov_25_1103,RL,2021.2.3,60.005496505166,
1,56,0,56,0,,,,,,,,,,,,,,,None,None,None,None,None,660.9099761000034,None,660.9099761000034,None,660.9099761000034,None,660.9099761000034,None,r,0.34771989999717334,660.9099761000034,None,660.9099761000034,None,661.3001459000006,None,661.3001459000006,None,661.3001459000006,None,661.3001459000006,None,661.3001459000006,None,661.3001459000006,None,661.5918603000027,663.5432302000045,661.5918603000027,663.5432302000045,663.5761025000029,None,663.5761025000029,None,663.5761025000029,None,663.5761025000029,None,663.5761025000029,None,663.5761025000029,None,663.5761025000029,None,663.5761025000029,None,663.5761025000029,None,59,73,31,42,59,76,666.1005756000013,None,3.0,1.48102949999884,666.1005756000013,None,666.1005756000013,None,666.1005756000013,None,666.1005756000013,None,None,None,667.5957150000031,None,,,,,,,104,f,25,2022_Nov_25_1103,RL,2021.2.3,60.005496505166,
1,57,0,57,0,,,,,,,,,,,,,,,None,None,None,None,None,669.4640968000022,None,669.4640968000022,None,669.4640968000022,None,669.4640968000022,None,f,0.39349279999441933,669.4640968000022,None,669.4640968000022,None,669.9006681000028,None,669.9006681000028,None,669.9006681000028,None,669.9006681000028,None,669.9006681000028,None,669.9006681000028,None,670.1980671999991,None,670.1980671999991,None,671.7547949,None,671.7547949,None,671.7547949,None,671.7547949,None,671.7547949,None,671.7547949,None,671.7547949,None,671.7547949,None,671.7547949,None,68,78,29,53,78,78,674.2864523000026,None,4.0,1.24769180000294,674.2864523000026,None,674.2864523000026,None,674.2864523000026,None,674.2864523000026,None,None,None,675.5524091000043,None,,,,,,,104,f,25,2022_Nov_25_1103,RL,2021.2.3,60.005496505166,
1,58,0,58,0,,,,,,,,,,,,,,,None,None,None,None,None,677.319619599999,None,677.319619599999,None,677.319619599999,None,677.319619599999,None,f,0.6382730000041192,677.319619599999,None,677.319619599999,None,678.0044592000049,None,678.0044592000049,None,678.0044592000049,None,678.0044592000049,None,678.0044592000049,None,678.0044592000049,None,678.3035778000049,None,678.3035778000049,None,679.9572394999996,None,679.9572394999996,None,679.9572394999996,None,679.9572394999996,None,679.9572394999996,None,679.9572394999996,None,679.9572394999996,None,679.9572394999996,None,679.9572394999996,None,56,75,35,62,75,77,682.4790285999989,None,3.0,2.702054200002749,682.4790285999989,None,682.4790285999989,None,682.4790285999989,None,682.4790285999989,None,None,None,685.2151620000004,None,,,,,,,104,f,25,2022_Nov_25_1103,RL,2021.2.3,60.005496505166,
1,59,0,59,0,,,,,,,,,,,,,,,None,None,None,None,None,687.0636177999986,None,687.0636177999986,None,687.0636177999986,None,687.0636177999986,None,f,1.144472300002235,687.0636177999986,None,687.0636177999986,None,688.2477551999982,None,688.2477551999982,None,688.2477551999982,None,688.2477551999982,None,688.2477551999982,None,688.2477551999982,None,688.5444226000036,689.6781126999995,688.5444226000036,689.6781126999995,689.7100294000047,None,689.7100294000047,None,689.7100294000047,None,689.7100294000047,None,689.7100294000047,None,689.7100294000047,None,689.7100294000047,None,689.7100294000047,None,689.7100294000047,None,59,76,31,56,76,74,692.2356989000036,None,4.0,1.7838117999999668,692.2356989000036,None,692.2356989000036,None,692.2356989000036,None,692.2356989000036,None,None,None,694.0309740000012,None,,,,,,,104,f,25,2022_Nov_25_1103,RL,2021.2.3,60.005496505166,
1,60,0,60,0,,,,,,,,,,,,,,,None,None,None,None,None,695.6050675000006,None,695.6050675000006,None,695.6050675000006,None,695.6050675000006,None,f,0.8227593000046909,695.6050675000006,None,695.6050675000006,None,696.4690300000002,None,696.4690300000002,None,696.4690300000002,None,696.4690300000002,None,696.4690300000002,None,696.4690300000002,None,696.7664674000043,None,696.7664674000043,None,698.6185460999986,None,698.6185460999986,None,698.6185460999986,None,698.6185460999986,None,698.6185460999986,None,698.6185460999986,None,698.6185460999986,None,698.6185460999986,None,698.6185460999986,None,55,68,38,55,68,82,701.1332199000026,None,3.0,0.6245606000011321,701.1332199000026,None,701.1332199000026,None,701.1332199000026,None,701.1332199000026,None,None,None,701.7713403000016,None,,,,,,,104,f,25,2022_Nov_25_1103,RL,2021.2.3,60.005496505166,
1,61,0,61,0,,,,,,,,,,,,,,,None,None,None,None,None,703.5057281000045,None,703.5057281000045,None,703.5057281000045,None,703.5057281000045,None,r,0.2523445000042557,703.5057281000045,None,703.5057281000045,None,703.8168463000038,None,703.8168463000038,None,703.8168463000038,None,703.8168463000038,None,703.8168463000038,None,703.8168463000038,None,704.105801800004,None,704.105801800004,None,705.5276116000023,None,705.5276116000023,None,705.5276116000023,None,705.5276116000023,None,705.5276116000023,None,705.5276116000023,None,705.5276116000023,None,705.5276116000023,None,705.5276116000023,None,57,74,35,52,57,41,708.0535783000014,None,5.0,1.8566423999945982,708.0535783000014,None,708.0535783000014,None,708.0535783000014,None,708.0535783000014,None,None,None,709.9256262999988,None,,,,,,,104,f,25,2022_Nov_25_1103,RL,2021.2.3,60.005496505166,
1,62,0,62,0,,,,,,,,,,,,,,,None,None,None,None,None,711.4471867000029,None,711.4471867000029,None,711.4471867000029,None,711.4471867000029,None,r,0.5208025999963866,711.4471867000029,None,711.4471867000029,None,712.0147275999989,None,712.0147275999989,None,712.0147275999989,None,712.0147275999989,None,712.0147275999989,None,712.0147275999989,None,712.3106632999989,None,712.3106632999989,None,714.1446801999991,None,714.1446801999991,None,714.1446801999991,None,714.1446801999991,None,714.1446801999991,None,714.1446801999991,None,714.1446801999991,None,714.1446801999991,None,714.1446801999991,None,56,75,35,67,56,56,716.6509313999995,None,4.0,0.7658181000006152,716.6509313999995,None,716.6509313999995,None,716.6509313999995,None,716.6509313999995,None,None,None,717.4366752999995,None,,,,,,,104,f,25,2022_Nov_25_1103,RL,2021.2.3,60.005496505166,
1,63,0,63,0,,,,,,,,,,,,,,,None,None,None,None,None,718.9848813999997,None,718.9848813999997,None,718.9848813999997,None,718.9848813999997,None,f,0.42276850000052946,718.9848813999997,None,718.9848813999997,None,719.4441613000017,None,719.4441613000017,None,719.4441613000017,None,719.4441613000017,None,719.4441613000017,None,719.4441613000017,None,719.7323915000015,720.7494254000048,719.7323915000015,720.7494254000048,720.7792932000011,None,720.7792932000011,None,720.7792932000011,None,720.7792932000011,None,720.7792932000011,None,720.7792932000011,None,720.7792932000011,None,720.7792932000011,None,720.7792932000011,None,64,72,33,55,72,55,723.3070475999994,None,5.0,0.7520253999973647,723.3070475999994,None,723.3070475999994,None,723.3070475999994,None,723.3070475999994,None,None,None,724.0727944000027,None,,,,,,,104,f,25,2022_Nov_25_1103,RL,2021.2.3,60.005496505166,
1,64,0,64,0,,,,,,,,,,,,,,,None,None,None,None,None,725.602879500002,None,725.602879500002,None,725.602879500002,None,725.602879500002,None,f,1.0052192000002833,725.602879500002,None,725.602879500002,None,726.6604582,None,726.6604582,None,726.6604582,None,726.6604582,None,726.6604582,None,726.6604582,None,726.9540878000043,728.2213745000045,726.9540878000043,728.2213745000045,728.2513368,None,728.2513368,None,728.2513368,None,728.2513368,None,728.2513368,None,728.2513368,None,728.2513368,None,728.2513368,None,728.2513368,None,55,70,38,58,70,34,730.7716722000041,None,5.0,0.8182667999935802,730.7716722000041,None,730.7716722000041,None,730.7716722000041,None,730.7716722000041,None,None,None,731.607001700002,None,,,,,,,104,f,25,2022_Nov_25_1103,RL,2021.2.3,60.005496505166,
1,65,0,65,0,,,,,,,,,,,,,,,None,None,None,None,None,733.2429807000008,None,733.2429807000008,None,733.2429807000008,None,733.2429807000008,None,f,0.7553607000008924,733.2429807000008,None,733.2429807000008,None,734.0492672000037,None,734.0492672000037,None,734.0492672000037,None,734.0492672000037,None,734.0492672000037,None,734.0492672000037,None,734.3258849999984,735.276365800004,734.3258849999984,735.276365800004,735.3085151999985,None,735.3085151999985,None,735.3085151999985,None,735.3085151999985,None,735.3085151999985,None,735.3085151999985,None,735.3085151999985,None,735.3085151999985,None,735.3085151999985,None,74,65,45,61,65,71,737.8208530000047,None,3.0,0.7921033000020543,737.8208530000047,None,737.8208530000047,None,737.8208530000047,None,737.8208530000047,None,None,None,738.6281708000024,None,,,,,,,104,f,25,2022_Nov_25_1103,RL,2021.2.3,60.005496505166,
1,66,0,66,0,,,,,,,,,,,,,,,None,None,None,None,None,740.1704514000012,None,740.1704514000012,None,740.1704514000012,None,740.1704514000012,None,r,0.3377570999946329,740.1704514000012,None,740.1704514000012,None,740.555975000003,None,740.555975000003,None,740.555975000003,None,740.555975000003,None,740.555975000003,None,740.555975000003,None,740.8469912,741.697396399999,740.8469912,741.697396399999,741.720530700004,None,741.720530700004,None,741.720530700004,None,741.720530700004,None,741.720530700004,None,741.720530700004,None,741.720530700004,None,741.720530700004,None,741.720530700004,None,64,70,35,59,64,38,744.2424748000049,None,5.0,0.47454730000026757,744.2424748000049,None,744.2424748000049,None,744.2424748000049,None,744.2424748000049,None,None,None,744.7410519000041,None,,,,,,,104,f,25,2022_Nov_25_1103,RL,2021.2.3,60.005496505166,
1,67,0,67,0,,,,,,,,,,,,,,,None,None,None,None,None,746.670721100003,None,746.670721100003,None,746.670721100003,None,746.670721100003,None,r,0.48757349999505095,746.670721100003,None,746.670721100003,None,747.2046279999995,None,747.2046279999995,None,747.2046279999995,None,747.2046279999995,None,747.2046279999995,None,747.2046279999995,None,747.5016557999988,749.3194928000012,747.5016557999988,749.3194928000012,749.3496182000017,None,749.3496182000017,None,749.3496182000017,None,749.3496182000017,None,749.3496182000017,None,749.3496182000017,None,749.3496182000017,None,749.3496182000017,None,749.3496182000017,None,66,70,33,48,66,67,751.8674949999986,None,4.0,0.7043110000013257,751.8674949999986,None,751.8674949999986,None,751.8674949999986,None,751.8674949999986,None,None,None,752.5962792999999,None,,,,,,,104,f,25,2022_Nov_25_1103,RL,2021.2.3,60.005496505166,
1,68,0,68,0,,,,,,,,,,,,,,,None,None,None,None,None,754.2103062000024,None,754.2103062000024,None,754.2103062000024,None,754.2103062000024,None,f,0.41812539999955334,754.2103062000024,None,754.2103062000024,None,754.678917199999,None,754.678917199999,None,754.678917199999,None,754.678917199999,None,754.678917199999,None,754.678917199999,None,754.973464200004,756.7413607999988,754.973464200004,756.7413607999988,756.7784748999984,None,756.7784748999984,None,756.7784748999984,None,756.7784748999984,None,756.7784748999984,None,756.7784748999984,None,756.7784748999984,None,756.7784748999984,None,756.7784748999984,None,65,66,41,47,66,48,759.3054830000037,None,5.0,0.6038228000033996,759.3054830000037,None,759.3054830000037,None,759.3054830000037,None,759.3054830000037,None,None,None,759.914780500003,None,,,,,,,104,f,25,2022_Nov_25_1103,RL,2021.2.3,60.005496505166,
1,69,0,69,0,,,,,,,,,,,,,,,None,None,None,None,None,761.8822605000023,None,761.8822605000023,None,761.8822605000023,None,761.8822605000023,None,f,0.30609069999627536,761.8822605000023,None,761.8822605000023,None,762.2351373999991,None,762.2351373999991,None,762.2351373999991,None,762.2351373999991,None,762.2351373999991,None,762.2351373999991,None,762.5286976999996,None,762.5286976999996,None,764.4349887999997,None,764.4349887999997,None,764.4349887999997,None,764.4349887999997,None,764.4349887999997,None,764.4349887999997,None,764.4349887999997,None,764.4349887999997,None,764.4349887999997,None,61,65,42,45,65,51,766.9606295000049,None,5.0,0.6717860999997356,766.9606295000049,None,766.9606295000049,None,766.9606295000049,None,766.9606295000049,None,None,None,767.6500530000048,None,,,,,,,104,f,25,2022_Nov_25_1103,RL,2021.2.3,60.005496505166,
1,70,0,70,0,,,,,,,,,,,,,,,None,None,None,None,None,769.5168210999982,None,769.5168210999982,None,769.5168210999982,None,769.5168210999982,None,r,0.6216626000023098,769.5168210999982,None,769.5168210999982,None,770.1921460000012,None,770.1921460000012,None,770.1921460000012,None,770.1921460000012,None,770.1921460000012,None,770.1921460000012,None,770.4843785999983,771.9018002000012,770.4843785999983,771.9018002000012,771.932681899998,None,771.932681899998,None,771.932681899998,None,771.932681899998,None,771.932681899998,None,771.932681899998,None,771.932681899998,None,771.932681899998,None,771.932681899998,None,61,71,46,55,61,70,774.4555672999995,None,3.0,1.1007583999962662,774.4555672999995,None,774.4555672999995,None,774.4555672999995,None,774.4555672999995,None,None,None,775.5767252000005,None,,,,,,,104,f,25,2022_Nov_25_1103,RL,2021.2.3,60.005496505166,
1,71,0,71,0,,,,,,,,,,,,,,,None,None,None,None,None,777.4427385000017,None,777.4427385000017,None,777.4427385000017,None,777.4427385000017,None,f,0.33577299999888055,777.4427385000017,None,777.4427385000017,None,777.8296789000015,None,777.8296789000015,None,777.8296789000015,None,777.8296789000015,None,777.8296789000015,None,777.8296789000015,None,778.1231270999997,None,778.1231270999997,None,779.3041866999993,None,779.3041866999993,None,779.3041866999993,None,779.3041866999993,None,779.3041866999993,None,779.3041866999993,None,779.3041866999993,None,779.3041866999993,None,779.3041866999993,None,48,64,41,51,64,64,781.8226286999998,None,4.0,0.539525499996671,781.8226286999998,None,781.8226286999998,None,781.8226286999998,None,781.8226286999998,None,None,None,782.3798459000027,None,,,,,,,104,f,25,2022_Nov_25_1103,RL,2021.2.3,60.005496505166,
1,72,0,72,0,,,,,,,,,,,,,,,None,None,None,None,None,784.0803461000032,None,784.0803461000032,None,784.0803461000032,None,784.0803461000032,None,j,0.3094937999994727,784.0803461000032,None,784.0803461000032,None,784.4288616999984,None,784.4288616999984,None,784.4288616999984,None,784.4288616999984,None,784.4288616999984,None,784.4288616999984,None,784.7274107999983,None,784.7274107999983,None,785.9078709000023,None,785.9078709000023,None,785.9078709000023,None,785.9078709000023,None,785.9078709000023,None,785.9078709000023,None,785.9078709000023,None,785.9078709000023,None,785.9078709000023,None,56,63,48,53,53,70,788.4254070000025,None,3.0,1.2573344000047655,788.4254070000025,None,788.4254070000025,None,788.4254070000025,None,788.4254070000025,None,None,None,789.7036602000007,None,,,,,,,104,f,25,2022_Nov_25_1103,RL,2021.2.3,60.005496505166,
1,73,0,73,0,,,,,,,,,,,,,,,None,None,None,None,None,791.700625999998,None,791.700625999998,None,791.700625999998,None,791.700625999998,None,f,1.0782514000020456,791.700625999998,None,791.700625999998,None,792.813034800005,None,792.813034800005,None,792.813034800005,None,792.813034800005,None,792.813034800005,None,792.813034800005,None,793.0999408999996,794.4673804000049,793.0999408999996,794.4673804000049,794.4961362000031,None,794.4961362000031,None,794.4961362000031,None,794.4961362000031,None,794.4961362000031,None,794.4961362000031,None,794.4961362000031,None,794.4961362000031,None,794.4961362000031,None,60,70,43,49,70,47,797.0135198999997,None,5.0,0.6037089999954333,797.0135198999997,None,797.0135198999997,None,797.0135198999997,None,797.0135198999997,None,None,None,797.6425320999988,None,,,,,,,104,f,25,2022_Nov_25_1103,RL,2021.2.3,60.005496505166,
1,74,0,74,0,,,,,,,,,,,,,,,None,None,None,None,None,799.560141300004,None,799.560141300004,None,799.560141300004,None,799.560141300004,None,f,0.31960280000203056,799.560141300004,None,799.560141300004,None,799.9277724999993,None,799.9277724999993,None,799.9277724999993,None,799.9277724999993,None,799.9277724999993,None,799.9277724999993,None,800.2214537000036,None,800.2214537000036,None,801.2953463000013,None,801.2953463000013,None,801.2953463000013,None,801.2953463000013,None,801.2953463000013,None,801.2953463000013,None,801.2953463000013,None,801.2953463000013,None,801.2953463000013,None,62,64,54,60,64,67,803.817257200004,None,3.0,0.8072022999986075,803.817257200004,None,803.817257200004,None,803.817257200004,None,803.817257200004,None,None,None,804.6408090000041,None,,,,,,,104,f,25,2022_Nov_25_1103,RL,2021.2.3,60.005496505166,
1,75,0,75,0,,,,,,,,,,,,,,,806.3253154999984,None,q,806.3253154999984,None,911.7820694000038,None,911.7820694000038,None,911.7820694000038,None,911.7820694000038,None,f,0.5884764000002178,911.7820694000038,None,911.7820694000038,None,912.4244886000015,None,912.4244886000015,None,912.4244886000015,None,912.4244886000015,None,912.4244886000015,None,912.4244886000015,None,912.7159740999996,913.9334729000038,912.7159740999996,913.9334729000038,913.9644573000041,None,913.9644573000041,None,913.9644573000041,None,913.9644573000041,None,913.9644573000041,None,913.9644573000041,None,913.9644573000041,None,913.9644573000041,None,913.9644573000041,None,43,61,43,49,61,67,916.4784431000007,None,3.0,0.8910799000004772,916.4784431000007,None,916.4784431000007,None,916.4784431000007,None,916.4784431000007,None,None,None,917.3855048000041,None,105.43787149999844,,,,,,104,f,25,2022_Nov_25_1103,RL,2021.2.3,60.005496505166,
1,76,0,76,0,,,,,,,,,,,,,,,None,None,None,None,None,918.923212200003,None,918.923212200003,None,918.923212200003,None,918.923212200003,None,r,0.47814890000154264,918.923212200003,None,918.923212200003,None,919.4428235000014,None,919.4428235000014,None,919.4428235000014,None,919.4428235000014,None,919.4428235000014,None,919.4428235000014,None,919.7376520000034,920.8713744999986,919.7376520000034,920.8713744999986,920.8922616999989,None,920.8922616999989,None,920.8922616999989,None,920.8922616999989,None,920.8922616999989,None,920.8922616999989,None,920.8922616999989,None,920.8922616999989,None,920.8922616999989,None,52,70,42,59,52,64,923.4168149000034,None,3.0,1.6137796999973943,923.4168149000034,None,923.4168149000034,None,923.4168149000034,None,923.4168149000034,None,None,None,925.0448669000034,None,,,,,,,104,f,25,2022_Nov_25_1103,RL,2021.2.3,60.005496505166,
1,77,0,77,0,,,,,,,,,,,,,,,None,None,None,None,None,926.7610045000038,None,926.7610045000038,None,926.7610045000038,None,926.7610045000038,None,f,0.400036099999852,926.7610045000038,None,926.7610045000038,None,927.2185927000028,None,927.2185927000028,None,927.2185927000028,None,927.2185927000028,None,927.2185927000028,None,927.2185927000028,None,927.509764800001,None,927.509764800001,None,928.7861472000004,None,928.7861472000004,None,928.7861472000004,None,928.7861472000004,None,928.7861472000004,None,928.7861472000004,None,928.7861472000004,None,928.7861472000004,None,928.7861472000004,None,56,66,57,64,66,52,931.3145060000024,None,5.0,1.4190976999962004,931.3145060000024,None,931.3145060000024,None,931.3145060000024,None,931.3145060000024,None,None,None,932.7512673000019,None,,,,,,,104,f,25,2022_Nov_25_1103,RL,2021.2.3,60.005496505166,
1,78,0,78,0,,,,,,,,,,,,,,,None,None,None,None,None,934.5496563000052,None,934.5496563000052,None,934.5496563000052,None,934.5496563000052,None,f,0.2319130000032601,934.5496563000052,None,934.5496563000052,None,934.816528000003,None,934.816528000003,None,934.816528000003,None,934.816528000003,None,934.816528000003,None,934.816528000003,None,935.1150497999988,936.6826724999992,935.1150497999988,936.6826724999992,936.7131818999987,None,936.7131818999987,None,936.7131818999987,None,936.7131818999987,None,936.7131818999987,None,936.7131818999987,None,936.7131818999987,None,936.7131818999987,None,936.7131818999987,None,50,56,39,57,56,65,939.2381031000041,None,3.0,0.5983383999991929,939.2381031000041,None,939.2381031000041,None,939.2381031000041,None,939.2381031000041,None,None,None,939.8572606000016,None,,,,,,,104,f,25,2022_Nov_25_1103,RL,2021.2.3,60.005496505166,
1,79,0,79,0,,,,,,,,,,,,,,,None,None,None,None,None,941.637507899999,None,941.637507899999,None,941.637507899999,None,941.637507899999,None,j,0.3039356000008411,941.637507899999,None,941.637507899999,None,941.990513100005,None,941.990513100005,None,941.990513100005,None,941.990513100005,None,941.990513100005,None,941.990513100005,None,942.2865634000045,None,942.2865634000045,None,943.9319166999994,None,943.9319166999994,None,943.9319166999994,None,943.9319166999994,None,943.9319166999994,None,943.9319166999994,None,943.9319166999994,None,943.9319166999994,None,943.9319166999994,None,53,61,42,63,63,38,946.4523545999982,None,5.0,1.339834799997334,946.4523545999982,None,946.4523545999982,None,946.4523545999982,None,946.4523545999982,None,None,None,947.8068335999997,None,,,,,,,104,f,25,2022_Nov_25_1103,RL,2021.2.3,60.005496505166,
1,80,0,80,0,,,,,,,,,,,,,,,None,None,None,None,None,949.3778498000029,None,949.3778498000029,None,949.3778498000029,None,949.3778498000029,None,j,0.2933954000036465,949.3778498000029,None,949.3778498000029,None,949.7148436999996,None,949.7148436999996,None,949.7148436999996,None,949.7148436999996,None,949.7148436999996,None,949.7148436999996,None,950.0087736999994,None,950.0087736999994,None,951.4498970999994,None,951.4498970999994,None,951.4498970999994,None,951.4498970999994,None,951.4498970999994,None,951.4498970999994,None,951.4498970999994,None,951.4498970999994,None,951.4498970999994,None,53,59,43,70,70,52,953.9823803000036,None,5.0,1.1642288000002736,953.9823803000036,None,953.9823803000036,None,953.9823803000036,None,953.9823803000036,None,None,None,955.1619534999991,None,,,,,,,104,f,25,2022_Nov_25_1103,RL,2021.2.3,60.005496505166,
1,81,0,81,0,,,,,,,,,,,,,,,None,None,None,None,None,956.9982199000005,None,956.9982199000005,None,956.9982199000005,None,956.9982199000005,None,j,0.2833341000005021,956.9982199000005,None,956.9982199000005,None,957.3190360000008,None,957.3190360000008,None,957.3190360000008,None,957.3190360000008,None,957.3190360000008,None,957.3190360000008,None,957.6139630000034,958.6310297000018,957.6139630000034,958.6310297000018,958.660263400001,None,958.660263400001,None,958.660263400001,None,958.660263400001,None,958.660263400001,None,958.660263400001,None,958.660263400001,None,958.660263400001,None,958.660263400001,None,53,61,34,66,66,66,961.1779451000039,None,4.0,0.6732975999984774,961.1779451000039,None,961.1779451000039,None,961.1779451000039,None,961.1779451000039,None,None,None,961.8676711000007,None,,,,,,,104,f,25,2022_Nov_25_1103,RL,2021.2.3,60.005496505166,
1,82,0,82,0,,,,,,,,,,,,,,,None,None,None,None,None,963.788002500005,None,963.788002500005,None,963.788002500005,None,963.788002500005,None,i,0.26346770000236575,963.788002500005,None,963.788002500005,None,964.0890048000001,None,964.0890048000001,None,964.0890048000001,None,964.0890048000001,None,964.0890048000001,None,964.0890048000001,None,964.385577699999,965.8361594000016,964.385577699999,965.8361594000016,965.8619846000001,None,965.8619846000001,None,965.8619846000001,None,965.8619846000001,None,965.8619846000001,None,965.8619846000001,None,965.8619846000001,None,965.8619846000001,None,965.8619846000001,None,47,63,50,72,50,44,968.3882713999992,None,5.0,1.5711979999978212,968.3882713999992,None,968.3882713999992,None,968.3882713999992,None,968.3882713999992,None,None,None,969.9798899000016,None,,,,,,,104,f,25,2022_Nov_25_1103,RL,2021.2.3,60.005496505166,
1,83,0,83,0,,,,,,,,,,,,,,,None,None,None,None,None,971.597437299999,None,971.597437299999,None,971.597437299999,None,971.597437299999,None,i,0.39363280000543455,971.597437299999,None,971.597437299999,None,972.0290696000011,None,972.0290696000011,None,972.0290696000011,None,972.0290696000011,None,972.0290696000011,None,972.0290696000011,None,972.3239981000006,None,972.3239981000006,None,974.1715727999981,None,974.1715727999981,None,974.1715727999981,None,974.1715727999981,None,974.1715727999981,None,974.1715727999981,None,974.1715727999981,None,974.1715727999981,None,974.1715727999981,None,43,53,43,78,43,40,976.6920537000042,None,5.0,1.5235853999984101,976.6920537000042,None,976.6920537000042,None,976.6920537000042,None,976.6920537000042,None,None,None,978.2285107999996,None,,,,,,,104,f,25,2022_Nov_25_1103,RL,2021.2.3,60.005496505166,
1,84,0,84,0,,,,,,,,,,,,,,,None,None,None,None,None,980.1625409000044,None,980.1625409000044,None,980.1625409000044,None,980.1625409000044,None,j,0.23899600000004284,980.1625409000044,None,980.1625409000044,None,980.4541824000044,None,980.4541824000044,None,980.4541824000044,None,980.4541824000044,None,980.4541824000044,None,980.4541824000044,None,980.7466745999991,None,980.7466745999991,None,981.7876327999984,None,981.7876327999984,None,981.7876327999984,None,981.7876327999984,None,981.7876327999984,None,981.7876327999984,None,981.7876327999984,None,981.7876327999984,None,981.7876327999984,None,54,49,40,63,63,77,984.306126800002,None,3.0,1.492639300005976,984.306126800002,None,984.306126800002,None,984.306126800002,None,984.306126800002,None,None,None,985.8167211000036,None,,,,,,,104,f,25,2022_Nov_25_1103,RL,2021.2.3,60.005496505166,
1,85,0,85,0,,,,,,,,,,,,,,,None,None,None,None,None,987.7027512999994,None,987.7027512999994,None,987.7027512999994,None,987.7027512999994,None,j,0.31887010000355076,987.7027512999994,None,987.7027512999994,None,988.076363799999,None,988.076363799999,None,988.076363799999,None,988.076363799999,None,988.076363799999,None,988.076363799999,None,988.3696598000024,None,988.3696598000024,None,990.1693784000017,None,990.1693784000017,None,990.1693784000017,None,990.1693784000017,None,990.1693784000017,None,990.1693784000017,None,990.1693784000017,None,990.1693784000017,None,990.1693784000017,None,53,51,48,73,73,70,992.6892703999983,None,4.0,1.5353730999995605,992.6892703999983,None,992.6892703999983,None,992.6892703999983,None,992.6892703999983,None,None,None,994.2390191000013,None,,,,,,,104,f,25,2022_Nov_25_1103,RL,2021.2.3,60.005496505166,
1,86,0,86,0,,,,,,,,,,,,,,,None,None,None,None,None,995.9256938000035,None,995.9256938000035,None,995.9256938000035,None,995.9256938000035,None,j,0.3664037999988068,995.9256938000035,None,995.9256938000035,None,996.3447538000037,None,996.3447538000037,None,996.3447538000037,None,996.3447538000037,None,996.3447538000037,None,996.3447538000037,None,996.6409838000036,None,996.6409838000036,None,998.2568955000024,None,998.2568955000024,None,998.2568955000024,None,998.2568955000024,None,998.2568955000024,None,998.2568955000024,None,998.2568955000024,None,998.2568955000024,None,998.2568955000024,None,49,51,44,71,71,69,1000.7800215000025,None,4.0,0.7342650999999023,1000.7800215000025,None,1000.7800215000025,None,1000.7800215000025,None,1000.7800215000025,None,None,None,1001.5280774999992,None,,,,,,,104,f,25,2022_Nov_25_1103,RL,2021.2.3,60.005496505166,
1,87,0,87,0,,,,,,,,,,,,,,,None,None,None,None,None,1003.3829994000043,None,1003.3829994000043,None,1003.3829994000043,None,1003.3829994000043,None,i,0.2587016000034055,1003.3829994000043,None,1003.3829994000043,None,1003.6825259000034,None,1003.6825259000034,None,1003.6825259000034,None,1003.6825259000034,None,1003.6825259000034,None,1003.6825259000034,None,1003.9793983999989,None,1003.9793983999989,None,1005.0940577000001,None,1005.0940577000001,None,1005.0940577000001,None,1005.0940577000001,None,1005.0940577000001,None,1005.0940577000001,None,1005.0940577000001,None,1005.0940577000001,None,1005.0940577000001,None,47,62,39,68,39,57,1007.6180376000048,None,3.0,1.9637176999967778,1007.6180376000048,None,1007.6180376000048,None,1007.6180376000048,None,1007.6180376000048,None,None,None,1009.5924379999997,None,,,,,,,104,f,25,2022_Nov_25_1103,RL,2021.2.3,60.005496505166,
1,88,0,88,0,,,,,,,,,,,,,,,None,None,None,None,None,1011.5061993999989,None,1011.5061993999989,None,1011.5061993999989,None,1011.5061993999989,None,f,0.315684200002579,1011.5061993999989,None,1011.5061993999989,None,1011.8829430000042,None,1011.8829430000042,None,1011.8829430000042,None,1011.8829430000042,None,1011.8829430000042,None,1011.8829430000042,None,1012.168433800005,1013.8862163000013,1012.168433800005,1013.8862163000013,1013.9145821999991,None,1013.9145821999991,None,1013.9145821999991,None,1013.9145821999991,None,1013.9145821999991,None,1013.9145821999991,None,1013.9145821999991,None,1013.9145821999991,None,1013.9145821999991,None,52,61,28,69,61,87,1016.4331655999995,None,3.0,0.6515876999983448,1016.4331655999995,None,1016.4331655999995,None,1016.4331655999995,None,1016.4331655999995,None,None,None,1017.1141664000024,None,,,,,,,104,f,25,2022_Nov_25_1103,RL,2021.2.3,60.005496505166,
1,89,0,89,0,,,,,,,,,,,,,,,None,None,None,None,None,1018.9088174999997,None,1018.9088174999997,None,1018.9088174999997,None,1018.9088174999997,None,f,0.29309469999861903,1018.9088174999997,None,1018.9088174999997,None,1019.2452651999993,None,1019.2452651999993,None,1019.2452651999993,None,1019.2452651999993,None,1019.2452651999993,None,1019.2452651999993,None,1019.540230999999,None,1019.540230999999,None,1021.0901713999992,None,1021.0901713999992,None,1021.0901713999992,None,1021.0901713999992,None,1021.0901713999992,None,1021.0901713999992,None,1021.0901713999992,None,1021.0901713999992,None,1021.0901713999992,None,53,48,41,74,48,29,1023.6099050999983,None,5.0,1.601871699996991,1023.6099050999983,None,1023.6099050999983,None,1023.6099050999983,None,1023.6099050999983,None,None,None,1025.228278100003,None,,,,,,,104,f,25,2022_Nov_25_1103,RL,2021.2.3,60.005496505166,
1,90,0,90,0,,,,,,,,,,,,,,,None,None,None,None,None,1026.7980364000032,None,1026.7980364000032,None,1026.7980364000032,None,1026.7980364000032,None,f,0.37406360000022687,1026.7980364000032,None,1026.7980364000032,None,1027.2098058000047,None,1027.2098058000047,None,1027.2098058000047,None,1027.2098058000047,None,1027.2098058000047,None,1027.2098058000047,None,1027.5124289000014,None,1027.5124289000014,None,1028.8929234000025,None,1028.8929234000025,None,1028.8929234000025,None,1028.8929234000025,None,1028.8929234000025,None,1028.8929234000025,None,1028.8929234000025,None,1028.8929234000025,None,1028.8929234000025,None,46,41,38,69,41,76,1031.412873100002,None,3.0,1.453717799995502,1031.412873100002,None,1031.412873100002,None,1031.412873100002,None,1031.412873100002,None,None,None,1032.8922776000036,None,,,,,,,104,f,25,2022_Nov_25_1103,RL,2021.2.3,60.005496505166,
1,91,0,91,0,,,,,,,,,,,,,,,None,None,None,None,None,1034.4701486999984,None,1034.4701486999984,None,1034.4701486999984,None,1034.4701486999984,None,f,0.3119245000052615,1034.4701486999984,None,1034.4701486999984,None,1034.8240821,None,1034.8240821,None,1034.8240821,None,1034.8240821,None,1034.8240821,None,1034.8240821,None,1035.1173812999987,None,1035.1173812999987,None,1035.962593700002,None,1035.962593700002,None,1035.962593700002,None,1035.962593700002,None,1035.962593700002,None,1035.962593700002,None,1035.962593700002,None,1035.962593700002,None,1035.962593700002,None,57,57,38,68,57,73,1038.4773447000043,None,3.0,0.7257911999986391,1038.4773447000043,None,1038.4773447000043,None,1038.4773447000043,None,1038.4773447000043,None,None,None,1039.2271475000016,None,,,,,,,104,f,25,2022_Nov_25_1103,RL,2021.2.3,60.005496505166,
1,92,0,92,0,,,,,,,,,,,,,,,None,None,None,None,None,1041.1649407000004,None,1041.1649407000004,None,1041.1649407000004,None,1041.1649407000004,None,r,0.24702510000497568,1041.1649407000004,None,1041.1649407000004,None,1041.4594840999998,None,1041.4594840999998,None,1041.4594840999998,None,1041.4594840999998,None,1041.4594840999998,None,1041.4594840999998,None,1041.7556127999997,None,1041.7556127999997,None,1043.6374122999987,None,1043.6374122999987,None,1043.6374122999987,None,1043.6374122999987,None,1043.6374122999987,None,1043.6374122999987,None,1043.6374122999987,None,1043.6374122999987,None,1043.6374122999987,None,53,51,45,66,53,67,1046.155611400005,None,3.0,0.6042634999976144,1046.155611400005,None,1046.155611400005,None,1046.155611400005,None,1046.155611400005,None,None,None,1046.7753993000006,None,,,,,,,104,f,25,2022_Nov_25_1103,RL,2021.2.3,60.005496505166,
1,93,0,93,0,,,,,,,,,,,,,,,None,None,None,None,None,1048.2974944000016,None,1048.2974944000016,None,1048.2974944000016,None,1048.2974944000016,None,r,0.3144241999980295,1048.2974944000016,None,1048.2974944000016,None,1048.6658768999987,None,1048.6658768999987,None,1048.6658768999987,None,1048.6658768999987,None,1048.6658768999987,None,1048.6658768999987,None,1048.9605933999992,None,1048.9605933999992,None,1049.8299555999984,None,1049.8299555999984,None,1049.8299555999984,None,1049.8299555999984,None,1049.8299555999984,None,1049.8299555999984,None,1049.8299555999984,None,1049.8299555999984,None,1049.8299555999984,None,54,51,45,55,54,66,1052.346250100003,None,3.0,0.6017887999987579,1052.346250100003,None,1052.346250100003,None,1052.346250100003,None,1052.346250100003,None,None,None,1052.9629320000022,None,,,,,,,104,f,25,2022_Nov_25_1103,RL,2021.2.3,60.005496505166,
1,94,0,94,0,,,,,,,,,,,,,,,None,None,None,None,None,1054.7977688000028,None,1054.7977688000028,None,1054.7977688000028,None,1054.7977688000028,None,j,0.7543175000027986,1054.7977688000028,None,1054.7977688000028,None,1055.609252400005,None,1055.609252400005,None,1055.609252400005,None,1055.609252400005,None,1055.609252400005,None,1055.609252400005,None,1055.8989501000033,None,1055.8989501000033,None,1057.0868416000012,None,1057.0868416000012,None,1057.0868416000012,None,1057.0868416000012,None,1057.0868416000012,None,1057.0868416000012,None,1057.0868416000012,None,1057.0868416000012,None,1057.0868416000012,None,44,57,47,72,72,62,1059.6133243000004,None,5.0,0.5726667999988422,1059.6133243000004,None,1059.6133243000004,None,1059.6133243000004,None,1059.6133243000004,None,None,None,1060.2073846999992,None,,,,,,,104,f,25,2022_Nov_25_1103,RL,2021.2.3,60.005496505166,
1,95,0,95,0,,,,,,,,,,,,,,,None,None,None,None,None,1062.090522999999,None,1062.090522999999,None,1062.090522999999,None,1062.090522999999,None,j,0.5815326000010828,1062.090522999999,None,1062.090522999999,None,1062.727289800001,None,1062.727289800001,None,1062.727289800001,None,1062.727289800001,None,1062.727289800001,None,1062.727289800001,None,1063.0203533000022,None,1063.0203533000022,None,1064.9715396000029,None,1064.9715396000029,None,1064.9715396000029,None,1064.9715396000029,None,1064.9715396000029,None,1064.9715396000029,None,1064.9715396000029,None,1064.9715396000029,None,1064.9715396000029,None,52,70,49,71,71,44,1067.4808665000019,None,5.0,0.9107308000020566,1067.4808665000019,None,1067.4808665000019,None,1067.4808665000019,None,1067.4808665000019,None,None,None,1068.4111451999997,None,,,,,,,104,f,25,2022_Nov_25_1103,RL,2021.2.3,60.005496505166,
1,96,0,96,0,,,,,,,,,,,,,,,None,None,None,None,None,1070.343265100004,None,1070.343265100004,None,1070.343265100004,None,1070.343265100004,None,j,0.3381550999984029,1070.343265100004,None,1070.343265100004,None,1070.7318105000013,None,1070.7318105000013,None,1070.7318105000013,None,1070.7318105000013,None,1070.7318105000013,None,1070.7318105000013,None,1071.025794000001,None,1071.025794000001,None,1072.1459620000023,None,1072.1459620000023,None,1072.1459620000023,None,1072.1459620000023,None,1072.1459620000023,None,1072.1459620000023,None,1072.1459620000023,None,1072.1459620000023,None,1072.1459620000023,None,45,59,38,61,61,27,1074.6678525000025,None,5.0,0.5817886999939219,1074.6678525000025,None,1074.6678525000025,None,1074.6678525000025,None,1074.6678525000025,None,None,None,1075.2626486000008,None,,,,,,,104,f,25,2022_Nov_25_1103,RL,2021.2.3,60.005496505166,
1,97,0,97,0,,,,,,,,,,,,,,,None,None,None,None,None,1077.0372046999983,None,1077.0372046999983,None,1077.0372046999983,None,1077.0372046999983,None,j,0.3043720999994548,1077.0372046999983,None,1077.0372046999983,None,1077.375768400001,None,1077.375768400001,None,1077.375768400001,None,1077.375768400001,None,1077.375768400001,None,1077.375768400001,None,1077.6636787000025,1079.3482053000043,1077.6636787000025,1079.3482053000043,1079.3792730999994,None,1079.3792730999994,None,1079.3792730999994,None,1079.3792730999994,None,1079.3792730999994,None,1079.3792730999994,None,1079.3792730999994,None,1079.3792730999994,None,1079.3792730999994,None,41,60,42,50,50,49,1081.9064739000023,None,4.0,0.86390169999504,1081.9064739000023,None,1081.9064739000023,None,1081.9064739000023,None,1081.9064739000023,None,None,None,1082.7846850999995,None,,,,,,,104,f,25,2022_Nov_25_1103,RL,2021.2.3,60.005496505166,
1,98,0,98,0,,,,,,,,,,,,,,,None,None,None,None,None,1084.687176600004,None,1084.687176600004,None,1084.687176600004,None,1084.687176600004,None,i,0.25584579999849666,1084.687176600004,None,1084.687176600004,None,1084.988523699998,None,1084.988523699998,None,1084.988523699998,None,1084.988523699998,None,1084.988523699998,None,1084.988523699998,None,1085.2708934000038,1086.3363155000043,1085.2708934000038,1086.3363155000043,1086.3600101999982,None,1086.3600101999982,None,1086.3600101999982,None,1086.3600101999982,None,1086.3600101999982,None,1086.3600101999982,None,1086.3600101999982,None,1086.3600101999982,None,1086.3600101999982,None,44,69,49,52,49,50,1088.878274900002,None,4.0,0.5118526000005659,1088.878274900002,None,1088.878274900002,None,1088.878274900002,None,1088.878274900002,None,None,None,1089.410560000004,None,,,,,,,104,f,25,2022_Nov_25_1103,RL,2021.2.3,60.005496505166,
1,99,0,99,0,,,,,,,,,,,,,,,None,None,None,None,None,1091.4211005000034,None,1091.4211005000034,None,1091.4211005000034,None,1091.4211005000034,None,j,0.2627522999973735,1091.4211005000034,None,1091.4211005000034,None,1091.7281818000047,None,1091.7281818000047,None,1091.7281818000047,None,1091.7281818000047,None,1091.7281818000047,None,1091.7281818000047,None,1092.0239017999993,1093.8581545000052,1092.0239017999993,1093.8581545000052,1093.889682400004,None,1093.889682400004,None,1093.889682400004,None,1093.889682400004,None,1093.889682400004,None,1093.889682400004,None,1093.889682400004,None,1093.889682400004,None,1093.889682400004,None,44,54,50,41,41,30,1096.4082388000024,None,5.0,0.8537519999954384,1096.4082388000024,None,1096.4082388000024,None,1096.4082388000024,None,1096.4082388000024,None,None,None,1097.2842014999987,None,,,,,,,104,f,25,2022_Nov_25_1103,RL,2021.2.3,60.005496505166,
1,100,0,100,0,,,,,,,,,,,,,,,None,None,None,None,None,1099.280437100002,None,1099.280437100002,None,1099.280437100002,None,1099.280437100002,None,j,0.32300260000192793,1099.280437100002,None,1099.280437100002,None,1099.6674693000023,None,1099.6674693000023,None,1099.6674693000023,None,1099.6674693000023,None,1099.6674693000023,None,1099.6674693000023,None,1099.9457522000012,1101.1300253000009,1099.9457522000012,1101.1300253000009,1101.1714818000037,None,1101.1714818000037,None,1101.1714818000037,None,1101.1714818000037,None,1101.1714818000037,None,1101.1714818000037,None,1101.1714818000037,None,1101.1714818000037,None,1101.1714818000037,None,49,59,48,57,57,70,1103.7253223000007,None,3.0,1.0335086999984924,1103.7253223000007,None,1103.7253223000007,None,1103.7253223000007,None,1103.7253223000007,None,None,None,1104.752945799999,None,,,,,,,104,f,25,2022_Nov_25_1103,RL,2021.2.3,60.005496505166,
1,101,0,101,0,,,,,,,,,,,,,,,None,None,None,None,None,1106.4169330000004,None,1106.4169330000004,None,1106.4169330000004,None,1106.4169330000004,None,j,0.4668658999944455,1106.4169330000004,None,1106.4169330000004,None,1106.9335076999996,None,1106.9335076999996,None,1106.9335076999996,None,1106.9335076999996,None,1106.9335076999996,None,1106.9335076999996,None,1107.2176263000001,1108.3183747000003,1107.2176263000001,1108.3183747000003,1108.3487667000009,None,1108.3487667000009,None,1108.3487667000009,None,1108.3487667000009,None,1108.3487667000009,None,1108.3487667000009,None,1108.3487667000009,None,1108.3487667000009,None,1108.3487667000009,None,50,64,48,52,52,43,1110.8679937999987,None,5.0,0.5688641000015195,1110.8679937999987,None,1110.8679937999987,None,1110.8679937999987,None,1110.8679937999987,None,None,None,1111.4556178999992,None,,,,,,,104,f,25,2022_Nov_25_1103,RL,2021.2.3,60.005496505166,
1,102,0,102,0,,,,,,,,,,,,,,,None,None,None,None,None,1113.0714187000049,None,1113.0714187000049,None,1113.0714187000049,None,1113.0714187000049,None,j,0.32201940000231843,1113.0714187000049,None,1113.0714187000049,None,1113.4472240000032,None,1113.4472240000032,None,1113.4472240000032,None,1113.4472240000032,None,1113.4472240000032,None,1113.4472240000032,None,1113.722008800003,1115.172857000005,1113.722008800003,1115.172857000005,1115.2032777999993,None,1115.2032777999993,None,1115.2032777999993,None,1115.2032777999993,None,1115.2032777999993,None,1115.2032777999993,None,1115.2032777999993,None,1115.2032777999993,None,1115.2032777999993,None,63,65,43,48,48,50,1117.7222702,None,4.0,0.4722970000002533,1117.7222702,None,1117.7222702,None,1117.7222702,None,1117.7222702,None,None,None,1118.2191001000028,None,,,,,,,104,f,25,2022_Nov_25_1103,RL,2021.2.3,60.005496505166,
1,103,0,103,0,,,,,,,,,,,,,,,None,None,None,None,None,1119.7261150999984,None,1119.7261150999984,None,1119.7261150999984,None,1119.7261150999984,None,j,0.28766539999924134,1119.7261150999984,None,1119.7261150999984,None,1120.0647179000007,None,1120.0647179000007,None,1120.0647179000007,None,1120.0647179000007,None,1120.0647179000007,None,1120.0647179000007,None,1120.3601312000028,None,1120.3601312000028,None,1122.1842246000015,None,1122.1842246000015,None,1122.1842246000015,None,1122.1842246000015,None,1122.1842246000015,None,1122.1842246000015,None,1122.1842246000015,None,1122.1842246000015,None,1122.1842246000015,None,55,63,45,45,45,69,1124.7032655000003,None,3.0,0.5221507000023848,1124.7032655000003,None,1124.7032655000003,None,1124.7032655000003,None,1124.7032655000003,None,None,None,1125.2434653000018,None,,,,,,,104,f,25,2022_Nov_25_1103,RL,2021.2.3,60.005496505166,
1,104,0,104,0,,,,,,,,,,,,,,,None,None,None,None,None,1126.8162950000042,None,1126.8162950000042,None,1126.8162950000042,None,1126.8162950000042,None,i,0.2764184000043315,1126.8162950000042,None,1126.8162950000042,None,1127.1262504000042,None,1127.1262504000042,None,1127.1262504000042,None,1127.1262504000042,None,1127.1262504000042,None,1127.1262504000042,None,1127.4149939999988,1128.9494511000012,1127.4149939999988,1128.9494511000012,1128.9782353000046,None,1128.9782353000046,None,1128.9782353000046,None,1128.9782353000046,None,1128.9782353000046,None,1128.9782353000046,None,1128.9782353000046,None,1128.9782353000046,None,1128.9782353000046,None,61,65,45,46,45,68,1131.4872030000042,None,3.0,0.6316497000007075,1131.4872030000042,None,1131.4872030000042,None,1131.4872030000042,None,1131.4872030000042,None,None,None,1132.1344845999993,None,,,,,,,104,f,25,2022_Nov_25_1103,RL,2021.2.3,60.005496505166,
1,105,0,105,0,,,,,,,,,,,,,,,None,None,None,None,None,1134.1425199000005,None,1134.1425199000005,None,1134.1425199000005,None,1134.1425199000005,None,i,0.29062019999400945,1134.1425199000005,None,1134.1425199000005,None,1134.4792006999996,None,1134.4792006999996,None,1134.4792006999996,None,1134.4792006999996,None,1134.4792006999996,None,1134.4792006999996,None,1134.770103200004,None,1134.770103200004,None,1136.7797871000002,None,1136.7797871000002,None,1136.7797871000002,None,1136.7797871000002,None,1136.7797871000002,None,1136.7797871000002,None,1136.7797871000002,None,1136.7797871000002,None,1136.7797871000002,None,55,61,46,51,46,64,1139.302519500001,None,3.0,0.7739786000020104,1139.302519500001,None,1139.302519500001,None,1139.302519500001,None,1139.302519500001,None,None,None,1140.0901479000022,None,,,,,,,104,f,25,2022_Nov_25_1103,RL,2021.2.3,60.005496505166,
1,106,0,106,0,,,,,,,,,,,,,,,None,None,None,None,None,1141.7613123000046,None,1141.7613123000046,None,1141.7613123000046,None,1141.7613123000046,None,j,0.392004099994665,1141.7613123000046,None,1141.7613123000046,None,1142.1968921000007,None,1142.1968921000007,None,1142.1968921000007,None,1142.1968921000007,None,1142.1968921000007,None,1142.1968921000007,None,1142.491928299998,1143.5926852000048,1142.491928299998,1143.5926852000048,1143.6210351000045,None,1143.6210351000045,None,1143.6210351000045,None,1143.6210351000045,None,1143.6210351000045,None,1143.6210351000045,None,1143.6210351000045,None,1143.6210351000045,None,1143.6210351000045,None,53,64,48,51,51,54,1146.1368807000035,None,3.0,0.6253010000000359,1146.1368807000035,None,1146.1368807000035,None,1146.1368807000035,None,1146.1368807000035,None,None,None,1146.7821269999986,None,,,,,,,104,f,25,2022_Nov_25_1103,RL,2021.2.3,60.005496505166,
1,107,0,107,0,,,,,,,,,,,,,,,None,None,None,None,None,1148.312841400002,None,1148.312841400002,None,1148.312841400002,None,1148.312841400002,None,j,0.5311208999992232,1148.312841400002,None,1148.312841400002,None,1148.8869790000026,None,1148.8869790000026,None,1148.8869790000026,None,1148.8869790000026,None,1148.8869790000026,None,1148.8869790000026,None,1149.1801424000005,None,1149.1801424000005,None,1150.0373905000015,None,1150.0373905000015,None,1150.0373905000015,None,1150.0373905000015,None,1150.0373905000015,None,1150.0373905000015,None,1150.0373905000015,None,1150.0373905000015,None,1150.0373905000015,None,58,63,44,51,51,65,1152.5555372000017,None,3.0,0.49169070000061765,1152.5555372000017,None,1152.5555372000017,None,1152.5555372000017,None,1152.5555372000017,None,None,None,1153.0735285000046,None,,,,,,,104,f,25,2022_Nov_25_1103,RL,2021.2.3,60.005496505166,
1,108,0,108,0,,,,,,,,,,,,,,,None,None,None,None,None,1154.7185834000047,None,1154.7185834000047,None,1154.7185834000047,None,1154.7185834000047,None,j,0.5250501000045915,1154.7185834000047,None,1154.7185834000047,None,1155.2857011000015,None,1155.2857011000015,None,1155.2857011000015,None,1155.2857011000015,None,1155.2857011000015,None,1155.2857011000015,None,1155.5844169000047,None,1155.5844169000047,None,1156.4209964000038,None,1156.4209964000038,None,1156.4209964000038,None,1156.4209964000038,None,1156.4209964000038,None,1156.4209964000038,None,1156.4209964000038,None,1156.4209964000038,None,1156.4209964000038,None,50,62,43,54,54,58,1158.9367807000017,None,3.0,0.4539107000018703,1158.9367807000017,None,1158.9367807000017,None,1158.9367807000017,None,1158.9367807000017,None,None,None,1159.4032429,None,,,,,,,104,f,25,2022_Nov_25_1103,RL,2021.2.3,60.005496505166,
1,109,0,109,0,,,,,,,,,,,,,,,None,None,None,None,None,1161.0212962000005,None,1161.0212962000005,None,1161.0212962000005,None,1161.0212962000005,None,j,0.27232289999665227,1161.0212962000005,None,1161.0212962000005,None,1161.3417243000004,None,1161.3417243000004,None,1161.3417243000004,None,1161.3417243000004,None,1161.3417243000004,None,1161.3417243000004,None,1161.638640600002,None,1161.638640600002,None,1162.6830402999985,None,1162.6830402999985,None,1162.6830402999985,None,1162.6830402999985,None,1162.6830402999985,None,1162.6830402999985,None,1162.6830402999985,None,1162.6830402999985,None,1162.6830402999985,None,52,63,38,48,48,71,1165.2035773000025,None,3.0,0.6180993000016315,1165.2035773000025,None,1165.2035773000025,None,1165.2035773000025,None,1165.2035773000025,None,None,None,1165.8411581000037,None,,,,,,,104,f,25,2022_Nov_25_1103,RL,2021.2.3,60.005496505166,
1,110,0,110,0,,,,,,,,,,,,,,,None,None,None,None,None,1167.595642100001,None,1167.595642100001,None,1167.595642100001,None,1167.595642100001,None,j,0.32854889999725856,1167.595642100001,None,1167.595642100001,None,1167.9733645000015,None,1167.9733645000015,None,1167.9733645000015,None,1167.9733645000015,None,1167.9733645000015,None,1167.9733645000015,None,1168.259993300002,1170.1611561000027,1168.259993300002,1170.1611561000027,1170.1938276,None,1170.1938276,None,1170.1938276,None,1170.1938276,None,1170.1938276,None,1170.1938276,None,1170.1938276,None,1170.1938276,None,1170.1938276,None,54,64,42,47,47,61,1172.7241813,None,3.0,0.4756825999938883,1172.7241813,None,1172.7241813,None,1172.7241813,None,1172.7241813,None,None,None,1173.2132167000018,None,,,,,,,104,f,25,2022_Nov_25_1103,RL,2021.2.3,60.005496505166,
1,111,0,111,0,,,,,,,,,,,,,,,None,None,None,None,None,1175.1114957000027,None,1175.1114957000027,None,1175.1114957000027,None,1175.1114957000027,None,None,,1175.1114957000027,None,1175.1114957000027,None,None,None,None,None,None,None,None,None,None,None,None,None,None,None,None,None,None,None,None,None,None,None,None,None,None,None,None,None,None,None,None,None,None,None,46,67,38,53,0,**,None,None,None,None,None,None,None,None,None,None,None,None,1176.6653157000037,None,1181.1686986999994,None,,,,,,,104,f,25,2022_Nov_25_1103,RL,2021.2.3,60.005496505166,
1,112,0,112,0,,,,,,,,,,,,,,,None,None,None,None,None,1182.9530608999994,None,1182.9530608999994,None,1182.9530608999994,None,1182.9530608999994,None,f,0.3107139999992796,1182.9530608999994,None,1182.9530608999994,None,1183.3053977000018,None,1183.3053977000018,None,1183.3053977000018,None,1183.3053977000018,None,1183.3053977000018,None,1183.3053977000018,None,1183.6037797000026,None,1183.6037797000026,None,1185.1032761000024,None,1185.1032761000024,None,1185.1032761000024,None,1185.1032761000024,None,1185.1032761000024,None,1185.1032761000024,None,1185.1032761000024,None,1185.1032761000024,None,1185.1032761000024,None,47,62,43,55,62,61,1187.6288085999986,None,4.0,1.0824080999955186,1187.6288085999986,None,1187.6288085999986,None,1187.6288085999986,None,1187.6288085999986,None,None,None,1188.725422399999,None,,,,,,,104,f,25,2022_Nov_25_1103,RL,2021.2.3,60.005496505166,
