bandit,trials.thisRepN,trials.thisTrialN,trials.thisN,trials.thisIndex,instru_img1.started,instru_img1.stopped,instru_resp.keys,instru_resp.rt,instru_resp.started,instru_resp.stopped,instru_img2.started,instru_img2.stopped,instru_resp2.keys,instru_resp2.rt,instru_resp2.started,instru_resp2.stopped,fixbefore_2.started,fixbefore_2.stopped,rest_image.started,rest_image.stopped,rest_response.keys,rest_response.started,rest_response.stopped,red.started,red.stopped,green.started,green.stopped,yellow.started,yellow.stopped,blue.started,blue.stopped,choose_bandit.keys,choose_bandit.rt,choose_bandit.started,choose_bandit.stopped,Fixation.started,Fixation.stopped,black.started,black.stopped,red_2.started,red_2.stopped,green_2.started,green_2.stopped,yellow_2.started,yellow_2.stopped,blue_2.started,blue_2.stopped,fixation_2.started,fixation_2.stopped,docs.started,docs.stopped,image_2.started,image_2.stopped,black_com.started,black_com.stopped,reward_sub.started,reward_sub.stopped,palyerb.started,palyerb.stopped,reward__sub.started,reward__sub.stopped,compare.started,compare.stopped,red_compare.started,red_compare.stopped,green_com.started,green_com.stopped,yellow_com.started,yellow_com.stopped,blue_com.started,blue_com.stopped,rewardyellow,rewardred,rewardblue,rewardgreen,subchoose,playerb,image_3.started,image_3.stopped,slider.response,slider.rt,slider.started,slider.stopped,text.started,text.stopped,image_4.started,image_4.stopped,image_5.started,image_5.stopped,bigx.started,bigx.stopped,intertrialfix.started,intertrialfix.stopped,rest_response.rt,image.started,image.stopped,key_resp.keys,key_resp.started,key_resp.stopped,participant,Gender,Age,date,expName,psychopyVersion,frameRate,
,,,,,18.166750399999728,None,space,0.9737518000038108,18.166750399999728,None,,,,,,,,,,,,,,,,,,,,,,,,,,,,,,,,,,,,,,,,,,,,,,,,,,,,,,,,,,,,,,,,,,,,,,,,,,,,,,,,,,,,,,,,,,105,f,22,2022_Nov_25_1329,RL,2021.2.3,59.89907006632822,
,,,,,,,,,,,19.157884299995203,None,space,82.95592049999686,19.157884299995203,None,,,,,,,,,,,,,,,,,,,,,,,,,,,,,,,,,,,,,,,,,,,,,,,,,,,,,,,,,,,,,,,,,,,,,,,,,,,,,,,,,,,,105,f,22,2022_Nov_25_1329,RL,2021.2.3,59.89907006632822,
1,0,0,0,0,,,,,,,,,,,,,102.13778959999763,None,None,None,None,None,None,103.17179010000109,None,103.17179010000109,None,103.17179010000109,None,103.17179010000109,None,i,1.0480846999998903,103.17179010000109,None,103.17179010000109,None,104.2845215999987,None,104.2845215999987,None,104.2845215999987,None,104.2845215999987,None,104.2845215999987,None,104.2845215999987,None,104.58166229999915,None,104.58166229999915,None,105.6297642999998,None,105.6297642999998,None,105.6297642999998,None,105.6297642999998,None,105.6297642999998,None,105.6297642999998,None,105.6297642999998,None,105.6297642999998,None,105.6297642999998,None,26,44,65,64,65,49,108.1392601999978,None,5.0,5.444285300000047,108.1392601999978,None,108.1392601999978,None,108.1392601999978,None,108.1392601999978,None,None,None,113.6405353999944,None,,,,,,,105,f,22,2022_Nov_25_1329,RL,2021.2.3,59.89907006632822,
1,1,0,1,0,,,,,,,,,,,,,,,None,None,None,None,None,115.40702129999408,None,115.40702129999408,None,115.40702129999408,None,115.40702129999408,None,r,1.0036003999994136,115.40702129999408,None,115.40702129999408,None,116.46176689999993,None,116.46176689999993,None,116.46176689999993,None,116.46176689999993,None,116.46176689999993,None,116.46176689999993,None,116.75646869999764,None,116.75646869999764,None,118.12759499999811,None,118.12759499999811,None,118.12759499999811,None,118.12759499999811,None,118.12759499999811,None,118.12759499999811,None,118.12759499999811,None,118.12759499999811,None,118.12759499999811,None,36,59,62,65,36,43,120.6397072999971,None,3.0,4.273370299997623,120.6397072999971,None,120.6397072999971,None,120.6397072999971,None,120.6397072999971,None,None,None,124.92886529999669,None,,,,,,,105,f,22,2022_Nov_25_1329,RL,2021.2.3,59.89907006632822,
1,2,0,2,0,,,,,,,,,,,,,,,None,None,None,None,None,126.66447429999971,None,126.66447429999971,None,126.66447429999971,None,126.66447429999971,None,i,0.7362303999980213,126.66447429999971,None,126.66447429999971,None,127.45500719999836,None,127.45500719999836,None,127.45500719999836,None,127.45500719999836,None,127.45500719999836,None,127.45500719999836,None,127.74757509999472,128.73149379999813,127.74757509999472,128.73149379999813,128.77360889999545,None,128.77360889999545,None,128.77360889999545,None,128.77360889999545,None,128.77360889999545,None,128.77360889999545,None,128.77360889999545,None,128.77360889999545,None,128.77360889999545,None,40,58,58,64,58,45,131.28059199999552,None,5.0,3.6729836000013165,131.28059199999552,None,131.28059199999552,None,131.28059199999552,None,131.28059199999552,None,None,None,134.96897819999867,None,,,,,,,105,f,22,2022_Nov_25_1329,RL,2021.2.3,59.89907006632822,
1,3,0,3,0,,,,,,,,,,,,,,,None,None,None,None,None,136.82045609999477,None,136.82045609999477,None,136.82045609999477,None,136.82045609999477,None,None,,136.82045609999477,None,136.82045609999477,None,None,None,None,None,None,None,None,None,None,None,None,None,None,None,None,None,None,None,None,None,None,None,None,None,None,None,None,None,None,None,None,None,None,None,32,51,57,59,0,**,None,None,None,None,None,None,None,None,None,None,None,None,138.35921450000023,None,142.874189999995,None,,,,,,,105,f,22,2022_Nov_25_1329,RL,2021.2.3,59.89907006632822,
1,4,0,4,0,,,,,,,,,,,,,,,None,None,None,None,None,144.70927039999515,None,144.70927039999515,None,144.70927039999515,None,144.70927039999515,None,j,0.9922908000007737,144.70927039999515,None,144.70927039999515,None,145.73972289999801,None,145.73972289999801,None,145.73972289999801,None,145.73972289999801,None,145.73972289999801,None,145.73972289999801,None,146.02694350000093,147.4109771000003,146.02694350000093,147.4109771000003,147.43252940000093,None,147.43252940000093,None,147.43252940000093,None,147.43252940000093,None,147.43252940000093,None,147.43252940000093,None,147.43252940000093,None,147.43252940000093,None,147.43252940000093,None,34,50,59,58,58,71,149.94885839999915,None,3.0,3.731055500000366,149.94885839999915,None,149.94885839999915,None,149.94885839999915,None,149.94885839999915,None,None,None,153.70320619999984,None,,,,,,,105,f,22,2022_Nov_25_1329,RL,2021.2.3,59.89907006632822,
1,5,0,5,0,,,,,,,,,,,,,,,None,None,None,None,None,155.3691101000004,None,155.3691101000004,None,155.3691101000004,None,155.3691101000004,None,f,0.522222799998417,155.3691101000004,None,155.3691101000004,None,155.93689509999967,None,155.93689509999967,None,155.93689509999967,None,155.93689509999967,None,155.93689509999967,None,155.93689509999967,None,156.23387809999986,157.5349017999979,156.23387809999986,157.5349017999979,157.57503319999523,None,157.57503319999523,None,157.57503319999523,None,157.57503319999523,None,157.57503319999523,None,157.57503319999523,None,157.57503319999523,None,157.57503319999523,None,157.57503319999523,None,31,54,62,59,54,38,160.10138119999465,None,5.0,3.0724804000055883,160.10138119999465,None,160.10138119999465,None,160.10138119999465,None,160.10138119999465,None,None,None,163.19113269999798,None,,,,,,,105,f,22,2022_Nov_25_1329,RL,2021.2.3,59.89907006632822,
1,6,0,6,0,,,,,,,,,,,,,,,None,None,None,None,None,165.14616649999516,None,165.14616649999516,None,165.14616649999516,None,165.14616649999516,None,j,0.645523699997284,165.14616649999516,None,165.14616649999516,None,165.82793979999406,None,165.82793979999406,None,165.82793979999406,None,165.82793979999406,None,165.82793979999406,None,165.82793979999406,None,166.12429079999856,None,166.12429079999856,None,167.58521189999738,None,167.58521189999738,None,167.58521189999738,None,167.58521189999738,None,167.58521189999738,None,167.58521189999738,None,167.58521189999738,None,167.58521189999738,None,167.58521189999738,None,44,59,52,53,53,50,170.10812989999977,None,4.0,2.8725076999980956,170.10812989999977,None,170.10812989999977,None,170.10812989999977,None,170.10812989999977,None,None,None,172.99640009999712,None,,,,,,,105,f,22,2022_Nov_25_1329,RL,2021.2.3,59.89907006632822,
1,7,0,7,0,,,,,,,,,,,,,,,None,None,None,None,None,174.7014771999966,None,174.7014771999966,None,174.7014771999966,None,174.7014771999966,None,i,0.45043409999925643,174.7014771999966,None,174.7014771999966,None,175.20828469999833,None,175.20828469999833,None,175.20828469999833,None,175.20828469999833,None,175.20828469999833,None,175.20828469999833,None,175.49919399999635,None,175.49919399999635,None,176.89376219999394,None,176.89376219999394,None,176.89376219999394,None,176.89376219999394,None,176.89376219999394,None,176.89376219999394,None,176.89376219999394,None,176.89376219999394,None,176.89376219999394,None,41,52,54,61,54,48,179.4050303999975,None,4.0,2.7330598999978974,179.4050303999975,None,179.4050303999975,None,179.4050303999975,None,179.4050303999975,None,None,None,182.15238200000022,None,,,,,,,105,f,22,2022_Nov_25_1329,RL,2021.2.3,59.89907006632822,
1,8,0,8,0,,,,,,,,,,,,,,,None,None,None,None,None,183.9362650999974,None,183.9362650999974,None,183.9362650999974,None,183.9362650999974,None,f,0.5159596000012243,183.9362650999974,None,183.9362650999974,None,184.4824598999985,None,184.4824598999985,None,184.4824598999985,None,184.4824598999985,None,184.4824598999985,None,184.4824598999985,None,184.77056589999847,185.97143819999474,184.77056589999847,185.97143819999474,186.00896789999388,None,186.00896789999388,None,186.00896789999388,None,186.00896789999388,None,186.00896789999388,None,186.00896789999388,None,186.00896789999388,None,186.00896789999388,None,186.00896789999388,None,41,54,59,56,54,61,188.52981989999535,None,3.0,2.561582800000906,188.52981989999535,None,188.52981989999535,None,188.52981989999535,None,188.52981989999535,None,None,None,191.10792569999467,None,,,,,,,105,f,22,2022_Nov_25_1329,RL,2021.2.3,59.89907006632822,
1,9,0,9,0,,,,,,,,,,,,,,,None,None,None,None,None,192.90924839999934,None,192.90924839999934,None,192.90924839999934,None,192.90924839999934,None,i,0.562865600004443,192.90924839999934,None,192.90924839999934,None,193.51990210000076,None,193.51990210000076,None,193.51990210000076,None,193.51990210000076,None,193.51990210000076,None,193.51990210000076,None,193.81005689999438,195.09436179999466,193.81005689999438,195.09436179999466,195.1259396999958,None,195.1259396999958,None,195.1259396999958,None,195.1259396999958,None,195.1259396999958,None,195.1259396999958,None,195.1259396999958,None,195.1259396999958,None,195.1259396999958,None,40,40,55,54,55,67,197.642216799999,None,2.0,3.5924035999996704,197.642216799999,None,197.642216799999,None,197.642216799999,None,197.642216799999,None,None,None,201.2578624999951,None,,,,,,,105,f,22,2022_Nov_25_1329,RL,2021.2.3,59.89907006632822,
1,10,0,10,0,,,,,,,,,,,,,,,None,None,None,None,None,202.90219399999478,None,202.90219399999478,None,202.90219399999478,None,202.90219399999478,None,r,0.639732700001332,202.90219399999478,None,202.90219399999478,None,203.58951309999975,None,203.58951309999975,None,203.58951309999975,None,203.58951309999975,None,203.58951309999975,None,203.58951309999975,None,203.86698369999795,204.90100549999624,203.86698369999795,204.90100549999624,204.9317618999994,None,204.9317618999994,None,204.9317618999994,None,204.9317618999994,None,204.9317618999994,None,204.9317618999994,None,204.9317618999994,None,204.9317618999994,None,204.9317618999994,None,49,40,56,50,49,77,207.4493039000008,None,2.0,3.9083272999996552,207.4493039000008,None,207.4493039000008,None,207.4493039000008,None,207.4493039000008,None,None,None,211.3719401999988,None,,,,,,,105,f,22,2022_Nov_25_1329,RL,2021.2.3,59.89907006632822,
1,11,0,11,0,,,,,,,,,,,,,,,None,None,None,None,None,213.1597146999993,None,213.1597146999993,None,213.1597146999993,None,213.1597146999993,None,i,0.6725813999946695,213.1597146999993,None,213.1597146999993,None,213.87251229999674,None,213.87251229999674,None,213.87251229999674,None,213.87251229999674,None,213.87251229999674,None,213.87251229999674,None,214.17408240000077,None,214.17408240000077,None,215.22005369999533,None,215.22005369999533,None,215.22005369999533,None,215.22005369999533,None,215.22005369999533,None,215.22005369999533,None,215.22005369999533,None,215.22005369999533,None,215.22005369999533,None,42,48,64,46,64,74,217.73734989999502,None,2.0,2.858531199999561,217.73734989999502,None,217.73734989999502,None,217.73734989999502,None,217.73734989999502,None,None,None,220.61848979999922,None,,,,,,,105,f,22,2022_Nov_25_1329,RL,2021.2.3,59.89907006632822,
1,12,0,12,0,,,,,,,,,,,,,,,None,None,None,None,None,222.3493196999989,None,222.3493196999989,None,222.3493196999989,None,222.3493196999989,None,i,0.8630202999993344,222.3493196999989,None,222.3493196999989,None,223.24819990000105,None,223.24819990000105,None,223.24819990000105,None,223.24819990000105,None,223.24819990000105,None,223.24819990000105,None,223.54737469999964,None,223.54737469999964,None,225.44645019999734,None,225.44645019999734,None,225.44645019999734,None,225.44645019999734,None,225.44645019999734,None,225.44645019999734,None,225.44645019999734,None,225.44645019999734,None,225.44645019999734,None,41,48,61,43,61,62,227.94890859999578,None,3.0,4.038812999999209,227.94890859999578,None,227.94890859999578,None,227.94890859999578,None,227.94890859999578,None,None,None,232.00298789999943,None,,,,,,,105,f,22,2022_Nov_25_1329,RL,2021.2.3,59.89907006632822,
1,13,0,13,0,,,,,,,,,,,,,,,None,None,None,None,None,233.6114333000005,None,233.6114333000005,None,233.6114333000005,None,233.6114333000005,None,i,0.6110274000020581,233.6114333000005,None,233.6114333000005,None,234.2618580999988,None,234.2618580999988,None,234.2618580999988,None,234.2618580999988,None,234.2618580999988,None,234.2618580999988,None,234.55532909999602,None,234.55532909999602,None,235.40923589999875,None,235.40923589999875,None,235.40923589999875,None,235.40923589999875,None,235.40923589999875,None,235.40923589999875,None,235.40923589999875,None,235.40923589999875,None,235.40923589999875,None,39,50,62,40,62,68,237.94233519999398,None,4.0,5.621782600006554,237.94233519999398,None,237.94233519999398,None,237.94233519999398,None,237.94233519999398,None,None,None,243.57769009999902,None,,,,,,,105,f,22,2022_Nov_25_1329,RL,2021.2.3,59.89907006632822,
1,14,0,14,0,,,,,,,,,,,,,,,None,None,None,None,None,245.26340929999424,None,245.26340929999424,None,245.26340929999424,None,245.26340929999424,None,i,0.4993536999973003,245.26340929999424,None,245.26340929999424,None,245.80166579999786,None,245.80166579999786,None,245.80166579999786,None,245.80166579999786,None,245.80166579999786,None,245.80166579999786,None,246.09637669999938,None,246.09637669999938,None,247.29525250000006,None,247.29525250000006,None,247.29525250000006,None,247.29525250000006,None,247.29525250000006,None,247.29525250000006,None,247.29525250000006,None,247.29525250000006,None,247.29525250000006,None,56,50,58,45,58,66,249.81561520000105,None,3.0,2.7196758999998565,249.81561520000105,None,249.81561520000105,None,249.81561520000105,None,249.81561520000105,None,None,None,252.55059400000027,None,,,,,,,105,f,22,2022_Nov_25_1329,RL,2021.2.3,59.89907006632822,
1,15,0,15,0,,,,,,,,,,,,,,,None,None,None,None,None,254.104373999995,None,254.104373999995,None,254.104373999995,None,254.104373999995,None,j,0.837683300000208,254.104373999995,None,254.104373999995,None,254.98976309999853,None,254.98976309999853,None,254.98976309999853,None,254.98976309999853,None,254.98976309999853,None,254.98976309999853,None,255.28602949999913,256.2197793999949,255.28602949999913,256.2197793999949,256.2411976000003,None,256.2411976000003,None,256.2411976000003,None,256.2411976000003,None,256.2411976000003,None,256.2411976000003,None,256.2411976000003,None,256.2411976000003,None,256.2411976000003,None,54,41,52,50,50,34,258.77651359999436,None,5.0,2.5014032000035513,258.77651359999436,None,258.77651359999436,None,258.77651359999436,None,258.77651359999436,None,None,None,261.294745399995,None,,,,,,,105,f,22,2022_Nov_25_1329,RL,2021.2.3,59.89907006632822,
1,16,0,16,0,,,,,,,,,,,,,,,None,None,None,None,None,263.1442179000005,None,263.1442179000005,None,263.1442179000005,None,263.1442179000005,None,j,0.6783937000000151,263.1442179000005,None,263.1442179000005,None,263.8680020999964,None,263.8680020999964,None,263.8680020999964,None,263.8680020999964,None,263.8680020999964,None,263.8680020999964,None,264.15900639999745,265.5931444999951,264.15900639999745,265.5931444999951,265.620588400001,None,265.620588400001,None,265.620588400001,None,265.620588400001,None,265.620588400001,None,265.620588400001,None,265.620588400001,None,265.620588400001,None,265.620588400001,None,57,54,59,55,55,61,268.13893449999887,None,3.0,3.1733502999995835,268.13893449999887,None,268.13893449999887,None,268.13893449999887,None,268.13893449999887,None,None,None,271.33025169999746,None,,,,,,,105,f,22,2022_Nov_25_1329,RL,2021.2.3,59.89907006632822,
1,17,0,17,0,,,,,,,,,,,,,,,None,None,None,None,None,272.9315801999983,None,272.9315801999983,None,272.9315801999983,None,272.9315801999983,None,j,0.9807960000034655,272.9315801999983,None,272.9315801999983,None,273.9660714999991,None,273.9660714999991,None,273.9660714999991,None,273.9660714999991,None,273.9660714999991,None,273.9660714999991,None,274.2659121999968,None,274.2659121999968,None,275.6183072999993,None,275.6183072999993,None,275.6183072999993,None,275.6183072999993,None,275.6183072999993,None,275.6183072999993,None,275.6183072999993,None,275.6183072999993,None,275.6183072999993,None,57,47,45,51,51,28,278.1257378999944,None,6.0,3.211321200004022,278.1257378999944,None,278.1257378999944,None,278.1257378999944,None,278.1257378999944,None,None,None,281.3541247999965,None,,,,,,,105,f,22,2022_Nov_25_1329,RL,2021.2.3,59.89907006632822,
1,18,0,18,0,,,,,,,,,,,,,,,None,None,None,None,None,283.12468429999717,None,283.12468429999717,None,283.12468429999717,None,283.12468429999717,None,j,0.4982333999942057,283.12468429999717,None,283.12468429999717,None,283.66494819999934,None,283.66494819999934,None,283.66494819999934,None,283.66494819999934,None,283.66494819999934,None,283.66494819999934,None,283.9676538999993,None,283.9676538999993,None,285.18691549999494,None,285.18691549999494,None,285.18691549999494,None,285.18691549999494,None,285.18691549999494,None,285.18691549999494,None,285.18691549999494,None,285.18691549999494,None,285.18691549999494,None,55,53,52,46,46,40,287.7090934999942,None,5.0,2.4387585000004037,287.7090934999942,None,287.7090934999942,None,287.7090934999942,None,287.7090934999942,None,None,None,290.1615734999941,None,,,,,,,105,f,22,2022_Nov_25_1329,RL,2021.2.3,59.89907006632822,
1,19,0,19,0,,,,,,,,,,,,,,,None,None,None,None,None,291.9278368999949,None,291.9278368999949,None,291.9278368999949,None,291.9278368999949,None,j,0.7147897999966517,291.9278368999949,None,291.9278368999949,None,292.6783498999939,None,292.6783498999939,None,292.6783498999939,None,292.6783498999939,None,292.6783498999939,None,292.6783498999939,None,292.96224280000024,294.4966815999942,292.96224280000024,294.4966815999942,294.5346920999946,None,294.5346920999946,None,294.5346920999946,None,294.5346920999946,None,294.5346920999946,None,294.5346920999946,None,294.5346920999946,None,294.5346920999946,None,294.5346920999946,None,66,53,53,54,54,39,297.0428032999989,None,6.0,2.508854899999278,297.0428032999989,None,297.0428032999989,None,297.0428032999989,None,297.0428032999989,None,None,None,299.5668727999946,None,,,,,,,105,f,22,2022_Nov_25_1329,RL,2021.2.3,59.89907006632822,
1,20,0,20,0,,,,,,,,,,,,,,,None,None,None,None,None,301.37701079999533,None,301.37701079999533,None,301.37701079999533,None,301.37701079999533,None,j,0.6959753999981331,301.37701079999533,None,301.37701079999533,None,302.1253044999976,None,302.1253044999976,None,302.1253044999976,None,302.1253044999976,None,302.1253044999976,None,302.1253044999976,None,302.41881029999786,303.3691331000009,302.41881029999786,303.3691331000009,303.41004659999453,None,303.41004659999453,None,303.41004659999453,None,303.41004659999453,None,303.41004659999453,None,303.41004659999453,None,303.41004659999453,None,303.41004659999453,None,303.41004659999453,None,44,44,48,57,57,47,305.9220365000001,None,5.0,2.2183525000000373,305.9220365000001,None,305.9220365000001,None,305.9220365000001,None,305.9220365000001,None,None,None,308.15557779999654,None,,,,,,,105,f,22,2022_Nov_25_1329,RL,2021.2.3,59.89907006632822,
1,21,0,21,0,,,,,,,,,,,,,,,None,None,None,None,None,309.7068683999969,None,309.7068683999969,None,309.7068683999969,None,309.7068683999969,None,j,0.5866257999950903,309.7068683999969,None,309.7068683999969,None,310.34721689999424,None,310.34721689999424,None,310.34721689999424,None,310.34721689999424,None,310.34721689999424,None,310.34721689999424,None,310.6244169999991,312.4088711999939,310.6244169999991,312.4088711999939,312.43907919999765,None,312.43907919999765,None,312.43907919999765,None,312.43907919999765,None,312.43907919999765,None,312.43907919999765,None,312.43907919999765,None,312.43907919999765,None,312.43907919999765,None,53,47,45,57,57,70,314.9521839000008,None,3.0,2.0304103000016767,314.9521839000008,None,314.9521839000008,None,314.9521839000008,None,314.9521839000008,None,None,None,316.99747429999843,None,,,,,,,105,f,22,2022_Nov_25_1329,RL,2021.2.3,59.89907006632822,
1,22,0,22,0,,,,,,,,,,,,,,,None,None,None,None,None,318.6196880999996,None,318.6196880999996,None,318.6196880999996,None,318.6196880999996,None,i,0.8444616999986465,318.6196880999996,None,318.6196880999996,None,319.5037360999995,None,319.5037360999995,None,319.5037360999995,None,319.5037360999995,None,319.5037360999995,None,319.5037360999995,None,319.7974782999954,None,319.7974782999954,None,321.29623359999823,None,321.29623359999823,None,321.29623359999823,None,321.29623359999823,None,321.29623359999823,None,321.29623359999823,None,321.29623359999823,None,321.29623359999823,None,321.29623359999823,None,55,46,60,57,60,79,323.81253099999594,None,2.0,2.8399582999991253,323.81253099999594,None,323.81253099999594,None,323.81253099999594,None,323.81253099999594,None,None,None,326.6686550999948,None,,,,,,,105,f,22,2022_Nov_25_1329,RL,2021.2.3,59.89907006632822,
1,23,0,23,0,,,,,,,,,,,,,,,None,None,None,None,None,328.5713811999958,None,328.5713811999958,None,328.5713811999958,None,328.5713811999958,None,f,0.5224283000061405,328.5713811999958,None,328.5713811999958,None,329.15250340000057,None,329.15250340000057,None,329.15250340000057,None,329.15250340000057,None,329.15250340000057,None,329.15250340000057,None,329.43746109999483,330.5213914999986,329.43746109999483,330.5213914999986,330.55471069999476,None,330.55471069999476,None,330.55471069999476,None,330.55471069999476,None,330.55471069999476,None,330.55471069999476,None,330.55471069999476,None,330.55471069999476,None,330.55471069999476,None,52,58,57,59,58,77,333.07689440000104,None,2.0,2.5674852000011015,333.07689440000104,None,333.07689440000104,None,333.07689440000104,None,333.07689440000104,None,None,None,335.6693207999997,None,,,,,,,105,f,22,2022_Nov_25_1329,RL,2021.2.3,59.89907006632822,
1,24,0,24,0,,,,,,,,,,,,,,,None,None,None,None,None,337.3956870999973,None,337.3956870999973,None,337.3956870999973,None,337.3956870999973,None,j,1.0081831999996211,337.3956870999973,None,337.3956870999973,None,338.44888229999924,None,338.44888229999924,None,338.44888229999924,None,338.44888229999924,None,338.44888229999924,None,338.44888229999924,None,338.7438974999968,None,338.7438974999968,None,340.67193479999696,None,340.67193479999696,None,340.67193479999696,None,340.67193479999696,None,340.67193479999696,None,340.67193479999696,None,340.67193479999696,None,340.67193479999696,None,340.67193479999696,None,52,45,56,45,45,42,343.1959659999993,None,4.0,2.3223675999979605,343.1959659999993,None,343.1959659999993,None,343.1959659999993,None,343.1959659999993,None,None,None,345.5323048999999,None,,,,,,,105,f,22,2022_Nov_25_1329,RL,2021.2.3,59.89907006632822,
1,25,0,25,0,,,,,,,,,,,,,,,None,None,None,None,None,347.1354904999971,None,347.1354904999971,None,347.1354904999971,None,347.1354904999971,None,j,0.5385431000031531,347.1354904999971,None,347.1354904999971,None,347.7199995999981,None,347.7199995999981,None,347.7199995999981,None,347.7199995999981,None,347.7199995999981,None,347.7199995999981,None,348.01700580000033,349.00093569999444,348.01700580000033,349.00093569999444,349.03692579999915,None,349.03692579999915,None,349.03692579999915,None,349.03692579999915,None,349.03692579999915,None,349.03692579999915,None,349.03692579999915,None,349.03692579999915,None,349.03692579999915,None,50,50,63,55,55,61,351.5495526999948,None,4.0,2.762568399994052,351.5495526999948,None,351.5495526999948,None,351.5495526999948,None,351.5495526999948,None,None,None,354.32637489999615,None,,,,,,,105,f,22,2022_Nov_25_1329,RL,2021.2.3,59.89907006632822,
1,26,0,26,0,,,,,,,,,,,,,,,None,None,None,None,None,356.25908139999956,None,356.25908139999956,None,356.25908139999956,None,356.25908139999956,None,i,0.4650254000007408,356.25908139999956,None,356.25908139999956,None,356.7627929999944,None,356.7627929999944,None,356.7627929999944,None,356.7627929999944,None,356.7627929999944,None,356.7627929999944,None,357.0660948999939,None,357.0660948999939,None,357.8965353999956,None,357.8965353999956,None,357.8965353999956,None,357.8965353999956,None,357.8965353999956,None,357.8965353999956,None,357.8965353999956,None,357.8965353999956,None,357.8965353999956,None,42,55,62,59,62,60,360.4221696999957,None,4.0,1.8743504999947618,360.4221696999957,None,360.4221696999957,None,360.4221696999957,None,360.4221696999957,None,None,None,362.31006859999616,None,,,,,,,105,f,22,2022_Nov_25_1329,RL,2021.2.3,59.89907006632822,
1,27,0,27,0,,,,,,,,,,,,,,,None,None,None,None,None,364.21414340000047,None,364.21414340000047,None,364.21414340000047,None,364.21414340000047,None,None,,364.21414340000047,None,364.21414340000047,None,None,None,None,None,None,None,None,None,None,None,None,None,None,None,None,None,None,None,None,None,None,None,None,None,None,None,None,None,None,None,None,None,None,None,55,45,66,48,0,**,None,None,None,None,None,None,None,None,None,None,None,None,365.7580747999964,None,370.26544779999676,None,,,,,,,105,f,22,2022_Nov_25_1329,RL,2021.2.3,59.89907006632822,
1,28,0,28,0,,,,,,,,,,,,,,,None,None,None,None,None,371.9835294000004,None,371.9835294000004,None,371.9835294000004,None,371.9835294000004,None,i,0.660125499998685,371.9835294000004,None,371.9835294000004,None,372.6895363000003,None,372.6895363000003,None,372.6895363000003,None,372.6895363000003,None,372.6895363000003,None,372.6895363000003,None,372.9842808999965,374.7691851999989,372.9842808999965,374.7691851999989,374.80194559999654,None,374.80194559999654,None,374.80194559999654,None,374.80194559999654,None,374.80194559999654,None,374.80194559999654,None,374.80194559999654,None,374.80194559999654,None,374.80194559999654,None,52,50,59,50,59,56,377.31388299999526,None,3.0,2.375510400001076,377.31388299999526,None,377.31388299999526,None,377.31388299999526,None,377.31388299999526,None,None,None,379.7052656999949,None,,,,,,,105,f,22,2022_Nov_25_1329,RL,2021.2.3,59.89907006632822,
1,29,0,29,0,,,,,,,,,,,,,,,None,None,None,None,None,381.6096111000006,None,381.6096111000006,None,381.6096111000006,None,381.6096111000006,None,i,0.5744369999956689,381.6096111000006,None,381.6096111000006,None,382.2219397000008,None,382.2219397000008,None,382.2219397000008,None,382.2219397000008,None,382.2219397000008,None,382.2219397000008,None,382.50753260000056,383.8417113999967,382.50753260000056,383.8417113999967,383.8769872999983,None,383.8769872999983,None,383.8769872999983,None,383.8769872999983,None,383.8769872999983,None,383.8769872999983,None,383.8769872999983,None,383.8769872999983,None,383.8769872999983,None,55,53,58,44,58,54,386.39951579999615,None,5.0,2.5342837999996846,386.39951579999615,None,386.39951579999615,None,386.39951579999615,None,386.39951579999615,None,None,None,388.9522958999951,None,,,,,,,105,f,22,2022_Nov_25_1329,RL,2021.2.3,59.89907006632822,
1,30,0,30,0,,,,,,,,,,,,,,,None,None,None,None,None,390.73139380000066,None,390.73139380000066,None,390.73139380000066,None,390.73139380000066,None,i,0.5528507999988506,390.73139380000066,None,390.73139380000066,None,391.33305489999475,None,391.33305489999475,None,391.33305489999475,None,391.33305489999475,None,391.33305489999475,None,391.33305489999475,None,391.6317215999952,None,391.6317215999952,None,392.76239579999674,None,392.76239579999674,None,392.76239579999674,None,392.76239579999674,None,392.76239579999674,None,392.76239579999674,None,392.76239579999674,None,392.76239579999674,None,392.76239579999674,None,61,47,50,53,50,51,395.27743349999946,None,4.0,1.3410722999979043,395.27743349999946,None,395.27743349999946,None,395.27743349999946,None,395.27743349999946,None,None,None,396.6339339999977,None,,,,,,,105,f,22,2022_Nov_25_1329,RL,2021.2.3,59.89907006632822,
1,31,0,31,0,,,,,,,,,,,,,,,None,None,None,None,None,398.20525899999484,None,398.20525899999484,None,398.20525899999484,None,398.20525899999484,None,i,0.5687369000006584,398.20525899999484,None,398.20525899999484,None,398.8229563999994,None,398.8229563999994,None,398.8229563999994,None,398.8229563999994,None,398.8229563999994,None,398.8229563999994,None,399.1194286999962,None,399.1194286999962,None,400.16547549999814,None,400.16547549999814,None,400.16547549999814,None,400.16547549999814,None,400.16547549999814,None,400.16547549999814,None,400.16547549999814,None,400.16547549999814,None,400.16547549999814,None,52,51,48,49,48,56,402.68786539999564,None,2.0,3.7021082999999635,402.68786539999564,None,402.68786539999564,None,402.68786539999564,None,402.68786539999564,None,None,None,406.40739380000014,None,,,,,,,105,f,22,2022_Nov_25_1329,RL,2021.2.3,59.89907006632822,
1,32,0,32,0,,,,,,,,,,,,,,,None,None,None,None,None,408.028616399999,None,408.028616399999,None,408.028616399999,None,408.028616399999,None,j,0.5461128000024473,408.028616399999,None,408.028616399999,None,408.6141157999955,None,408.6141157999955,None,408.6141157999955,None,408.6141157999955,None,408.6141157999955,None,408.6141157999955,None,408.9092396999986,None,408.9092396999986,None,409.76898190000065,None,409.76898190000065,None,409.76898190000065,None,409.76898190000065,None,409.76898190000065,None,409.76898190000065,None,409.76898190000065,None,409.76898190000065,None,409.76898190000065,None,58,44,46,49,49,63,412.28821959999914,None,1.0,2.409691799999564,412.28821959999914,None,412.28821959999914,None,412.28821959999914,None,412.28821959999914,None,None,None,414.7146760999967,None,,,,,,,105,f,22,2022_Nov_25_1329,RL,2021.2.3,59.89907006632822,
1,33,0,33,0,,,,,,,,,,,,,,,None,None,None,None,None,416.6620064999952,None,416.6620064999952,None,416.6620064999952,None,416.6620064999952,None,j,0.5923744999963674,416.6620064999952,None,416.6620064999952,None,417.30030189999525,None,417.30030189999525,None,417.30030189999525,None,417.30030189999525,None,417.30030189999525,None,417.30030189999525,None,417.6001405999996,None,417.6001405999996,None,418.8787413999962,None,418.8787413999962,None,418.8787413999962,None,418.8787413999962,None,418.8787413999962,None,418.8787413999962,None,418.8787413999962,None,418.8787413999962,None,418.8787413999962,None,65,54,49,39,39,51,421.4006842999952,None,1.0,2.285601099996711,421.4006842999952,None,421.4006842999952,None,421.4006842999952,None,421.4006842999952,None,None,None,423.70232739999483,None,,,,,,,105,f,22,2022_Nov_25_1329,RL,2021.2.3,59.89907006632822,
1,34,0,34,0,,,,,,,,,,,,,,,None,None,None,None,None,425.5788845999996,None,425.5788845999996,None,425.5788845999996,None,425.5788845999996,None,r,0.6256690000009257,425.5788845999996,None,425.5788845999996,None,426.2433183999965,None,426.2433183999965,None,426.2433183999965,None,426.2433183999965,None,426.2433183999965,None,426.2433183999965,None,426.5382462999987,428.0223499999993,426.5382462999987,428.0223499999993,428.05164890000015,None,428.05164890000015,None,428.05164890000015,None,428.05164890000015,None,428.05164890000015,None,428.05164890000015,None,428.05164890000015,None,428.05164890000015,None,428.05164890000015,None,59,58,52,41,59,55,430.56913150000037,None,4.0,2.3757973999963724,430.56913150000037,None,430.56913150000037,None,430.56913150000037,None,430.56913150000037,None,None,None,432.95885749999434,None,,,,,,,105,f,22,2022_Nov_25_1329,RL,2021.2.3,59.89907006632822,
1,35,0,35,0,,,,,,,,,,,,,,,None,None,None,None,None,434.46272820000013,None,434.46272820000013,None,434.46272820000013,None,434.46272820000013,None,r,0.7621826000031433,434.46272820000013,None,434.46272820000013,None,435.2664689999947,None,435.2664689999947,None,435.2664689999947,None,435.2664689999947,None,435.2664689999947,None,435.2664689999947,None,435.5610553999941,None,435.5610553999941,None,436.96190669999487,None,436.96190669999487,None,436.96190669999487,None,436.96190669999487,None,436.96190669999487,None,436.96190669999487,None,436.96190669999487,None,436.96190669999487,None,436.96190669999487,None,66,57,48,39,66,55,439.4701445999963,None,5.0,2.507603400001244,439.4701445999963,None,439.4701445999963,None,439.4701445999963,None,439.4701445999963,None,None,None,441.998139299998,None,,,,,,,105,f,22,2022_Nov_25_1329,RL,2021.2.3,59.89907006632822,
1,36,0,36,0,,,,,,,,,,,,,,,None,None,None,None,None,443.88310709999496,None,443.88310709999496,None,443.88310709999496,None,443.88310709999496,None,f,0.5508719999997993,443.88310709999496,None,443.88310709999496,None,444.46012540000083,None,444.46012540000083,None,444.46012540000083,None,444.46012540000083,None,444.46012540000083,None,444.46012540000083,None,444.75065419999737,445.8347993999996,444.75065419999737,445.8347993999996,445.8628185999987,None,445.8628185999987,None,445.8628185999987,None,445.8628185999987,None,445.8628185999987,None,445.8628185999987,None,445.8628185999987,None,445.8628185999987,None,445.8628185999987,None,62,57,53,37,57,66,448.38819249999506,None,5.0,1.3233637000012095,448.38819249999506,None,448.38819249999506,None,448.38819249999506,None,448.38819249999506,None,None,None,449.72095360000094,None,,,,,,,105,f,22,2022_Nov_25_1329,RL,2021.2.3,59.89907006632822,
1,37,0,37,0,,,,,,,,,,,,,,,None,None,None,None,None,451.3074950000009,None,451.3074950000009,None,451.3074950000009,None,451.3074950000009,None,r,1.4671109999981127,451.3074950000009,None,451.3074950000009,None,452.8209347999946,None,452.8209347999946,None,452.8209347999946,None,452.8209347999946,None,452.8209347999946,None,452.8209347999946,None,453.1065720999977,454.7406895999957,453.1065720999977,454.7406895999957,454.762874299995,None,454.762874299995,None,454.762874299995,None,454.762874299995,None,454.762874299995,None,454.762874299995,None,454.762874299995,None,454.762874299995,None,454.762874299995,None,59,58,41,29,59,55,457.28197609999916,None,6.0,2.3979959999996936,457.28197609999916,None,457.28197609999916,None,457.28197609999916,None,457.28197609999916,None,None,None,459.6938392999946,None,,,,,,,105,f,22,2022_Nov_25_1329,RL,2021.2.3,59.89907006632822,
1,38,0,38,0,,,,,,,,,,,,,,,None,None,None,None,None,461.64748659999896,None,461.64748659999896,None,461.64748659999896,None,461.64748659999896,None,i,0.8477309999943827,461.64748659999896,None,461.64748659999896,None,462.54215049999766,None,462.54215049999766,None,462.54215049999766,None,462.54215049999766,None,462.54215049999766,None,462.54215049999766,None,462.8300268999956,464.4974921999965,462.8300268999956,464.4974921999965,464.5196197999976,None,464.5196197999976,None,464.5196197999976,None,464.5196197999976,None,464.5196197999976,None,464.5196197999976,None,464.5196197999976,None,464.5196197999976,None,464.5196197999976,None,51,57,48,37,48,59,467.03555439999764,None,3.0,2.849337800005742,467.03555439999764,None,467.03555439999764,None,467.03555439999764,None,467.03555439999764,None,None,None,469.90611920000083,None,,,,,,,105,f,22,2022_Nov_25_1329,RL,2021.2.3,59.89907006632822,
1,39,0,39,0,,,,,,,,,,,,,,,None,None,None,None,None,471.5214618999962,None,471.5214618999962,None,471.5214618999962,None,471.5214618999962,None,r,0.7231326999972225,471.5214618999962,None,471.5214618999962,None,472.29517909999413,None,472.29517909999413,None,472.29517909999413,None,472.29517909999413,None,472.29517909999413,None,472.29517909999413,None,472.58671719999984,474.2042980999977,472.58671719999984,474.2042980999977,474.2395833999981,None,474.2395833999981,None,474.2395833999981,None,474.2395833999981,None,474.2395833999981,None,474.2395833999981,None,474.2395833999981,None,474.2395833999981,None,474.2395833999981,None,59,69,43,25,59,52,476.75689659999625,None,4.0,1.9675640999994357,476.75689659999625,None,476.75689659999625,None,476.75689659999625,None,476.75689659999625,None,None,None,478.7410583999954,None,,,,,,,105,f,22,2022_Nov_25_1329,RL,2021.2.3,59.89907006632822,
1,40,0,40,0,,,,,,,,,,,,,,,None,None,None,None,None,480.57555180000054,None,480.57555180000054,None,480.57555180000054,None,480.57555180000054,None,r,0.5893002999946475,480.57555180000054,None,480.57555180000054,None,481.2156204999992,None,481.2156204999992,None,481.2156204999992,None,481.2156204999992,None,481.2156204999992,None,481.2156204999992,None,481.50950960000046,None,481.50950960000046,None,482.9436340999964,None,482.9436340999964,None,482.9436340999964,None,482.9436340999964,None,482.9436340999964,None,482.9436340999964,None,482.9436340999964,None,482.9436340999964,None,482.9436340999964,None,61,70,41,35,61,62,485.45350060000055,None,4.0,1.5624819000004209,485.45350060000055,None,485.45350060000055,None,485.45350060000055,None,485.45350060000055,None,None,None,487.0306500999941,None,,,,,,,105,f,22,2022_Nov_25_1329,RL,2021.2.3,59.89907006632822,
1,41,0,41,0,,,,,,,,,,,,,,,None,None,None,None,None,488.91602769999736,None,488.91602769999736,None,488.91602769999736,None,488.91602769999736,None,j,0.7796916000006604,488.91602769999736,None,488.91602769999736,None,489.7284215999971,None,489.7284215999971,None,489.7284215999971,None,489.7284215999971,None,489.7284215999971,None,489.7284215999971,None,490.0155543000001,491.7663809000005,490.0155543000001,491.7663809000005,491.788100699996,None,491.788100699996,None,491.788100699996,None,491.788100699996,None,491.788100699996,None,491.788100699996,None,491.788100699996,None,491.788100699996,None,491.788100699996,None,62,67,48,35,35,67,494.30907009999646,None,1.0,1.245546900005138,494.30907009999646,None,494.30907009999646,None,494.30907009999646,None,494.30907009999646,None,None,None,495.5690751000002,None,,,,,,,105,f,22,2022_Nov_25_1329,RL,2021.2.3,59.89907006632822,
1,42,0,42,0,,,,,,,,,,,,,,,None,None,None,None,None,497.1564003999956,None,497.1564003999956,None,497.1564003999956,None,497.1564003999956,None,r,0.6896414000002551,497.1564003999956,None,497.1564003999956,None,497.8807750999986,None,497.8807750999986,None,497.8807750999986,None,497.8807750999986,None,497.8807750999986,None,497.8807750999986,None,498.1710707999955,None,498.1710707999955,None,499.34131889999844,None,499.34131889999844,None,499.34131889999844,None,499.34131889999844,None,499.34131889999844,None,499.34131889999844,None,499.34131889999844,None,499.34131889999844,None,499.34131889999844,None,65,63,47,33,65,55,501.862384299995,None,5.0,4.8529620000044815,501.862384299995,None,501.862384299995,None,501.862384299995,None,501.862384299995,None,None,None,506.726665999995,None,,,,,,,105,f,22,2022_Nov_25_1329,RL,2021.2.3,59.89907006632822,
1,43,0,43,0,,,,,,,,,,,,,,,None,None,None,None,None,508.511384999998,None,508.511384999998,None,508.511384999998,None,508.511384999998,None,r,0.5641405999995186,508.511384999998,None,508.511384999998,None,509.110749499996,None,509.110749499996,None,509.110749499996,None,509.110749499996,None,509.110749499996,None,509.110749499996,None,509.4122203000006,None,509.4122203000006,None,511.2503310999964,None,511.2503310999964,None,511.2503310999964,None,511.2503310999964,None,511.2503310999964,None,511.2503310999964,None,511.2503310999964,None,511.2503310999964,None,511.2503310999964,None,60,68,34,34,60,59,513.7754855999956,None,4.0,2.409527199997683,513.7754855999956,None,513.7754855999956,None,513.7754855999956,None,513.7754855999956,None,None,None,516.2111825999964,None,,,,,,,105,f,22,2022_Nov_25_1329,RL,2021.2.3,59.89907006632822,
1,44,0,44,0,,,,,,,,,,,,,,,None,None,None,None,None,518.0373580999949,None,518.0373580999949,None,518.0373580999949,None,518.0373580999949,None,f,0.50851110000076,518.0373580999949,None,518.0373580999949,None,518.5878924999997,None,518.5878924999997,None,518.5878924999997,None,518.5878924999997,None,518.5878924999997,None,518.5878924999997,None,518.8855651999984,None,518.8855651999984,None,519.737879100001,None,519.737879100001,None,519.737879100001,None,519.737879100001,None,519.737879100001,None,519.737879100001,None,519.737879100001,None,519.737879100001,None,519.737879100001,None,70,63,53,36,63,53,522.2591247999953,None,6.0,1.5516621000060695,522.2591247999953,None,522.2591247999953,None,522.2591247999953,None,522.2591247999953,None,None,None,523.824483999997,None,,,,,,,105,f,22,2022_Nov_25_1329,RL,2021.2.3,59.89907006632822,
1,45,0,45,0,,,,,,,,,,,,,,,None,None,None,None,None,525.8321070999955,None,525.8321070999955,None,525.8321070999955,None,525.8321070999955,None,f,0.773709000000963,525.8321070999955,None,525.8321070999955,None,526.6347419999947,None,526.6347419999947,None,526.6347419999947,None,526.6347419999947,None,526.6347419999947,None,526.6347419999947,None,526.924577400001,None,526.924577400001,None,528.7391859999989,None,528.7391859999989,None,528.7391859999989,None,528.7391859999989,None,528.7391859999989,None,528.7391859999989,None,528.7391859999989,None,528.7391859999989,None,528.7391859999989,None,55,57,48,38,57,50,531.2492698999995,None,5.0,2.380768700000772,531.2492698999995,None,531.2492698999995,None,531.2492698999995,None,531.2492698999995,None,None,None,533.6534949999987,None,,,,,,,105,f,22,2022_Nov_25_1329,RL,2021.2.3,59.89907006632822,
1,46,0,46,0,,,,,,,,,,,,,,,None,None,None,None,None,535.2162956999964,None,535.2162956999964,None,535.2162956999964,None,535.2162956999964,None,r,0.5696891999978106,535.2162956999964,None,535.2162956999964,None,535.8368344999981,None,535.8368344999981,None,535.8368344999981,None,535.8368344999981,None,535.8368344999981,None,535.8368344999981,None,536.1141621999996,537.9488177999956,536.1141621999996,537.9488177999956,537.986997,None,537.986997,None,537.986997,None,537.986997,None,537.986997,None,537.986997,None,537.986997,None,537.986997,None,537.986997,None,61,61,50,33,61,36,540.5231060000006,None,7.0,2.1198529999965103,540.5231060000006,None,540.5231060000006,None,540.5231060000006,None,540.5231060000006,None,None,None,542.6534256999948,None,,,,,,,105,f,22,2022_Nov_25_1329,RL,2021.2.3,59.89907006632822,
1,47,0,47,0,,,,,,,,,,,,,,,None,None,None,None,None,544.6438433000003,None,544.6438433000003,None,544.6438433000003,None,544.6438433000003,None,r,0.7619086999984575,544.6438433000003,None,544.6438433000003,None,545.457024299998,None,545.457024299998,None,545.457024299998,None,545.457024299998,None,545.457024299998,None,545.457024299998,None,545.7539408999946,None,545.7539408999946,None,547.5508620999972,None,547.5508620999972,None,547.5508620999972,None,547.5508620999972,None,547.5508620999972,None,547.5508620999972,None,547.5508620999972,None,547.5508620999972,None,547.5508620999972,None,53,61,56,38,53,24,550.0673996999976,None,7.0,1.1259606999956304,550.0673996999976,None,550.0673996999976,None,550.0673996999976,None,550.0673996999976,None,None,None,551.2133637000006,None,,,,,,,105,f,22,2022_Nov_25_1329,RL,2021.2.3,59.89907006632822,
1,48,0,48,0,,,,,,,,,,,,,,,None,None,None,None,None,552.7754024999958,None,552.7754024999958,None,552.7754024999958,None,552.7754024999958,None,r,0.9406567999976687,552.7754024999958,None,552.7754024999958,None,553.7657846000002,None,553.7657846000002,None,553.7657846000002,None,553.7657846000002,None,553.7657846000002,None,553.7657846000002,None,554.0601020999966,None,554.0601020999966,None,555.7955163999941,None,555.7955163999941,None,555.7955163999941,None,555.7955163999941,None,555.7955163999941,None,555.7955163999941,None,555.7955163999941,None,555.7955163999941,None,555.7955163999941,None,54,57,53,30,54,64,558.3110958999969,None,3.0,1.8536075000010896,558.3110958999969,None,558.3110958999969,None,558.3110958999969,None,558.3110958999969,None,None,None,560.1804215000011,None,,,,,,,105,f,22,2022_Nov_25_1329,RL,2021.2.3,59.89907006632822,
1,49,0,49,0,,,,,,,,,,,,,,,None,None,None,None,None,561.7667292999977,None,561.7667292999977,None,561.7667292999977,None,561.7667292999977,None,f,0.8895088999997824,561.7667292999977,None,561.7667292999977,None,562.7054218999983,None,562.7054218999983,None,562.7054218999983,None,562.7054218999983,None,562.7054218999983,None,562.7054218999983,None,562.9994077999945,None,562.9994077999945,None,564.0792524999997,None,564.0792524999997,None,564.0792524999997,None,564.0792524999997,None,564.0792524999997,None,564.0792524999997,None,564.0792524999997,None,564.0792524999997,None,564.0792524999997,None,56,68,48,32,68,37,566.6028884999978,None,6.0,2.5515818999992916,566.6028884999978,None,566.6028884999978,None,566.6028884999978,None,566.6028884999978,None,None,None,569.1713973000005,None,,,,,,,105,f,22,2022_Nov_25_1329,RL,2021.2.3,59.89907006632822,
1,50,0,50,0,,,,,,,,,,,,,,,None,None,None,None,None,571.154781499994,None,571.154781499994,None,571.154781499994,None,571.154781499994,None,f,0.8009162000016659,571.154781499994,None,571.154781499994,None,571.9859877999988,None,571.9859877999988,None,571.9859877999988,None,571.9859877999988,None,571.9859877999988,None,571.9859877999988,None,572.2723700999995,573.5900318999993,572.2723700999995,573.5900318999993,573.6254234000007,None,573.6254234000007,None,573.6254234000007,None,573.6254234000007,None,573.6254234000007,None,573.6254234000007,None,573.6254234000007,None,573.6254234000007,None,573.6254234000007,None,45,61,51,32,61,61,576.1498243999959,None,4.0,1.7280355999973835,576.1498243999959,None,576.1498243999959,None,576.1498243999959,None,576.1498243999959,None,None,None,577.8934174999958,None,,,,,,,105,f,22,2022_Nov_25_1329,RL,2021.2.3,59.89907006632822,
1,51,0,51,0,,,,,,,,,,,,,,,None,None,None,None,None,579.8646551999991,None,579.8646551999991,None,579.8646551999991,None,579.8646551999991,None,j,0.6516784999985248,579.8646551999991,None,579.8646551999991,None,580.5666282999955,None,580.5666282999955,None,580.5666282999955,None,580.5666282999955,None,580.5666282999955,None,580.5666282999955,None,580.8617813999954,None,580.8617813999954,None,582.1899715999971,None,582.1899715999971,None,582.1899715999971,None,582.1899715999971,None,582.1899715999971,None,582.1899715999971,None,582.1899715999971,None,582.1899715999971,None,582.1899715999971,None,55,67,57,29,29,71,584.7247294999979,None,1.0,1.6313091999982134,584.7247294999979,None,584.7247294999979,None,584.7247294999979,None,584.7247294999979,None,None,None,586.3716366999943,None,,,,,,,105,f,22,2022_Nov_25_1329,RL,2021.2.3,59.89907006632822,
1,52,0,52,0,,,,,,,,,,,,,,,None,None,None,None,None,587.9182523999989,None,587.9182523999989,None,587.9182523999989,None,587.9182523999989,None,r,0.788164899997355,587.9182523999989,None,587.9182523999989,None,588.7685379999966,None,588.7685379999966,None,588.7685379999966,None,588.7685379999966,None,588.7685379999966,None,588.7685379999966,None,589.050768999994,590.0179878999988,589.050768999994,590.0179878999988,590.0480167999995,None,590.0480167999995,None,590.0480167999995,None,590.0480167999995,None,590.0480167999995,None,590.0480167999995,None,590.0480167999995,None,590.0480167999995,None,590.0480167999995,None,54,64,47,21,54,62,592.5638499999986,None,2.0,2.7413433999972767,592.5638499999986,None,592.5638499999986,None,592.5638499999986,None,592.5638499999986,None,None,None,595.3216882999986,None,,,,,,,105,f,22,2022_Nov_25_1329,RL,2021.2.3,59.89907006632822,
1,53,0,53,0,,,,,,,,,,,,,,,None,None,None,None,None,597.3259054999944,None,597.3259054999944,None,597.3259054999944,None,597.3259054999944,None,f,0.6706111999956192,597.3259054999944,None,597.3259054999944,None,598.0476697999984,None,598.0476697999984,None,598.0476697999984,None,598.0476697999984,None,598.0476697999984,None,598.0476697999984,None,598.3240851999944,599.4077963999953,598.3240851999944,599.4077963999953,599.4413753999979,None,599.4413753999979,None,599.4413753999979,None,599.4413753999979,None,599.4413753999979,None,599.4413753999979,None,599.4413753999979,None,599.4413753999979,None,599.4413753999979,None,49,64,51,20,64,43,601.9549158000009,None,6.0,2.9568845000030706,601.9549158000009,None,601.9549158000009,None,601.9549158000009,None,601.9549158000009,None,None,None,604.9284014000004,None,,,,,,,105,f,22,2022_Nov_25_1329,RL,2021.2.3,59.89907006632822,
1,54,0,54,0,,,,,,,,,,,,,,,None,None,None,None,None,606.5805499999988,None,606.5805499999988,None,606.5805499999988,None,606.5805499999988,None,f,0.6258579000059399,606.5805499999988,None,606.5805499999988,None,607.2483521999966,None,607.2483521999966,None,607.2483521999966,None,607.2483521999966,None,607.2483521999966,None,607.2483521999966,None,607.5471596999996,None,607.5471596999996,None,609.1769354999997,None,609.1769354999997,None,609.1769354999997,None,609.1769354999997,None,609.1769354999997,None,609.1769354999997,None,609.1769354999997,None,609.1769354999997,None,609.1769354999997,None,51,73,56,21,73,37,611.7035365999982,None,7.0,2.832441300000937,611.7035365999982,None,611.7035365999982,None,611.7035365999982,None,611.7035365999982,None,None,None,614.5525354999991,None,,,,,,,105,f,22,2022_Nov_25_1329,RL,2021.2.3,59.89907006632822,
1,55,0,55,0,,,,,,,,,,,,,,,None,None,None,None,None,616.2408800999983,None,616.2408800999983,None,616.2408800999983,None,616.2408800999983,None,f,0.5953860000008717,616.2408800999983,None,616.2408800999983,None,616.8651485000009,None,616.8651485000009,None,616.8651485000009,None,616.8651485000009,None,616.8651485000009,None,616.8651485000009,None,617.1535230999943,618.2041692999992,617.1535230999943,618.2041692999992,618.2338524999941,None,618.2338524999941,None,618.2338524999941,None,618.2338524999941,None,618.2338524999941,None,618.2338524999941,None,618.2338524999941,None,618.2338524999941,None,618.2338524999941,None,63,74,51,32,74,63,620.7567820999975,None,6.0,1.6346967999998014,620.7567820999975,None,620.7567820999975,None,620.7567820999975,None,620.7567820999975,None,None,None,622.4070422000004,None,,,,,,,105,f,22,2022_Nov_25_1329,RL,2021.2.3,59.89907006632822,
1,56,0,56,0,,,,,,,,,,,,,,,None,None,None,None,None,624.0441385999948,None,624.0441385999948,None,624.0441385999948,None,624.0441385999948,None,f,0.7524720000001253,624.0441385999948,None,624.0441385999948,None,624.8472885999945,None,624.8472885999945,None,624.8472885999945,None,624.8472885999945,None,624.8472885999945,None,624.8472885999945,None,625.1426441000003,None,625.1426441000003,None,627.0943707999977,None,627.0943707999977,None,627.0943707999977,None,627.0943707999977,None,627.0943707999977,None,627.0943707999977,None,627.0943707999977,None,627.0943707999977,None,627.0943707999977,None,63,79,60,21,79,56,629.6226622999966,None,6.0,2.6362573000005796,629.6226622999966,None,629.6226622999966,None,629.6226622999966,None,629.6226622999966,None,None,None,632.2637419999955,None,,,,,,,105,f,22,2022_Nov_25_1329,RL,2021.2.3,59.89907006632822,
1,57,0,57,0,,,,,,,,,,,,,,,None,None,None,None,None,633.9832972000004,None,633.9832972000004,None,633.9832972000004,None,633.9832972000004,None,f,0.6031269000013708,633.9832972000004,None,633.9832972000004,None,634.6384124999968,None,634.6384124999968,None,634.6384124999968,None,634.6384124999968,None,634.6384124999968,None,634.6384124999968,None,634.9325466999944,None,634.9325466999944,None,636.6880693999992,None,636.6880693999992,None,636.6880693999992,None,636.6880693999992,None,636.6880693999992,None,636.6880693999992,None,636.6880693999992,None,636.6880693999992,None,636.6880693999992,None,69,74,55,28,74,53,639.2129327000002,None,6.0,1.990927200000442,639.2129327000002,None,639.2129327000002,None,639.2129327000002,None,639.2129327000002,None,None,None,641.2200411999947,None,,,,,,,105,f,22,2022_Nov_25_1329,RL,2021.2.3,59.89907006632822,
1,58,0,58,0,,,,,,,,,,,,,,,None,None,None,None,None,642.7377951999952,None,642.7377951999952,None,642.7377951999952,None,642.7377951999952,None,f,1.008729499997571,642.7377951999952,None,642.7377951999952,None,643.7941760999965,None,643.7941760999965,None,643.7941760999965,None,643.7941760999965,None,643.7941760999965,None,643.7941760999965,None,644.0888601999977,None,644.0888601999977,None,645.0353717999969,None,645.0353717999969,None,645.0353717999969,None,645.0353717999969,None,645.0353717999969,None,645.0353717999969,None,645.0353717999969,None,645.0353717999969,None,645.0353717999969,None,54,77,57,26,77,62,647.5453768000007,None,6.0,1.2657293000011123,647.5453768000007,None,647.5453768000007,None,647.5453768000007,None,647.5453768000007,None,None,None,648.8253987999997,None,,,,,,,105,f,22,2022_Nov_25_1329,RL,2021.2.3,59.89907006632822,
1,59,0,59,0,,,,,,,,,,,,,,,None,None,None,None,None,650.7962901999999,None,650.7962901999999,None,650.7962901999999,None,650.7962901999999,None,f,0.6702106000011554,650.7962901999999,None,650.7962901999999,None,651.5272373999978,None,651.5272373999978,None,651.5272373999978,None,651.5272373999978,None,651.5272373999978,None,651.5272373999978,None,651.811186299994,653.5453783999983,651.811186299994,653.5453783999983,653.5784349999958,None,653.5784349999958,None,653.5784349999958,None,653.5784349999958,None,653.5784349999958,None,653.5784349999958,None,653.5784349999958,None,653.5784349999958,None,653.5784349999958,None,58,86,52,33,86,39,656.091665699998,None,7.0,1.6572562000001199,656.091665699998,None,656.091665699998,None,656.091665699998,None,656.091665699998,None,None,None,657.7689872999981,None,,,,,,,105,f,22,2022_Nov_25_1329,RL,2021.2.3,59.89907006632822,
1,60,0,60,0,,,,,,,,,,,,,,,None,None,None,None,None,659.468827699995,None,659.468827699995,None,659.468827699995,None,659.468827699995,None,f,0.5691550000046846,659.468827699995,None,659.468827699995,None,660.0906061999995,None,660.0906061999995,None,660.0906061999995,None,660.0906061999995,None,660.0906061999995,None,660.0906061999995,None,660.3668222999986,661.8344199999992,660.3668222999986,661.8344199999992,661.8604563999979,None,661.8604563999979,None,661.8604563999979,None,661.8604563999979,None,661.8604563999979,None,661.8604563999979,None,661.8604563999979,None,661.8604563999979,None,661.8604563999979,None,74,70,59,33,70,63,664.3895921000003,None,6.0,1.3877773000058369,664.3895921000003,None,664.3895921000003,None,664.3895921000003,None,664.3895921000003,None,None,None,665.7916191999975,None,,,,,,,105,f,22,2022_Nov_25_1329,RL,2021.2.3,59.89907006632822,
1,61,0,61,0,,,,,,,,,,,,,,,None,None,None,None,None,667.323086299999,None,667.323086299999,None,667.323086299999,None,667.323086299999,None,f,0.6547749000019394,667.323086299999,None,667.323086299999,None,668.032607299996,None,668.032607299996,None,668.032607299996,None,668.032607299996,None,668.032607299996,None,668.032607299996,None,668.3223039000004,669.8232841999998,668.3223039000004,669.8232841999998,669.854193799998,None,669.854193799998,None,669.854193799998,None,669.854193799998,None,669.854193799998,None,669.854193799998,None,669.854193799998,None,669.854193799998,None,669.854193799998,None,57,69,46,27,69,63,672.374673499995,None,5.0,1.8995311000035144,672.374673499995,None,672.374673499995,None,672.374673499995,None,672.374673499995,None,None,None,674.292933699995,None,,,,,,,105,f,22,2022_Nov_25_1329,RL,2021.2.3,59.89907006632822,
1,62,0,62,0,,,,,,,,,,,,,,,None,None,None,None,None,675.9801949999965,None,675.9801949999965,None,675.9801949999965,None,675.9801949999965,None,f,0.4876578999974299,675.9801949999965,None,675.9801949999965,None,676.5293795999969,None,676.5293795999969,None,676.5293795999969,None,676.5293795999969,None,676.5293795999969,None,676.5293795999969,None,676.828554599997,None,676.828554599997,None,678.288919999999,None,678.288919999999,None,678.288919999999,None,678.288919999999,None,678.288919999999,None,678.288919999999,None,678.288919999999,None,678.288919999999,None,678.288919999999,None,66,77,61,27,77,46,680.8195532999962,None,6.0,3.748067500004254,680.8195532999962,None,680.8195532999962,None,680.8195532999962,None,680.8195532999962,None,None,None,684.584151899995,None,,,,,,,105,f,22,2022_Nov_25_1329,RL,2021.2.3,59.89907006632822,
1,63,0,63,0,,,,,,,,,,,,,,,None,None,None,None,None,686.3193855999998,None,686.3193855999998,None,686.3193855999998,None,686.3193855999998,None,f,0.658886999997776,686.3193855999998,None,686.3193855999998,None,687.0244018999947,None,687.0244018999947,None,687.0244018999947,None,687.0244018999947,None,687.0244018999947,None,687.0244018999947,None,687.3189418999973,None,687.3189418999973,None,688.8655132999993,None,688.8655132999993,None,688.8655132999993,None,688.8655132999993,None,688.8655132999993,None,688.8655132999993,None,688.8655132999993,None,688.8655132999993,None,688.8655132999993,None,63,72,49,19,72,74,691.3719869999986,None,4.0,2.333433800005878,691.3719869999986,None,691.3719869999986,None,691.3719869999986,None,691.3719869999986,None,None,None,693.7237978999983,None,,,,,,,105,f,22,2022_Nov_25_1329,RL,2021.2.3,59.89907006632822,
1,64,0,64,0,,,,,,,,,,,,,,,None,None,None,None,None,695.5944967999967,None,695.5944967999967,None,695.5944967999967,None,695.5944967999967,None,i,0.5134665000005043,695.5944967999967,None,695.5944967999967,None,696.1496923999948,None,696.1496923999948,None,696.1496923999948,None,696.1496923999948,None,696.1496923999948,None,696.1496923999948,None,696.4418838999991,697.4591598999978,696.4418838999991,697.4591598999978,697.5065895999942,None,697.5065895999942,None,697.5065895999942,None,697.5065895999942,None,697.5065895999942,None,697.5065895999942,None,697.5065895999942,None,697.5065895999942,None,697.5065895999942,None,66,76,55,28,55,71,700.0124250000008,None,3.0,3.4651545000015176,700.0124250000008,None,700.0124250000008,None,700.0124250000008,None,700.0124250000008,None,None,None,703.4986591999987,None,,,,,,,105,f,22,2022_Nov_25_1329,RL,2021.2.3,59.89907006632822,
1,65,0,65,0,,,,,,,,,,,,,,,None,None,None,None,None,705.5003205999965,None,705.5003205999965,None,705.5003205999965,None,705.5003205999965,None,j,0.6176373999987845,705.5003205999965,None,705.5003205999965,None,706.1738572999966,None,706.1738572999966,None,706.1738572999966,None,706.1738572999966,None,706.1738572999966,None,706.1738572999966,None,706.4654670999953,None,706.4654670999953,None,707.3553366999986,None,707.3553366999986,None,707.3553366999986,None,707.3553366999986,None,707.3553366999986,None,707.3553366999986,None,707.3553366999986,None,707.3553366999986,None,707.3553366999986,None,67,72,54,33,33,63,709.8655865999972,None,1.0,2.2535027000049013,709.8655865999972,None,709.8655865999972,None,709.8655865999972,None,709.8655865999972,None,None,None,712.1356573999947,None,,,,,,,105,f,22,2022_Nov_25_1329,RL,2021.2.3,59.89907006632822,
1,66,0,66,0,,,,,,,,,,,,,,,None,None,None,None,None,713.9023379999999,None,713.9023379999999,None,713.9023379999999,None,713.9023379999999,None,r,0.6154859000016586,713.9023379999999,None,713.9023379999999,None,714.5602312999981,None,714.5602312999981,None,714.5602312999981,None,714.5602312999981,None,714.5602312999981,None,714.5602312999981,None,714.8545413999964,716.1053150000007,714.8545413999964,716.1053150000007,716.1371986999948,None,716.1371986999948,None,716.1371986999948,None,716.1371986999948,None,716.1371986999948,None,716.1371986999948,None,716.1371986999948,None,716.1371986999948,None,716.1371986999948,None,68,76,52,40,68,62,718.6513986999998,None,4.0,2.407720099996368,718.6513986999998,None,718.6513986999998,None,718.6513986999998,None,718.6513986999998,None,None,None,721.0754543000003,None,,,,,,,105,f,22,2022_Nov_25_1329,RL,2021.2.3,59.89907006632822,
1,67,0,67,0,,,,,,,,,,,,,,,None,None,None,None,None,722.9267968999993,None,722.9267968999993,None,722.9267968999993,None,722.9267968999993,None,r,0.5914449999982025,722.9267968999993,None,722.9267968999993,None,723.5700485999987,None,723.5700485999987,None,723.5700485999987,None,723.5700485999987,None,723.5700485999987,None,723.5700485999987,None,723.8609488000002,725.3285329999999,723.8609488000002,725.3285329999999,725.366457899996,None,725.366457899996,None,725.366457899996,None,725.366457899996,None,725.366457899996,None,725.366457899996,None,725.366457899996,None,725.366457899996,None,725.366457899996,None,76,79,43,43,76,61,727.8761128999977,None,5.0,2.024921500000346,727.8761128999977,None,727.8761128999977,None,727.8761128999977,None,727.8761128999977,None,None,None,729.9146427999949,None,,,,,,,105,f,22,2022_Nov_25_1329,RL,2021.2.3,59.89907006632822,
1,68,0,68,0,,,,,,,,,,,,,,,None,None,None,None,None,731.8179823999963,None,731.8179823999963,None,731.8179823999963,None,731.8179823999963,None,r,0.6500931999980821,731.8179823999963,None,731.8179823999963,None,732.4974272999971,None,732.4974272999971,None,732.4974272999971,None,732.4974272999971,None,732.4974272999971,None,732.4974272999971,None,732.783631499995,734.1678837,732.783631499995,734.1678837,734.207432999996,None,734.207432999996,None,734.207432999996,None,734.207432999996,None,734.207432999996,None,734.207432999996,None,734.207432999996,None,734.207432999996,None,734.207432999996,None,61,75,40,42,61,62,736.7415763999961,None,4.0,2.0513004999957047,736.7415763999961,None,736.7415763999961,None,736.7415763999961,None,736.7415763999961,None,None,None,738.8108530999962,None,,,,,,,105,f,22,2022_Nov_25_1329,RL,2021.2.3,59.89907006632822,
1,69,0,69,0,,,,,,,,,,,,,,,None,None,None,None,None,740.5556113999992,None,740.5556113999992,None,740.5556113999992,None,740.5556113999992,None,f,0.6728206000043429,740.5556113999992,None,740.5556113999992,None,741.3093362,None,741.3093362,None,741.3093362,None,741.3093362,None,741.3093362,None,741.3093362,None,741.606549600001,742.6738321999946,741.606549600001,742.6738321999946,742.7054538000011,None,742.7054538000011,None,742.7054538000011,None,742.7054538000011,None,742.7054538000011,None,742.7054538000011,None,742.7054538000011,None,742.7054538000011,None,742.7054538000011,None,60,84,41,33,84,40,745.2221638999981,None,7.0,1.891592199994193,745.2221638999981,None,745.2221638999981,None,745.2221638999981,None,745.2221638999981,None,None,None,747.1300444999943,None,,,,,,,105,f,22,2022_Nov_25_1329,RL,2021.2.3,59.89907006632822,
1,70,0,70,0,,,,,,,,,,,,,,,None,None,None,None,None,749.118633399994,None,749.118633399994,None,749.118633399994,None,749.118633399994,None,f,0.5391624000039883,749.118633399994,None,749.118633399994,None,749.6968801999974,None,749.6968801999974,None,749.6968801999974,None,749.6968801999974,None,749.6968801999974,None,749.6968801999974,None,749.9958093999958,None,749.9958093999958,None,751.3885886999997,None,751.3885886999997,None,751.3885886999997,None,751.3885886999997,None,751.3885886999997,None,751.3885886999997,None,751.3885886999997,None,751.3885886999997,None,751.3885886999997,None,64,90,38,40,90,31,753.9149657999951,None,7.0,1.352905899999314,753.9149657999951,None,753.9149657999951,None,753.9149657999951,None,753.9149657999951,None,None,None,755.283242999998,None,,,,,,,105,f,22,2022_Nov_25_1329,RL,2021.2.3,59.89907006632822,
1,71,0,71,0,,,,,,,,,,,,,,,None,None,None,None,None,757.0880400999959,None,757.0880400999959,None,757.0880400999959,None,757.0880400999959,None,f,0.5601940999986255,757.0880400999959,None,757.0880400999959,None,757.691896999997,None,757.691896999997,None,757.691896999997,None,757.691896999997,None,757.691896999997,None,757.691896999997,None,757.9845165999941,None,757.9845165999941,None,759.2162663999989,None,759.2162663999989,None,759.2162663999989,None,759.2162663999989,None,759.2162663999989,None,759.2162663999989,None,759.2162663999989,None,759.2162663999989,None,759.2162663999989,None,67,87,34,30,87,56,761.7242389999956,None,6.0,1.7506983000057517,761.7242389999956,None,761.7242389999956,None,761.7242389999956,None,761.7242389999956,None,None,None,763.4998921999941,None,,,,,,,105,f,22,2022_Nov_25_1329,RL,2021.2.3,59.89907006632822,
1,72,0,72,0,,,,,,,,,,,,,,,None,None,None,None,None,765.1565208999964,None,765.1565208999964,None,765.1565208999964,None,765.1565208999964,None,f,0.5416059999988647,765.1565208999964,None,765.1565208999964,None,765.7498692999943,None,765.7498692999943,None,765.7498692999943,None,765.7498692999943,None,765.7498692999943,None,765.7498692999943,None,766.0401525999987,None,766.0401525999987,None,767.8893499999976,None,767.8893499999976,None,767.8893499999976,None,767.8893499999976,None,767.8893499999976,None,767.8893499999976,None,767.8893499999976,None,767.8893499999976,None,767.8893499999976,None,61,79,37,36,79,57,770.4176905999993,None,6.0,2.553246000003128,770.4176905999993,None,770.4176905999993,None,770.4176905999993,None,770.4176905999993,None,None,None,772.9790252999956,None,,,,,,,105,f,22,2022_Nov_25_1329,RL,2021.2.3,59.89907006632822,
1,73,0,73,0,,,,,,,,,,,,,,,None,None,None,None,None,774.6838658999986,None,774.6838658999986,None,774.6838658999986,None,774.6838658999986,None,f,0.5044775999995181,774.6838658999986,None,774.6838658999986,None,775.2365892999951,None,775.2365892999951,None,775.2365892999951,None,775.2365892999951,None,775.2365892999951,None,775.2365892999951,None,775.5301567999995,776.4975966999991,775.5301567999995,776.4975966999991,776.533245999999,None,776.533245999999,None,776.533245999999,None,776.533245999999,None,776.533245999999,None,776.533245999999,None,776.533245999999,None,776.533245999999,None,776.533245999999,None,68,82,40,42,82,61,779.051670199995,None,5.0,2.4716082000013557,779.051670199995,None,779.051670199995,None,779.051670199995,None,779.051670199995,None,None,None,781.5378085999982,None,,,,,,,105,f,22,2022_Nov_25_1329,RL,2021.2.3,59.89907006632822,
1,74,0,74,0,,,,,,,,,,,,,,,None,None,None,None,None,783.4057142999955,None,783.4057142999955,None,783.4057142999955,None,783.4057142999955,None,f,0.43289000000368105,783.4057142999955,None,783.4057142999955,None,783.8878834999996,None,783.8878834999996,None,783.8878834999996,None,783.8878834999996,None,783.8878834999996,None,783.8878834999996,None,784.1861783999993,None,784.1861783999993,None,785.5122970000011,None,785.5122970000011,None,785.5122970000011,None,785.5122970000011,None,785.5122970000011,None,785.5122970000011,None,785.5122970000011,None,785.5122970000011,None,785.5122970000011,None,68,80,40,42,80,59,788.0373611999967,None,6.0,2.1424782000030973,788.0373611999967,None,788.0373611999967,None,788.0373611999967,None,788.0373611999967,None,None,None,790.198023799996,None,,,,,,,105,f,22,2022_Nov_25_1329,RL,2021.2.3,59.89907006632822,
1,75,0,75,0,,,,,,,,,,,,,,,791.9245384999958,None,q,791.9245384999958,None,860.441227700001,None,860.441227700001,None,860.441227700001,None,860.441227700001,None,r,1.0076065999965067,860.441227700001,None,860.441227700001,None,861.4962405999977,None,861.4962405999977,None,861.4962405999977,None,861.4962405999977,None,861.4962405999977,None,861.4962405999977,None,861.7734188999966,863.7243976999962,861.7734188999966,863.7243976999962,863.778819399995,None,863.778819399995,None,863.778819399995,None,863.778819399995,None,863.778819399995,None,863.778819399995,None,863.778819399995,None,863.778819399995,None,863.778819399995,None,59,89,42,36,59,56,866.3065265999976,None,3.0,3.039622900003451,866.3065265999976,None,866.3065265999976,None,866.3065265999976,None,866.3065265999976,None,None,None,869.3673083999965,None,68.48744199999783,,,,,,105,f,22,2022_Nov_25_1329,RL,2021.2.3,59.89907006632822,
1,76,0,76,0,,,,,,,,,,,,,,,None,None,None,None,None,870.8983010000011,None,870.8983010000011,None,870.8983010000011,None,870.8983010000011,None,i,0.5908714999968652,870.8983010000011,None,870.8983010000011,None,871.5377818999987,None,871.5377818999987,None,871.5377818999987,None,871.5377818999987,None,871.5377818999987,None,871.5377818999987,None,871.8300926999946,None,871.8300926999946,None,873.5265792999999,None,873.5265792999999,None,873.5265792999999,None,873.5265792999999,None,873.5265792999999,None,873.5265792999999,None,873.5265792999999,None,873.5265792999999,None,873.5265792999999,None,65,78,45,38,45,59,876.0421982999978,None,2.0,1.9761399999988498,876.0421982999978,None,876.0421982999978,None,876.0421982999978,None,876.0421982999978,None,None,None,878.0364817000009,None,,,,,,,105,f,22,2022_Nov_25_1329,RL,2021.2.3,59.89907006632822,
1,77,0,77,0,,,,,,,,,,,,,,,None,None,None,None,None,879.757955000001,None,879.757955000001,None,879.757955000001,None,879.757955000001,None,r,0.561299399996642,879.757955000001,None,879.757955000001,None,880.3568139999988,None,880.3568139999988,None,880.3568139999988,None,880.3568139999988,None,880.3568139999988,None,880.3568139999988,None,880.6529299999966,None,880.6529299999966,None,882.3959432999982,None,882.3959432999982,None,882.3959432999982,None,882.3959432999982,None,882.3959432999982,None,882.3959432999982,None,882.3959432999982,None,882.3959432999982,None,882.3959432999982,None,59,70,40,34,59,64,884.913117600001,None,3.0,2.3954492999982904,884.913117600001,None,884.913117600001,None,884.913117600001,None,884.913117600001,None,None,None,887.3257857999997,None,,,,,,,105,f,22,2022_Nov_25_1329,RL,2021.2.3,59.89907006632822,
1,78,0,78,0,,,,,,,,,,,,,,,None,None,None,None,None,889.2273268999998,None,889.2273268999998,None,889.2273268999998,None,889.2273268999998,None,f,0.46184550000180025,889.2273268999998,None,889.2273268999998,None,889.7390020999956,None,889.7390020999956,None,889.7390020999956,None,889.7390020999956,None,889.7390020999956,None,889.7390020999956,None,890.0261377999996,891.6105810000008,890.0261377999996,891.6105810000008,891.645071299994,None,891.645071299994,None,891.645071299994,None,891.645071299994,None,891.645071299994,None,891.645071299994,None,891.645071299994,None,891.645071299994,None,891.645071299994,None,59,76,45,32,76,54,894.1718080999999,None,5.0,3.5134562000021106,894.1718080999999,None,894.1718080999999,None,894.1718080999999,None,894.1718080999999,None,None,None,897.6992387999999,None,,,,,,,105,f,22,2022_Nov_25_1329,RL,2021.2.3,59.89907006632822,
1,79,0,79,0,,,,,,,,,,,,,,,None,None,None,None,None,899.7022222999949,None,899.7022222999949,None,899.7022222999949,None,899.7022222999949,None,f,0.5167117999953916,899.7022222999949,None,899.7022222999949,None,900.2704211999953,None,900.2704211999953,None,900.2704211999953,None,900.2704211999953,None,900.2704211999953,None,900.2704211999953,None,900.567000899995,None,900.567000899995,None,902.3578020999994,None,902.3578020999994,None,902.3578020999994,None,902.3578020999994,None,902.3578020999994,None,902.3578020999994,None,902.3578020999994,None,902.3578020999994,None,902.3578020999994,None,60,84,51,43,84,45,904.8572892999946,None,7.0,2.749417499995616,904.8572892999946,None,904.8572892999946,None,904.8572892999946,None,904.8572892999946,None,None,None,907.6212401999946,None,,,,,,,105,f,22,2022_Nov_25_1329,RL,2021.2.3,59.89907006632822,
1,80,0,80,0,,,,,,,,,,,,,,,None,None,None,None,None,909.2747845999984,None,909.2747845999984,None,909.2747845999984,None,909.2747845999984,None,f,0.49428479999915,909.2747845999984,None,909.2747845999984,None,909.8054186999943,None,909.8054186999943,None,909.8054186999943,None,909.8054186999943,None,909.8054186999943,None,909.8054186999943,None,910.1066771999976,None,910.1066771999976,None,911.5482737999992,None,911.5482737999992,None,911.5482737999992,None,911.5482737999992,None,911.5482737999992,None,911.5482737999992,None,911.5482737999992,None,911.5482737999992,None,911.5482737999992,None,64,81,45,38,81,67,914.0649351999964,None,7.0,1.6437082000047667,914.0649351999964,None,914.0649351999964,None,914.0649351999964,None,914.0649351999964,None,None,None,915.7331395000001,None,,,,,,,105,f,22,2022_Nov_25_1329,RL,2021.2.3,59.89907006632822,
1,81,0,81,0,,,,,,,,,,,,,,,None,None,None,None,None,917.5800722999993,None,917.5800722999993,None,917.5800722999993,None,917.5800722999993,None,f,0.5394439000010607,917.5800722999993,None,917.5800722999993,None,918.1574801999959,None,918.1574801999959,None,918.1574801999959,None,918.1574801999959,None,918.1574801999959,None,918.1574801999959,None,918.4461067000011,920.2801746999976,918.4461067000011,920.2801746999976,920.3124931999992,None,920.3124931999992,None,920.3124931999992,None,920.3124931999992,None,920.3124931999992,None,920.3124931999992,None,920.3124931999992,None,920.3124931999992,None,920.3124931999992,None,60,65,43,32,65,63,922.8387558999966,None,4.0,2.1325480000014068,922.8387558999966,None,922.8387558999966,None,922.8387558999966,None,922.8387558999966,None,None,None,924.9875033999997,None,,,,,,,105,f,22,2022_Nov_25_1329,RL,2021.2.3,59.89907006632822,
1,82,0,82,0,,,,,,,,,,,,,,,None,None,None,None,None,926.9696945999967,None,926.9696945999967,None,926.9696945999967,None,926.9696945999967,None,j,0.4195929999987129,926.9696945999967,None,926.9696945999967,None,927.4345448999957,None,927.4345448999957,None,927.4345448999957,None,927.4345448999957,None,927.4345448999957,None,927.4345448999957,None,927.7355803999963,None,927.7355803999963,None,929.3914192000011,None,929.3914192000011,None,929.3914192000011,None,929.3914192000011,None,929.3914192000011,None,929.3914192000011,None,929.3914192000011,None,929.3914192000011,None,929.3914192000011,None,61,68,48,27,27,52,931.9207507999963,None,1.0,1.5185545999993337,931.9207507999963,None,931.9207507999963,None,931.9207507999963,None,931.9207507999963,None,None,None,933.4609414000006,None,,,,,,,105,f,22,2022_Nov_25_1329,RL,2021.2.3,59.89907006632822,
1,83,0,83,0,,,,,,,,,,,,,,,None,None,None,None,None,935.209133999997,None,935.209133999997,None,935.209133999997,None,935.209133999997,None,i,0.4802112000033958,935.209133999997,None,935.209133999997,None,935.7260517999966,None,935.7260517999966,None,935.7260517999966,None,935.7260517999966,None,935.7260517999966,None,935.7260517999966,None,936.0248081999962,None,936.0248081999962,None,937.803497199995,None,937.803497199995,None,937.803497199995,None,937.803497199995,None,937.803497199995,None,937.803497199995,None,937.803497199995,None,937.803497199995,None,937.803497199995,None,58,70,45,29,45,66,940.3210962999947,None,1.0,0.9409760999988066,940.3210962999947,None,940.3210962999947,None,940.3210962999947,None,940.3210962999947,None,None,None,941.2793361000004,None,,,,,,,105,f,22,2022_Nov_25_1329,RL,2021.2.3,59.89907006632822,
1,84,0,84,0,,,,,,,,,,,,,,,None,None,None,None,None,942.9726468000008,None,942.9726468000008,None,942.9726468000008,None,942.9726468000008,None,f,0.7767132000008132,942.9726468000008,None,942.9726468000008,None,943.7967454999962,None,943.7967454999962,None,943.7967454999962,None,943.7967454999962,None,943.7967454999962,None,943.7967454999962,None,944.0968120999969,None,944.0968120999969,None,945.2529278000002,None,945.2529278000002,None,945.2529278000002,None,945.2529278000002,None,945.2529278000002,None,945.2529278000002,None,945.2529278000002,None,945.2529278000002,None,945.2529278000002,None,63,63,54,22,63,54,947.7733220999944,None,5.0,2.113374399996246,947.7733220999944,None,947.7733220999944,None,947.7733220999944,None,947.7733220999944,None,None,None,949.9067881999945,None,,,,,,,105,f,22,2022_Nov_25_1329,RL,2021.2.3,59.89907006632822,
1,85,0,85,0,,,,,,,,,,,,,,,None,None,None,None,None,951.857603599994,None,951.857603599994,None,951.857603599994,None,951.857603599994,None,f,0.44191549999959534,951.857603599994,None,951.857603599994,None,952.3391506999978,None,952.3391506999978,None,952.3391506999978,None,952.3391506999978,None,952.3391506999978,None,952.3391506999978,None,952.6363256999975,None,952.6363256999975,None,954.2400828999962,None,954.2400828999962,None,954.2400828999962,None,954.2400828999962,None,954.2400828999962,None,954.2400828999962,None,954.2400828999962,None,954.2400828999962,None,954.2400828999962,None,60,70,51,18,70,66,956.7516442999986,None,5.0,1.1702332999993814,956.7516442999986,None,956.7516442999986,None,956.7516442999986,None,956.7516442999986,None,None,None,957.9396844000003,None,,,,,,,105,f,22,2022_Nov_25_1329,RL,2021.2.3,59.89907006632822,
1,86,0,86,0,,,,,,,,,,,,,,,None,None,None,None,None,959.7292037999941,None,959.7292037999941,None,959.7292037999941,None,959.7292037999941,None,f,0.5504002000016044,959.7292037999941,None,959.7292037999941,None,960.3347391999996,None,960.3347391999996,None,960.3347391999996,None,960.3347391999996,None,960.3347391999996,None,960.3347391999996,None,960.6250123999998,None,960.6250123999998,None,961.9236795999968,None,961.9236795999968,None,961.9236795999968,None,961.9236795999968,None,961.9236795999968,None,961.9236795999968,None,961.9236795999968,None,961.9236795999968,None,961.9236795999968,None,49,76,48,28,76,62,964.4587911999988,None,4.0,1.9155633000045782,964.4587911999988,None,964.4587911999988,None,964.4587911999988,None,964.4587911999988,None,None,None,966.378759399995,None,,,,,,,105,f,22,2022_Nov_25_1329,RL,2021.2.3,59.89907006632822,
1,87,0,87,0,,,,,,,,,,,,,,,None,None,None,None,None,968.3708106999984,None,968.3708106999984,None,968.3708106999984,None,968.3708106999984,None,f,0.4597706999993534,968.3708106999984,None,968.3708106999984,None,968.8638652999944,None,968.8638652999944,None,968.8638652999944,None,968.8638652999944,None,968.8638652999944,None,968.8638652999944,None,969.1644803999952,None,969.1644803999952,None,970.4893764000008,None,970.4893764000008,None,970.4893764000008,None,970.4893764000008,None,970.4893764000008,None,970.4893764000008,None,970.4893764000008,None,970.4893764000008,None,970.4893764000008,None,59,66,46,23,66,63,973.0065692999997,None,4.0,1.358692699999665,973.0065692999997,None,973.0065692999997,None,973.0065692999997,None,973.0065692999997,None,None,None,974.3865809999988,None,,,,,,,105,f,22,2022_Nov_25_1329,RL,2021.2.3,59.89907006632822,
1,88,0,88,0,,,,,,,,,,,,,,,None,None,None,None,None,976.3359130999961,None,976.3359130999961,None,976.3359130999961,None,976.3359130999961,None,f,0.42581970000173897,976.3359130999961,None,976.3359130999961,None,976.8044394999961,None,976.8044394999961,None,976.8044394999961,None,976.8044394999961,None,976.8044394999961,None,976.8044394999961,None,977.1032752999963,None,977.1032752999963,None,977.9828424999941,None,977.9828424999941,None,977.9828424999941,None,977.9828424999941,None,977.9828424999941,None,977.9828424999941,None,977.9828424999941,None,977.9828424999941,None,977.9828424999941,None,58,66,48,38,66,61,980.503151500001,None,4.0,1.8389186999993399,980.503151500001,None,980.503151500001,None,980.503151500001,None,980.503151500001,None,None,None,982.3564086999977,None,,,,,,,105,f,22,2022_Nov_25_1329,RL,2021.2.3,59.89907006632822,
1,89,0,89,0,,,,,,,,,,,,,,,None,None,None,None,None,984.0749907999998,None,984.0749907999998,None,984.0749907999998,None,984.0749907999998,None,f,0.5355555999994976,984.0749907999998,None,984.0749907999998,None,984.6663992999966,None,984.6663992999966,None,984.6663992999966,None,984.6663992999966,None,984.6663992999966,None,984.6663992999966,None,984.9586989999952,986.8429905999947,984.9586989999952,986.8429905999947,986.8776365999947,None,986.8776365999947,None,986.8776365999947,None,986.8776365999947,None,986.8776365999947,None,986.8776365999947,None,986.8776365999947,None,986.8776365999947,None,986.8776365999947,None,58,66,41,39,66,73,989.3835197000008,None,3.0,1.8117199999978766,989.3835197000008,None,989.3835197000008,None,989.3835197000008,None,989.3835197000008,None,None,None,991.2167025999952,None,,,,,,,105,f,22,2022_Nov_25_1329,RL,2021.2.3,59.89907006632822,
1,90,0,90,0,,,,,,,,,,,,,,,None,None,None,None,None,992.866537199996,None,992.866537199996,None,992.866537199996,None,992.866537199996,None,f,0.553954299997713,992.866537199996,None,992.866537199996,None,993.4693993999972,None,993.4693993999972,None,993.4693993999972,None,993.4693993999972,None,993.4693993999972,None,993.4693993999972,None,993.7646453999987,None,993.7646453999987,None,994.9158398,None,994.9158398,None,994.9158398,None,994.9158398,None,994.9158398,None,994.9158398,None,994.9158398,None,994.9158398,None,994.9158398,None,60,64,55,50,64,76,997.4307367000001,None,3.0,2.0973806000038167,997.4307367000001,None,997.4307367000001,None,997.4307367000001,None,997.4307367000001,None,None,None,999.5414433999977,None,,,,,,,105,f,22,2022_Nov_25_1329,RL,2021.2.3,59.89907006632822,
1,91,0,91,0,,,,,,,,,,,,,,,None,None,None,None,None,1001.1235932999989,None,1001.1235932999989,None,1001.1235932999989,None,1001.1235932999989,None,r,0.5670767000046908,1001.1235932999989,None,1001.1235932999989,None,1001.7450735999955,None,1001.7450735999955,None,1001.7450735999955,None,1001.7450735999955,None,1001.7450735999955,None,1001.7450735999955,None,1002.0370545999976,None,1002.0370545999976,None,1003.9805525999982,None,1003.9805525999982,None,1003.9805525999982,None,1003.9805525999982,None,1003.9805525999982,None,1003.9805525999982,None,1003.9805525999982,None,1003.9805525999982,None,1003.9805525999982,None,56,70,56,44,56,69,1006.5118586999961,None,2.0,2.5863644999990356,1006.5118586999961,None,1006.5118586999961,None,1006.5118586999961,None,1006.5118586999961,None,None,None,1009.1126146999959,None,,,,,,,105,f,22,2022_Nov_25_1329,RL,2021.2.3,59.89907006632822,
1,92,0,92,0,,,,,,,,,,,,,,,None,None,None,None,None,1010.7705991999974,None,1010.7705991999974,None,1010.7705991999974,None,1010.7705991999974,None,i,0.500265099995886,1010.7705991999974,None,1010.7705991999974,None,1011.3078839999944,None,1011.3078839999944,None,1011.3078839999944,None,1011.3078839999944,None,1011.3078839999944,None,1011.3078839999944,None,1011.5936863999959,1012.8444881999967,1011.5936863999959,1012.8444881999967,1012.8775801999946,None,1012.8775801999946,None,1012.8775801999946,None,1012.8775801999946,None,1012.8775801999946,None,1012.8775801999946,None,1012.8775801999946,None,1012.8775801999946,None,1012.8775801999946,None,56,70,58,53,58,49,1015.3938140999962,None,5.0,1.7423697999984142,1015.3938140999962,None,1015.3938140999962,None,1015.3938140999962,None,1015.3938140999962,None,None,None,1017.1469499999948,None,,,,,,,105,f,22,2022_Nov_25_1329,RL,2021.2.3,59.89907006632822,
1,93,0,93,0,,,,,,,,,,,,,,,None,None,None,None,None,1018.9021537999943,None,1018.9021537999943,None,1018.9021537999943,None,1018.9021537999943,None,i,0.3586845000027097,1018.9021537999943,None,1018.9021537999943,None,1019.303762699994,None,1019.303762699994,None,1019.303762699994,None,1019.303762699994,None,1019.303762699994,None,1019.303762699994,None,1019.5991622000001,None,1019.5991622000001,None,1021.0967078999965,None,1021.0967078999965,None,1021.0967078999965,None,1021.0967078999965,None,1021.0967078999965,None,1021.0967078999965,None,1021.0967078999965,None,1021.0967078999965,None,1021.0967078999965,None,53,67,56,50,56,63,1023.6179225999949,None,3.0,1.6368705999993836,1023.6179225999949,None,1023.6179225999949,None,1023.6179225999949,None,1023.6179225999949,None,None,None,1025.2696818999975,None,,,,,,,105,f,22,2022_Nov_25_1329,RL,2021.2.3,59.89907006632822,
1,94,0,94,0,,,,,,,,,,,,,,,None,None,None,None,None,1026.7873446999947,None,1026.7873446999947,None,1026.7873446999947,None,1026.7873446999947,None,f,0.3735062000050675,1026.7873446999947,None,1026.7873446999947,None,1027.202521399995,None,1027.202521399995,None,1027.202521399995,None,1027.202521399995,None,1027.202521399995,None,1027.202521399995,None,1027.4882530999967,1028.938987499998,1027.4882530999967,1028.938987499998,1028.9763559999992,None,1028.9763559999992,None,1028.9763559999992,None,1028.9763559999992,None,1028.9763559999992,None,1028.9763559999992,None,1028.9763559999992,None,1028.9763559999992,None,1028.9763559999992,None,53,68,58,57,68,67,1031.490160399997,None,4.0,2.437357900002098,1031.490160399997,None,1031.490160399997,None,1031.490160399997,None,1031.490160399997,None,None,None,1033.9421550999978,None,,,,,,,105,f,22,2022_Nov_25_1329,RL,2021.2.3,59.89907006632822,
1,95,0,95,0,,,,,,,,,,,,,,,None,None,None,None,None,1035.8194160999992,None,1035.8194160999992,None,1035.8194160999992,None,1035.8194160999992,None,f,0.40156779999961145,1035.8194160999992,None,1035.8194160999992,None,1036.266176899997,None,1036.266176899997,None,1036.266176899997,None,1036.266176899997,None,1036.266176899997,None,1036.266176899997,None,1036.5611428999982,1038.2288396000004,1036.5611428999982,1038.2288396000004,1038.2517735000001,None,1038.2517735000001,None,1038.2517735000001,None,1038.2517735000001,None,1038.2517735000001,None,1038.2517735000001,None,1038.2517735000001,None,1038.2517735000001,None,1038.2517735000001,None,69,71,57,60,71,56,1040.7755420999965,None,5.0,1.9083677000016905,1040.7755420999965,None,1040.7755420999965,None,1040.7755420999965,None,1040.7755420999965,None,None,None,1042.7033817999982,None,,,,,,,105,f,22,2022_Nov_25_1329,RL,2021.2.3,59.89907006632822,
1,96,0,96,0,,,,,,,,,,,,,,,None,None,None,None,None,1044.4342068999977,None,1044.4342068999977,None,1044.4342068999977,None,1044.4342068999977,None,f,0.48686939999606693,1044.4342068999977,None,1044.4342068999977,None,1044.972404299995,None,1044.972404299995,None,1044.972404299995,None,1044.972404299995,None,1044.972404299995,None,1044.972404299995,None,1045.2670519999956,None,1045.2670519999956,None,1047.223966599995,None,1047.223966599995,None,1047.223966599995,None,1047.223966599995,None,1047.223966599995,None,1047.223966599995,None,1047.223966599995,None,1047.223966599995,None,1047.223966599995,None,68,82,59,62,82,54,1049.7414243999956,None,7.0,1.5962186999968253,1049.7414243999956,None,1049.7414243999956,None,1049.7414243999956,None,1049.7414243999956,None,None,None,1051.3562186999989,None,,,,,,,105,f,22,2022_Nov_25_1329,RL,2021.2.3,59.89907006632822,
1,97,0,97,0,,,,,,,,,,,,,,,None,None,None,None,None,1053.1058463999943,None,1053.1058463999943,None,1053.1058463999943,None,1053.1058463999943,None,f,0.44512939999549417,1053.1058463999943,None,1053.1058463999943,None,1053.5953296999942,None,1053.5953296999942,None,1053.5953296999942,None,1053.5953296999942,None,1053.5953296999942,None,1053.5953296999942,None,1053.8897324999998,None,1053.8897324999998,None,1055.7043300000005,None,1055.7043300000005,None,1055.7043300000005,None,1055.7043300000005,None,1055.7043300000005,None,1055.7043300000005,None,1055.7043300000005,None,1055.7043300000005,None,1055.7043300000005,None,64,84,49,64,84,66,1058.2238260999948,None,6.0,3.4211151999988942,1058.2238260999948,None,1058.2238260999948,None,1058.2238260999948,None,1058.2238260999948,None,None,None,1061.6657575999998,None,,,,,,,105,f,22,2022_Nov_25_1329,RL,2021.2.3,59.89907006632822,
1,98,0,98,0,,,,,,,,,,,,,,,None,None,None,None,None,1063.3500081999955,None,1063.3500081999955,None,1063.3500081999955,None,1063.3500081999955,None,f,0.4009098999958951,1063.3500081999955,None,1063.3500081999955,None,1063.801561399996,None,1063.801561399996,None,1063.801561399996,None,1063.801561399996,None,1063.801561399996,None,1063.801561399996,None,1064.0966401999976,1065.1641161000007,1064.0966401999976,1065.1641161000007,1065.1930111999973,None,1065.1930111999973,None,1065.1930111999973,None,1065.1930111999973,None,1065.1930111999973,None,1065.1930111999973,None,1065.1930111999973,None,1065.1930111999973,None,1065.1930111999973,None,68,88,50,59,88,60,1067.714985599996,None,6.0,1.4717652000035741,1067.714985599996,None,1067.714985599996,None,1067.714985599996,None,1067.714985599996,None,None,None,1069.2019877999992,None,,,,,,,105,f,22,2022_Nov_25_1329,RL,2021.2.3,59.89907006632822,
1,99,0,99,0,,,,,,,,,,,,,,,None,None,None,None,None,1071.1534602999964,None,1071.1534602999964,None,1071.1534602999964,None,1071.1534602999964,None,f,0.5978000000031898,1071.1534602999964,None,1071.1534602999964,None,1071.7915649999995,None,1071.7915649999995,None,1071.7915649999995,None,1071.7915649999995,None,1071.7915649999995,None,1071.7915649999995,None,1072.0688814999958,1073.3197168999977,1072.0688814999958,1073.3197168999977,1073.3641229999994,None,1073.3641229999994,None,1073.3641229999994,None,1073.3641229999994,None,1073.3641229999994,None,1073.3641229999994,None,1073.3641229999994,None,1073.3641229999994,None,1073.3641229999994,None,64,80,49,53,80,59,1075.887255099995,None,6.0,0.9217863000012585,1075.887255099995,None,1075.887255099995,None,1075.887255099995,None,1075.887255099995,None,None,None,1076.8225187999997,None,,,,,,,105,f,22,2022_Nov_25_1329,RL,2021.2.3,59.89907006632822,
1,100,0,100,0,,,,,,,,,,,,,,,None,None,None,None,None,1078.4589190999977,None,1078.4589190999977,None,1078.4589190999977,None,1078.4589190999977,None,f,0.46187810000265017,1078.4589190999977,None,1078.4589190999977,None,1078.957174999996,None,1078.957174999996,None,1078.957174999996,None,1078.957174999996,None,1078.957174999996,None,1078.957174999996,None,1079.2572615999961,None,1079.2572615999961,None,1081.1852714999986,None,1081.1852714999986,None,1081.1852714999986,None,1081.1852714999986,None,1081.1852714999986,None,1081.1852714999986,None,1081.1852714999986,None,1081.1852714999986,None,1081.1852714999986,None,69,79,47,65,79,61,1083.7173590999955,None,5.0,1.7321558999974513,1083.7173590999955,None,1083.7173590999955,None,1083.7173590999955,None,1083.7173590999955,None,None,None,1085.461363399998,None,,,,,,,105,f,22,2022_Nov_25_1329,RL,2021.2.3,59.89907006632822,
1,101,0,101,0,,,,,,,,,,,,,,,None,None,None,None,None,1087.1812419999987,None,1087.1812419999987,None,1087.1812419999987,None,1087.1812419999987,None,f,0.35006069999508327,1087.1812419999987,None,1087.1812419999987,None,1087.5689324999985,None,1087.5689324999985,None,1087.5689324999985,None,1087.5689324999985,None,1087.5689324999985,None,1087.5689324999985,None,1087.8635804000005,None,1087.8635804000005,None,1088.7217799999999,None,1088.7217799999999,None,1088.7217799999999,None,1088.7217799999999,None,1088.7217799999999,None,1088.7217799999999,None,1088.7217799999999,None,1088.7217799999999,None,1088.7217799999999,None,63,79,64,62,79,53,1091.245262299999,None,5.0,2.218040599997039,1091.245262299999,None,1091.245262299999,None,1091.245262299999,None,1091.245262299999,None,None,None,1093.4835912999988,None,,,,,,,105,f,22,2022_Nov_25_1329,RL,2021.2.3,59.89907006632822,
1,102,0,102,0,,,,,,,,,,,,,,,None,None,None,None,None,1095.1012986999995,None,1095.1012986999995,None,1095.1012986999995,None,1095.1012986999995,None,f,0.37980859999515815,1095.1012986999995,None,1095.1012986999995,None,1095.5350512000005,None,1095.5350512000005,None,1095.5350512000005,None,1095.5350512000005,None,1095.5350512000005,None,1095.5350512000005,None,1095.8354185999997,None,1095.8354185999997,None,1097.5557103999963,None,1097.5557103999963,None,1097.5557103999963,None,1097.5557103999963,None,1097.5557103999963,None,1097.5557103999963,None,1097.5557103999963,None,1097.5557103999963,None,1097.5557103999963,None,74,79,61,62,79,53,1100.0803519999972,None,5.0,0.9793005000028643,1100.0803519999972,None,1100.0803519999972,None,1100.0803519999972,None,1100.0803519999972,None,None,None,1101.0757550999988,None,,,,,,,105,f,22,2022_Nov_25_1329,RL,2021.2.3,59.89907006632822,
1,103,0,103,0,,,,,,,,,,,,,,,None,None,None,None,None,1102.9926376000003,None,1102.9926376000003,None,1102.9926376000003,None,1102.9926376000003,None,f,0.3985988000058569,1102.9926376000003,None,1102.9926376000003,None,1103.4290446999948,None,1103.4290446999948,None,1103.4290446999948,None,1103.4290446999948,None,1103.4290446999948,None,1103.4290446999948,None,1103.7242845,None,1103.7242845,None,1105.7395462999993,None,1105.7395462999993,None,1105.7395462999993,None,1105.7395462999993,None,1105.7395462999993,None,1105.7395462999993,None,1105.7395462999993,None,1105.7395462999993,None,1105.7395462999993,None,65,76,54,53,76,46,1108.2547321999955,None,6.0,1.8430028000002494,1108.2547321999955,None,1108.2547321999955,None,1108.2547321999955,None,1108.2547321999955,None,None,None,1110.1115561999977,None,,,,,,,105,f,22,2022_Nov_25_1329,RL,2021.2.3,59.89907006632822,
1,104,0,104,0,,,,,,,,,,,,,,,None,None,None,None,None,1111.7155908999994,None,1111.7155908999994,None,1111.7155908999994,None,1111.7155908999994,None,f,0.38584719999926165,1111.7155908999994,None,1111.7155908999994,None,1112.1557614999983,None,1112.1557614999983,None,1112.1557614999983,None,1112.1557614999983,None,1112.1557614999983,None,1112.1557614999983,None,1112.4469115999964,1113.5811785999977,1112.4469115999964,1113.5811785999977,1113.6194117999985,None,1113.6194117999985,None,1113.6194117999985,None,1113.6194117999985,None,1113.6194117999985,None,1113.6194117999985,None,1113.6194117999985,None,1113.6194117999985,None,1113.6194117999985,None,64,72,62,58,72,56,1116.143083899995,None,5.0,1.9292410999987624,1116.143083899995,None,1116.143083899995,None,1116.143083899995,None,1116.143083899995,None,None,None,1118.0853092999969,None,,,,,,,105,f,22,2022_Nov_25_1329,RL,2021.2.3,59.89907006632822,
1,105,0,105,0,,,,,,,,,,,,,,,None,None,None,None,None,1119.7211306999961,None,1119.7211306999961,None,1119.7211306999961,None,1119.7211306999961,None,f,0.340239000004658,1119.7211306999961,None,1119.7211306999961,None,1120.1033783999956,None,1120.1033783999956,None,1120.1033783999956,None,1120.1033783999956,None,1120.1033783999956,None,1120.1033783999956,None,1120.4023907999945,None,1120.4023907999945,None,1121.2635775999952,None,1121.2635775999952,None,1121.2635775999952,None,1121.2635775999952,None,1121.2635775999952,None,1121.2635775999952,None,1121.2635775999952,None,1121.2635775999952,None,1121.2635775999952,None,60,73,59,56,73,60,1123.7835285999972,None,5.0,3.4540577000007033,1123.7835285999972,None,1123.7835285999972,None,1123.7835285999972,None,1123.7835285999972,None,None,None,1127.2677877999959,None,,,,,,,105,f,22,2022_Nov_25_1329,RL,2021.2.3,59.89907006632822,
1,106,0,106,0,,,,,,,,,,,,,,,None,None,None,None,None,1128.9296086999966,None,1128.9296086999966,None,1128.9296086999966,None,1128.9296086999966,None,f,0.3516715000005206,1128.9296086999966,None,1128.9296086999966,None,1129.328601299996,None,1129.328601299996,None,1129.328601299996,None,1129.328601299996,None,1129.328601299996,None,1129.328601299996,None,1129.6255640999952,None,1129.6255640999952,None,1130.8921525999976,None,1130.8921525999976,None,1130.8921525999976,None,1130.8921525999976,None,1130.8921525999976,None,1130.8921525999976,None,1130.8921525999976,None,1130.8921525999976,None,1130.8921525999976,None,61,75,64,55,75,57,1133.407617500001,None,5.0,1.8558654000007664,1133.407617500001,None,1133.407617500001,None,1133.407617500001,None,1133.407617500001,None,None,None,1135.281751800001,None,,,,,,,105,f,22,2022_Nov_25_1329,RL,2021.2.3,59.89907006632822,
1,107,0,107,0,,,,,,,,,,,,,,,None,None,None,None,None,1136.8655700999952,None,1136.8655700999952,None,1136.8655700999952,None,1136.8655700999952,None,f,0.6667725000006612,1136.8655700999952,None,1136.8655700999952,None,1137.5674393000008,None,1137.5674393000008,None,1137.5674393000008,None,1137.5674393000008,None,1137.5674393000008,None,1137.5674393000008,None,1137.8646777999966,1139.1822658999954,1137.8646777999966,1139.1822658999954,1139.2051458999995,None,1139.2051458999995,None,1139.2051458999995,None,1139.2051458999995,None,1139.2051458999995,None,1139.2051458999995,None,1139.2051458999995,None,1139.2051458999995,None,1139.2051458999995,None,55,75,60,53,75,56,1141.7280425999998,None,5.0,1.2534301999985473,1141.7280425999998,None,1141.7280425999998,None,1141.7280425999998,None,1141.7280425999998,None,None,None,1143.0024273999952,None,,,,,,,105,f,22,2022_Nov_25_1329,RL,2021.2.3,59.89907006632822,
1,108,0,108,0,,,,,,,,,,,,,,,None,None,None,None,None,1144.5742695999943,None,1144.5742695999943,None,1144.5742695999943,None,1144.5742695999943,None,f,0.46757780000189086,1144.5742695999943,None,1144.5742695999943,None,1145.0937510000003,None,1145.0937510000003,None,1145.0937510000003,None,1145.0937510000003,None,1145.0937510000003,None,1145.0937510000003,None,1145.369928299995,1146.6370746999964,1145.369928299995,1146.6370746999964,1146.6715177000005,None,1146.6715177000005,None,1146.6715177000005,None,1146.6715177000005,None,1146.6715177000005,None,1146.6715177000005,None,1146.6715177000005,None,1146.6715177000005,None,1146.6715177000005,None,57,73,60,53,73,47,1149.1828688999958,None,5.0,1.275779199997487,1149.1828688999958,None,1149.1828688999958,None,1149.1828688999958,None,1149.1828688999958,None,None,None,1150.4837943999955,None,,,,,,,105,f,22,2022_Nov_25_1329,RL,2021.2.3,59.89907006632822,
1,109,0,109,0,,,,,,,,,,,,,,,None,None,None,None,None,1152.4440315999964,None,1152.4440315999964,None,1152.4440315999964,None,1152.4440315999964,None,f,0.6082835999986855,1152.4440315999964,None,1152.4440315999964,None,1153.0911158999952,None,1153.0911158999952,None,1153.0911158999952,None,1153.0911158999952,None,1153.0911158999952,None,1153.0911158999952,None,1153.3753126999945,1154.4260391999997,1153.3753126999945,1154.4260391999997,1154.4564197,None,1154.4564197,None,1154.4564197,None,1154.4564197,None,1154.4564197,None,1154.4564197,None,1154.4564197,None,1154.4564197,None,1154.4564197,None,58,67,75,62,67,62,1156.972748799999,None,5.0,1.2125096999952802,1156.972748799999,None,1156.972748799999,None,1156.972748799999,None,1156.972748799999,None,None,None,1158.2037993999984,None,,,,,,,105,f,22,2022_Nov_25_1329,RL,2021.2.3,59.89907006632822,
1,110,0,110,0,,,,,,,,,,,,,,,None,None,None,None,None,1160.1314195999948,None,1160.1314195999948,None,1160.1314195999948,None,1160.1314195999948,None,f,0.26093359999504173,1160.1314195999948,None,1160.1314195999948,None,1160.4295454999956,None,1160.4295454999956,None,1160.4295454999956,None,1160.4295454999956,None,1160.4295454999956,None,1160.4295454999956,None,1160.7323639999959,None,1160.7323639999959,None,1161.5962620999999,None,1161.5962620999999,None,1161.5962620999999,None,1161.5962620999999,None,1161.5962620999999,None,1161.5962620999999,None,1161.5962620999999,None,1161.5962620999999,None,1161.5962620999999,None,47,73,73,55,73,59,1164.126657599998,None,6.0,2.279555300003267,1164.126657599998,None,1164.126657599998,None,1164.126657599998,None,1164.126657599998,None,None,None,1166.4173405999973,None,,,,,,,105,f,22,2022_Nov_25_1329,RL,2021.2.3,59.89907006632822,
1,111,0,111,0,,,,,,,,,,,,,,,None,None,None,None,None,1167.9715082999974,None,1167.9715082999974,None,1167.9715082999974,None,1167.9715082999974,None,f,0.5012579999965965,1167.9715082999974,None,1167.9715082999974,None,1168.5218614999976,None,1168.5218614999976,None,1168.5218614999976,None,1168.5218614999976,None,1168.5218614999976,None,1168.5218614999976,None,1168.8192925999974,None,1168.8192925999974,None,1170.8366021999973,None,1170.8366021999973,None,1170.8366021999973,None,1170.8366021999973,None,1170.8366021999973,None,1170.8366021999973,None,1170.8366021999973,None,1170.8366021999973,None,1170.8366021999973,None,53,79,80,61,79,59,1173.3480079,None,5.0,1.5257694000029005,1173.3480079,None,1173.3480079,None,1173.3480079,None,1173.3480079,None,None,None,1174.8955520999953,None,,,,,,,105,f,22,2022_Nov_25_1329,RL,2021.2.3,59.89907006632822,
1,112,0,112,0,,,,,,,,,,,,,,,None,None,None,None,None,1176.6746398999967,None,1176.6746398999967,None,1176.6746398999967,None,1176.6746398999967,None,f,0.46811230000457726,1176.6746398999967,None,1176.6746398999967,None,1177.1972427,None,1177.1972427,None,1177.1972427,None,1177.1972427,None,1177.1972427,None,1177.1972427,None,1177.4921596999993,None,1177.4921596999993,None,1178.4745559000003,None,1178.4745559000003,None,1178.4745559000003,None,1178.4745559000003,None,1178.4745559000003,None,1178.4745559000003,None,1178.4745559000003,None,1178.4745559000003,None,1178.4745559000003,None,66,78,72,55,78,56,1180.9898856,None,5.0,1.2906808999978239,1180.9898856,None,1180.9898856,None,1180.9898856,None,1180.9898856,None,None,None,1182.3002797999943,None,,,,,,,105,f,22,2022_Nov_25_1329,RL,2021.2.3,59.89907006632822,
