bandit,trials.thisRepN,trials.thisTrialN,trials.thisN,trials.thisIndex,instru_img1.started,instru_resp.started,instru_resp.keys,instru_resp.rt,instru_img2.started,instru_resp2.started,instru_resp2.keys,instru_resp2.rt,fixbefore_2.started,rest_response.keys,red.started,green.started,yellow.started,blue.started,choose_bandit.started,Fixation.started,choose_bandit.keys,choose_bandit.rt,black.started,red_2.started,green_2.started,yellow_2.started,blue_2.started,fixation_2.started,docs.started,image_2.started,docs.stopped,image_2.stopped,black.stopped,red_2.stopped,green_2.stopped,yellow_2.stopped,blue_2.stopped,fixation_2.stopped,black_com.started,reward_sub.started,palyerb.started,reward__sub.started,compare.started,red_compare.started,green_com.started,yellow_com.started,blue_com.started,image_3.started,slider.started,text.started,image_4.started,image_5.started,rewardyellow,rewardred,rewardblue,rewardgreen,subchoose,playerb,slider.response,slider.rt,intertrialfix.started,intertrialfix.stopped,bigx.started,bigx.stopped,rest_image.started,rest_response.started,rest_response.rt,image.started,key_resp.started,key_resp.keys,key_resp.rt,participant,Gender,Age,date,expName,psychopyVersion,frameRate,
,,,,,277.15113430004567,277.15113430004567,space,26.69171080016531,,,,,,,,,,,,,,,,,,,,,,,,,,,,,,,,,,,,,,,,,,,,,,,,,,,,,,,,,,,,,,,,106,m,20,2022-11-25_13h26.47.333,RL,2022.2.4,60.67913297841275,
,,,,,,,,,303.88384309993125,303.88384309993125,space,245.9636011000257,,,,,,,,,,,,,,,,,,,,,,,,,,,,,,,,,,,,,,,,,,,,,,,,,,,,,,,,,,,,106,m,20,2022-11-25_13h26.47.333,RL,2022.2.4,60.67913297841275,
1,0,0,0,0,,,,,,,,,549.8678077999502,None,550.8828225000761,550.8828225000761,550.8828225000761,550.8828225000761,550.8828225000761,550.8828225000761,r,1.1736916000954807,552.1451370001305,552.1451370001305,552.1451370001305,552.1451370001305,552.1451370001305,552.1451370001305,552.3791459999047,552.3791459999047,553.2770982000511,553.2770982000511,553.344498099992,553.344498099992,553.344498099992,553.344498099992,553.344498099992,553.344498099992,553.344498099992,553.344498099992,553.344498099992,553.344498099992,553.344498099992,553.344498099992,553.344498099992,553.344498099992,553.344498099992,555.8520728999283,555.8520728999283,555.8520728999283,555.8520728999283,555.8520728999283,69,32,47,54,69,46,5.0,3.3740519999992102,559.3483168000821,561.0712586999871,,,,,,,,,,106,m,20,2022-11-25_13h26.47.333,RL,2022.2.4,60.67913297841275,
1,1,0,1,0,,,,,,,,,,None,561.0712586999871,561.0712586999871,561.0712586999871,561.0712586999871,561.0712586999871,561.0712586999871,j,1.418224100023508,562.5300809000619,562.5300809000619,562.5300809000619,562.5300809000619,562.5300809000619,562.5300809000619,562.8165979001205,562.8165979001205,564.4786801999435,564.4786801999435,564.4954419001006,564.4954419001006,564.4954419001006,564.4954419001006,564.4954419001006,564.4954419001006,564.4954419001006,564.4954419001006,564.4954419001006,564.4954419001006,564.4954419001006,564.4954419001006,564.4954419001006,564.4954419001006,564.4954419001006,567.0043905000202,567.0043905000202,567.0043905000202,567.0043905000202,567.0043905000202,72,42,46,60,60,63,3.0,2.0611034999601543,569.0821348000318,570.7116594000254,,,,,,,,,,106,m,20,2022-11-25_13h26.47.333,RL,2022.2.4,60.67913297841275,
1,2,0,2,0,,,,,,,,,,None,570.7116594000254,570.7116594000254,570.7116594000254,570.7116594000254,570.7116594000254,570.7116594000254,i,0.6647258000448346,571.3940244999249,571.3940244999249,571.3940244999249,571.3940244999249,571.3940244999249,571.3940244999249,571.6926557000261,571.6926557000261,572.5917511000298,572.5917511000298,572.5917511000298,572.5917511000298,572.5917511000298,572.5917511000298,572.5917511000298,572.5917511000298,572.5917511000298,572.5917511000298,572.5917511000298,572.5917511000298,572.5917511000298,572.5917511000298,572.5917511000298,572.5917511000298,572.5917511000298,575.1000018999912,575.1000018999912,575.1000018999912,575.1000018999912,575.1000018999912,71,38,48,56,48,29,4.0,1.9769407000858337,577.0935011000838,578.9392874999903,,,,,,,,,,106,m,20,2022-11-25_13h26.47.333,RL,2022.2.4,60.67913297841275,
1,3,0,3,0,,,,,,,,,,None,578.9392874999903,578.9392874999903,578.9392874999903,578.9392874999903,578.9392874999903,578.9392874999903,r,0.8405254001263529,579.8050987001043,579.8050987001043,579.8050987001043,579.8050987001043,579.8050987001043,579.8050987001043,580.1033632999752,580.1033632999752,581.2502665999345,581.2502665999345,581.2502665999345,581.2502665999345,581.2502665999345,581.2502665999345,581.2502665999345,581.2502665999345,581.2502665999345,581.2502665999345,581.2502665999345,581.2502665999345,581.2502665999345,581.2502665999345,581.2502665999345,581.2502665999345,581.2502665999345,583.7589104999788,583.7589104999788,583.7589104999788,583.7589104999788,583.7589104999788,68,41,46,56,68,49,5.0,1.8276690000202507,585.6035547000356,587.5655728001148,,,,,,,,,,106,m,20,2022-11-25_13h26.47.333,RL,2022.2.4,60.67913297841275,
1,4,0,4,0,,,,,,,,,,None,587.5655728001148,587.5655728001148,587.5655728001148,587.5655728001148,587.5655728001148,587.5655728001148,f,0.6429165999870747,588.231066999957,588.231066999957,588.231066999957,588.231066999957,588.231066999957,588.231066999957,588.5302558001131,588.5302558001131,590.2749743000604,590.2749743000604,590.2749743000604,590.2749743000604,590.2749743000604,590.2749743000604,590.2749743000604,590.2749743000604,590.2749743000604,590.2749743000604,590.2749743000604,590.2749743000604,590.2749743000604,590.2749743000604,590.2749743000604,590.2749743000604,590.2749743000604,592.7847245000303,592.7847245000303,592.7847245000303,592.7847245000303,592.7847245000303,72,40,39,57,40,77,2.0,1.3789299000054598,594.18034969992,595.7768177001271,,,,,,,,,,106,m,20,2022-11-25_13h26.47.333,RL,2022.2.4,60.67913297841275,
1,5,0,5,0,,,,,,,,,,None,595.7768177001271,595.7768177001271,595.7768177001271,595.7768177001271,595.7768177001271,595.7768177001271,i,0.5612488000188023,596.3606863000896,596.3606863000896,596.3606863000896,596.3606863000896,596.3606863000896,596.3606863000896,596.6417831999715,596.6417831999715,597.5720357000828,597.5720357000828,597.5886335000396,597.5886335000396,597.5886335000396,597.5886335000396,597.5886335000396,597.5886335000396,597.5886335000396,597.5886335000396,597.5886335000396,597.5886335000396,597.5886335000396,597.5886335000396,597.5886335000396,597.5886335000396,597.5886335000396,600.0976921999827,600.0976921999827,600.0976921999827,600.0976921999827,600.0976921999827,76,40,39,60,39,69,2.0,1.3458990000654012,601.460633300012,603.0400145000312,,,,,,,,,,106,m,20,2022-11-25_13h26.47.333,RL,2022.2.4,60.67913297841275,
1,6,0,6,0,,,,,,,,,,None,603.0400145000312,603.0400145000312,603.0400145000312,603.0400145000312,603.0400145000312,603.0400145000312,r,0.5670765999238938,603.6420346000232,603.6420346000232,603.6420346000232,603.6420346000232,603.6420346000232,603.6420346000232,603.9378122000489,603.9378122000489,605.0183942001313,605.0183942001313,605.0183942001313,605.0183942001313,605.0183942001313,605.0183942001313,605.0183942001313,605.0183942001313,605.0183942001313,605.0183942001313,605.0183942001313,605.0183942001313,605.0183942001313,605.0183942001313,605.0183942001313,605.0183942001313,605.0183942001313,607.5275997000281,607.5275997000281,607.5275997000281,607.5275997000281,607.5275997000281,72,41,48,65,72,59,4.0,0.813974600052461,608.3581789999735,610.120789400069,,,,,,,,,,106,m,20,2022-11-25_13h26.47.333,RL,2022.2.4,60.67913297841275,
1,7,0,7,0,,,,,,,,,,None,610.120789400069,610.120789400069,610.120789400069,610.120789400069,610.120789400069,610.120789400069,j,1.0513716998975724,611.204480699962,611.204480699962,611.204480699962,611.204480699962,611.204480699962,611.204480699962,611.5007182001136,611.5007182001136,613.3621398999821,613.3621398999821,613.3787090000696,613.3787090000696,613.3787090000696,613.3787090000696,613.3787090000696,613.3787090000696,613.3787090000696,613.3787090000696,613.3787090000696,613.3787090000696,613.3787090000696,613.3787090000696,613.3787090000696,613.3787090000696,613.3787090000696,615.8878421001136,615.8878421001136,615.8878421001136,615.8878421001136,615.8878421001136,67,43,44,54,54,59,4.0,0.4647019000258297,616.3704904001206,617.9501479000319,,,,,,,,,,106,m,20,2022-11-25_13h26.47.333,RL,2022.2.4,60.67913297841275,
1,8,0,8,0,,,,,,,,,,None,617.9501479000319,617.9501479000319,617.9501479000319,617.9501479000319,617.9501479000319,617.9501479000319,f,0.7260855999775231,618.6982734999619,618.6982734999619,618.6982734999619,618.6982734999619,618.6982734999619,618.6982734999619,618.9968344999943,618.9968344999943,619.9277999999467,619.9277999999467,619.9277999999467,619.9277999999467,619.9277999999467,619.9277999999467,619.9277999999467,619.9277999999467,619.9277999999467,619.9277999999467,619.9277999999467,619.9277999999467,619.9277999999467,619.9277999999467,619.9277999999467,619.9277999999467,619.9277999999467,622.4365088001359,622.4365088001359,622.4365088001359,622.4365088001359,622.4365088001359,76,39,58,55,39,81,1.0,1.461344299837947,623.9160251999274,625.8781721999403,,,,,,,,,,106,m,20,2022-11-25_13h26.47.333,RL,2022.2.4,60.67913297841275,
1,9,0,9,0,,,,,,,,,,None,625.8781721999403,625.8781721999403,625.8781721999403,625.8781721999403,625.8781721999403,625.8781721999403,r,0.48357030004262924,626.3966401999351,626.3966401999351,626.3966401999351,626.3966401999351,626.3966401999351,626.3966401999351,626.6924014000688,626.6924014000688,628.5872889000457,628.5872889000457,628.5872889000457,628.5872889000457,628.5872889000457,628.5872889000457,628.5872889000457,628.5872889000457,628.5872889000457,628.5872889000457,628.5872889000457,628.5872889000457,628.5872889000457,628.5872889000457,628.5872889000457,628.5872889000457,628.5872889000457,631.0964488999452,631.0964488999452,631.0964488999452,631.0964488999452,631.0964488999452,72,47,46,53,72,27,5.0,1.1462909998372197,632.259939200012,634.2218088000081,,,,,,,,,,106,m,20,2022-11-25_13h26.47.333,RL,2022.2.4,60.67913297841275,
1,10,0,10,0,,,,,,,,,,None,634.2218088000081,634.2218088000081,634.2218088000081,634.2218088000081,634.2218088000081,634.2218088000081,r,0.48881629994139075,634.7423678000923,634.7423678000923,634.7423678000923,634.7423678000923,634.7423678000923,634.7423678000923,635.0200140001252,635.0200140001252,635.9671269000974,635.9671269000974,635.9840257000178,635.9840257000178,635.9840257000178,635.9840257000178,635.9840257000178,635.9840257000178,635.9840257000178,635.9840257000178,635.9840257000178,635.9840257000178,635.9840257000178,635.9840257000178,635.9840257000178,635.9840257000178,635.9840257000178,638.4928021000233,638.4928021000233,638.4928021000233,638.4928021000233,638.4928021000233,71,46,53,57,71,69,5.0,0.44768589991144836,638.9580363999121,640.953152900096,,,,,,,,,,106,m,20,2022-11-25_13h26.47.333,RL,2022.2.4,60.67913297841275,
1,11,0,11,0,,,,,,,,,,None,640.953152900096,640.953152900096,640.953152900096,640.953152900096,640.953152900096,640.953152900096,r,0.5774484998546541,641.552430300042,641.552430300042,641.552430300042,641.552430300042,641.552430300042,641.552430300042,641.8512431001291,641.8512431001291,643.4155117999762,643.4155117999762,643.4155117999762,643.4155117999762,643.4155117999762,643.4155117999762,643.4155117999762,643.4155117999762,643.4155117999762,643.4155117999762,643.4155117999762,643.4155117999762,643.4155117999762,643.4155117999762,643.4155117999762,643.4155117999762,643.4155117999762,645.9230623000767,645.9230623000767,645.9230623000767,645.9230623000767,645.9230623000767,67,53,51,48,67,51,5.0,1.0464008999988437,646.9861198000144,648.9316787999123,,,,,,,,,,106,m,20,2022-11-25_13h26.47.333,RL,2022.2.4,60.67913297841275,
1,12,0,12,0,,,,,,,,,,None,648.9316787999123,648.9316787999123,648.9316787999123,648.9316787999123,648.9316787999123,648.9316787999123,r,0.364201599964872,649.3235365999863,649.3235365999863,649.3235365999863,649.3235365999863,649.3235365999863,649.3235365999863,649.6134961999487,649.6134961999487,651.1425222000107,651.1425222000107,651.159722500015,651.159722500015,651.159722500015,651.159722500015,651.159722500015,651.159722500015,651.159722500015,651.159722500015,651.159722500015,651.159722500015,651.159722500015,651.159722500015,651.159722500015,651.159722500015,651.159722500015,653.6687634000555,653.6687634000555,653.6687634000555,653.6687634000555,653.6687634000555,79,47,37,55,79,49,6.0,0.9464658000506461,654.6319079000968,656.2614623999689,,,,,,,,,,106,m,20,2022-11-25_13h26.47.333,RL,2022.2.4,60.67913297841275,
1,13,0,13,0,,,,,,,,,,None,656.2614623999689,656.2614623999689,656.2614623999689,656.2614623999689,656.2614623999689,656.2614623999689,r,0.26500370004214346,656.5450710000005,656.5450710000005,656.5450710000005,656.5450710000005,656.5450710000005,656.5450710000005,656.8441143000964,656.8441143000964,658.6387154001277,658.6387154001277,658.6387154001277,658.6387154001277,658.6387154001277,658.6387154001277,658.6387154001277,658.6387154001277,658.6387154001277,658.6387154001277,658.6387154001277,658.6387154001277,658.6387154001277,658.6387154001277,658.6387154001277,658.6387154001277,658.6387154001277,661.1476591001265,661.1476591001265,661.1476591001265,661.1476591001265,661.1476591001265,81,50,39,48,81,57,6.0,1.3462298000231385,662.5104801000562,664.406071000034,,,,,,,,,,106,m,20,2022-11-25_13h26.47.333,RL,2022.2.4,60.67913297841275,
1,14,0,14,0,,,,,,,,,,None,664.406071000034,664.406071000034,664.406071000034,664.406071000034,664.406071000034,664.406071000034,r,0.2449479999486357,664.6728175999597,664.6728175999597,664.6728175999597,664.6728175999597,664.6728175999597,664.6728175999597,664.9714146000333,664.9714146000333,665.8359702001326,665.8359702001326,665.8522282000631,665.8522282000631,665.8522282000631,665.8522282000631,665.8522282000631,665.8522282000631,665.8522282000631,665.8522282000631,665.8522282000631,665.8522282000631,665.8522282000631,665.8522282000631,665.8522282000631,665.8522282000631,665.8522282000631,668.3613193999045,668.3613193999045,668.3613193999045,668.3613193999045,668.3613193999045,74,50,41,54,74,55,6.0,0.7798415999859571,669.1591310000513,671.1045462000184,,,,,,,,,,106,m,20,2022-11-25_13h26.47.333,RL,2022.2.4,60.67913297841275,
1,15,0,15,0,,,,,,,,,,None,671.1045462000184,671.1045462000184,671.1045462000184,671.1045462000184,671.1045462000184,671.1045462000184,r,0.2417890999931842,671.3716170999687,671.3716170999687,671.3716170999687,671.3716170999687,671.3716170999687,671.3716170999687,671.6702205999754,671.6702205999754,673.3321865000762,673.3321865000762,673.3321865000762,673.3321865000762,673.3321865000762,673.3321865000762,673.3321865000762,673.3321865000762,673.3321865000762,673.3321865000762,673.3321865000762,673.3321865000762,673.3321865000762,673.3321865000762,673.3321865000762,673.3321865000762,673.3321865000762,675.8409150000662,675.8409150000662,675.8409150000662,675.8409150000662,675.8409150000662,71,49,52,52,71,48,6.0,0.6139746999833733,676.4728063000366,678.0703511999454,,,,,,,,,,106,m,20,2022-11-25_13h26.47.333,RL,2022.2.4,60.67913297841275,
1,16,0,16,0,,,,,,,,,,None,678.0703511999454,678.0703511999454,678.0703511999454,678.0703511999454,678.0703511999454,678.0703511999454,r,0.6394245999399573,678.744821399916,678.744821399916,678.744821399916,678.744821399916,678.744821399916,678.744821399916,679.0332535000052,679.0332535000052,679.9140651000198,679.9140651000198,679.9140651000198,679.9140651000198,679.9140651000198,679.9140651000198,679.9140651000198,679.9140651000198,679.9140651000198,679.9140651000198,679.9140651000198,679.9140651000198,679.9140651000198,679.9140651000198,679.9140651000198,679.9140651000198,679.9140651000198,682.4233220000751,682.4233220000751,682.4233220000751,682.4233220000751,682.4233220000751,73,60,50,47,73,55,7.0,0.6141242000740021,683.0544628000353,684.8336907001212,,,,,,,,,,106,m,20,2022-11-25_13h26.47.333,RL,2022.2.4,60.67913297841275,
1,17,0,17,0,,,,,,,,,,None,684.8336907001212,684.8336907001212,684.8336907001212,684.8336907001212,684.8336907001212,684.8336907001212,r,0.3120836999733001,685.1670204999391,685.1670204999391,685.1670204999391,685.1670204999391,685.1670204999391,685.1670204999391,685.4655716000125,685.4655716000125,687.3602027001325,687.3602027001325,687.3602027001325,687.3602027001325,687.3602027001325,687.3602027001325,687.3602027001325,687.3602027001325,687.3602027001325,687.3602027001325,687.3602027001325,687.3602027001325,687.3602027001325,687.3602027001325,687.3602027001325,687.3602027001325,687.3602027001325,689.8693979999516,689.8693979999516,689.8693979999516,689.8693979999516,689.8693979999516,70,67,46,39,70,61,4.0,1.1314868000335991,691.0161466000136,693.0115422999952,,,,,,,,,,106,m,20,2022-11-25_13h26.47.333,RL,2022.2.4,60.67913297841275,
1,18,0,18,0,,,,,,,,,,None,693.0115422999952,693.0115422999952,693.0115422999952,693.0115422999952,693.0115422999952,693.0115422999952,j,0.2624601998832077,693.2958790000994,693.2958790000994,693.2958790000994,693.2958790000994,693.2958790000994,693.2958790000994,693.5938754999079,693.5938754999079,694.4742183999624,694.4742183999624,694.4742183999624,694.4742183999624,694.4742183999624,694.4742183999624,694.4742183999624,694.4742183999624,694.4742183999624,694.4742183999624,694.4742183999624,694.4742183999624,694.4742183999624,694.4742183999624,694.4742183999624,694.4742183999624,694.4742183999624,696.9834203000646,696.9834203000646,696.9834203000646,696.9834203000646,696.9834203000646,61,64,44,39,39,56,5.0,1.2969110000412911,698.2963409000076,699.8932594000362,,,,,,,,,,106,m,20,2022-11-25_13h26.47.333,RL,2022.2.4,60.67913297841275,
1,19,0,19,0,,,,,,,,,,None,699.8932594000362,699.8932594000362,699.8932594000362,699.8932594000362,699.8932594000362,699.8932594000362,r,0.5573411001823843,700.4749855999835,700.4749855999835,700.4749855999835,700.4749855999835,700.4749855999835,700.4749855999835,700.7739460999146,700.7739460999146,702.2863088999875,702.2863088999875,702.2863088999875,702.2863088999875,702.2863088999875,702.2863088999875,702.2863088999875,702.2863088999875,702.2863088999875,702.2863088999875,702.2863088999875,702.2863088999875,702.2863088999875,702.2863088999875,702.2863088999875,702.2863088999875,702.2863088999875,704.7955553000793,704.7955553000793,704.7955553000793,704.7955553000793,704.7955553000793,74,67,41,44,74,62,7.0,1.478024800075218,706.2914726000745,707.8875937999692,,,,,,,,,,106,m,20,2022-11-25_13h26.47.333,RL,2022.2.4,60.67913297841275,
1,20,0,20,0,,,,,,,,,,None,707.8875937999692,707.8875937999692,707.8875937999692,707.8875937999692,707.8875937999692,707.8875937999692,r,0.42152500012889504,708.3371745999902,708.3371745999902,708.3371745999902,708.3371745999902,708.3371745999902,708.3371745999902,708.6358115000185,708.6358115000185,709.9818961001001,709.9818961001001,709.9818961001001,709.9818961001001,709.9818961001001,709.9818961001001,709.9818961001001,709.9818961001001,709.9818961001001,709.9818961001001,709.9818961001001,709.9818961001001,709.9818961001001,709.9818961001001,709.9818961001001,709.9818961001001,709.9818961001001,712.4922299999744,712.4922299999744,712.4922299999744,712.4922299999744,712.4922299999744,74,68,48,49,74,33,7.0,0.5641896000597626,713.0725517999381,714.9679020999465,,,,,,,,,,106,m,20,2022-11-25_13h26.47.333,RL,2022.2.4,60.67913297841275,
1,21,0,21,0,,,,,,,,,,None,714.9679020999465,714.9679020999465,714.9679020999465,714.9679020999465,714.9679020999465,714.9679020999465,r,0.36070459987968206,715.3530824999325,715.3530824999325,715.3530824999325,715.3530824999325,715.3530824999325,715.3530824999325,715.6501805000007,715.6501805000007,717.4448442999274,717.4448442999274,717.4448442999274,717.4448442999274,717.4448442999274,717.4448442999274,717.4448442999274,717.4448442999274,717.4448442999274,717.4448442999274,717.4448442999274,717.4448442999274,717.4448442999274,717.4448442999274,717.4448442999274,717.4448442999274,717.4448442999274,719.9542553001083,719.9542553001083,719.9542553001083,719.9542553001083,719.9542553001083,69,68,50,40,69,66,4.0,0.9140415000729263,720.8847710001282,722.3980571001302,,,,,,,,,,106,m,20,2022-11-25_13h26.47.333,RL,2022.2.4,60.67913297841275,
1,22,0,22,0,,,,,,,,,,None,722.3980571001302,722.3980571001302,722.3980571001302,722.3980571001302,722.3980571001302,722.3980571001302,r,0.419781600125134,722.8500681000296,722.8500681000296,722.8500681000296,722.8500681000296,722.8500681000296,722.8500681000296,723.129555300111,723.129555300111,724.1771003999747,724.1771003999747,724.1929019999225,724.1929019999225,724.1929019999225,724.1929019999225,724.1929019999225,724.1929019999225,724.1929019999225,724.1929019999225,724.1929019999225,724.1929019999225,724.1929019999225,724.1929019999225,724.1929019999225,724.1929019999225,724.1929019999225,726.7022746999282,726.7022746999282,726.7022746999282,726.7022746999282,726.7022746999282,64,66,55,45,64,60,5.0,1.5955453000497073,728.3143450999632,730.293036499992,,,,,,,,,,106,m,20,2022-11-25_13h26.47.333,RL,2022.2.4,60.67913297841275,
1,23,0,23,0,,,,,,,,,,None,730.293036499992,730.293036499992,730.293036499992,730.293036499992,730.293036499992,730.293036499992,r,0.2989229999948293,730.6368895999622,730.6368895999622,730.6368895999622,730.6368895999622,730.6368895999622,730.6368895999622,730.9250869001262,730.9250869001262,732.4704283999745,732.4704283999745,732.4870206001215,732.4870206001215,732.4870206001215,732.4870206001215,732.4870206001215,732.4870206001215,732.4870206001215,732.4870206001215,732.4870206001215,732.4870206001215,732.4870206001215,732.4870206001215,732.4870206001215,732.4870206001215,732.4870206001215,734.9967408000957,734.9967408000957,734.9967408000957,734.9967408000957,734.9967408000957,61,61,59,55,61,30,6.0,0.5816523998510092,735.5942971000914,737.3903201001231,,,,,,,,,,106,m,20,2022-11-25_13h26.47.333,RL,2022.2.4,60.67913297841275,
1,24,0,24,0,,,,,,,,,,None,737.3903201001231,737.3903201001231,737.3903201001231,737.3903201001231,737.3903201001231,737.3903201001231,r,0.36180930002592504,737.7754059999716,737.7754059999716,737.7754059999716,737.7754059999716,737.7754059999716,737.7754059999716,738.0721849000547,738.0721849000547,740.0167040999513,740.0167040999513,740.0167040999513,740.0167040999513,740.0167040999513,740.0167040999513,740.0167040999513,740.0167040999513,740.0167040999513,740.0167040999513,740.0167040999513,740.0167040999513,740.0167040999513,740.0167040999513,740.0167040999513,740.0167040999513,740.0167040999513,742.526133300038,742.526133300038,742.526133300038,742.526133300038,742.526133300038,60,57,65,49,60,70,3.0,1.3789082998409867,743.9218425999861,745.4847246999852,,,,,,,,,,106,m,20,2022-11-25_13h26.47.333,RL,2022.2.4,60.67913297841275,
1,25,0,25,0,,,,,,,,,,None,745.4847246999852,745.4847246999852,745.4847246999852,745.4847246999852,745.4847246999852,745.4847246999852,j,0.5473079001531005,746.0521804001182,746.0521804001182,746.0521804001182,746.0521804001182,746.0521804001182,746.0521804001182,746.3495447000023,746.3495447000023,747.479717799928,747.479717799928,747.4964388001245,747.4964388001245,747.4964388001245,747.4964388001245,747.4964388001245,747.4964388001245,747.4964388001245,747.4964388001245,747.4964388001245,747.4964388001245,747.4964388001245,747.4964388001245,747.4964388001245,747.4964388001245,747.4964388001245,750.005593100097,750.005593100097,750.005593100097,750.005593100097,750.005593100097,55,63,56,46,46,75,2.0,1.8114415002055466,751.8338498999365,753.4631574999075,,,,,,,,,,106,m,20,2022-11-25_13h26.47.333,RL,2022.2.4,60.67913297841275,
1,26,0,26,0,,,,,,,,,,None,753.4631574999075,753.4631574999075,753.4631574999075,753.4631574999075,753.4631574999075,753.4631574999075,r,0.433205199893564,753.932141700061,753.932141700061,753.932141700061,753.932141700061,753.932141700061,753.932141700061,754.2121403999627,754.2121403999627,756.1392099999357,756.1392099999357,756.155973700108,756.155973700108,756.155973700108,756.155973700108,756.155973700108,756.155973700108,756.155973700108,756.155973700108,756.155973700108,756.155973700108,756.155973700108,756.155973700108,756.155973700108,756.155973700108,756.155973700108,758.6654052000958,758.6654052000958,758.6654052000958,758.6654052000958,758.6654052000958,61,53,63,48,61,57,5.0,1.6619206999894232,760.343850400066,761.9065751000308,,,,,,,,,,106,m,20,2022-11-25_13h26.47.333,RL,2022.2.4,60.67913297841275,
1,27,0,27,0,,,,,,,,,,None,761.9065751000308,761.9065751000308,761.9065751000308,761.9065751000308,761.9065751000308,761.9065751000308,r,0.2596365998033434,762.1900263999123,762.1900263999123,762.1900263999123,762.1900263999123,762.1900263999123,762.1900263999123,762.4890988999978,762.4890988999978,763.5695835999213,763.5695835999213,763.5695835999213,763.5695835999213,763.5695835999213,763.5695835999213,763.5695835999213,763.5695835999213,763.5695835999213,763.5695835999213,763.5695835999213,763.5695835999213,763.5695835999213,763.5695835999213,763.5695835999213,763.5695835999213,763.5695835999213,766.0785767000634,766.0785767000634,766.0785767000634,766.0785767000634,766.0785767000634,57,57,62,62,57,80,2.0,1.711670600110665,767.8067250999156,769.4028185999487,,,,,,,,,,106,m,20,2022-11-25_13h26.47.333,RL,2022.2.4,60.67913297841275,
1,28,0,28,0,,,,,,,,,,None,769.4028185999487,769.4028185999487,769.4028185999487,769.4028185999487,769.4028185999487,769.4028185999487,f,0.2922694000881165,769.7196230001282,769.7196230001282,769.7196230001282,769.7196230001282,769.7196230001282,769.7196230001282,770.0182616999373,770.0182616999373,771.9467424999457,771.9467424999457,771.9467424999457,771.9467424999457,771.9467424999457,771.9467424999457,771.9467424999457,771.9467424999457,771.9467424999457,771.9467424999457,771.9467424999457,771.9467424999457,771.9467424999457,771.9467424999457,771.9467424999457,771.9467424999457,771.9467424999457,774.4553181999363,774.4553181999363,774.4553181999363,774.4553181999363,774.4553181999363,60,61,54,50,61,85,2.0,1.3788455000612885,775.8512534999754,777.5309542000759,,,,,,,,,,106,m,20,2022-11-25_13h26.47.333,RL,2022.2.4,60.67913297841275,
1,29,0,29,0,,,,,,,,,,None,777.5309542000759,777.5309542000759,777.5309542000759,777.5309542000759,777.5309542000759,777.5309542000759,r,0.39432960003614426,777.9468670999631,777.9468670999631,777.9468670999631,777.9468670999631,777.9468670999631,777.9468670999631,778.2457922999747,778.2457922999747,779.5918356000911,779.5918356000911,779.5918356000911,779.5918356000911,779.5918356000911,779.5918356000911,779.5918356000911,779.5918356000911,779.5918356000911,779.5918356000911,779.5918356000911,779.5918356000911,779.5918356000911,779.5918356000911,779.5918356000911,779.5918356000911,779.5918356000911,782.1019784000237,782.1019784000237,782.1019784000237,782.1019784000237,782.1019784000237,57,69,53,60,57,78,1.0,0.962771899998188,783.0816446000244,784.8607413000427,,,,,,,,,,106,m,20,2022-11-25_13h26.47.333,RL,2022.2.4,60.67913297841275,
1,30,0,30,0,,,,,,,,,,None,784.8607413000427,784.8607413000427,784.8607413000427,784.8607413000427,784.8607413000427,784.8607413000427,f,0.82840760005638,785.7095204000361,785.7095204000361,785.7095204000361,785.7095204000361,785.7095204000361,785.7095204000361,786.0079298999626,786.0079298999626,787.4373135000933,787.4373135000933,787.4373135000933,787.4373135000933,787.4373135000933,787.4373135000933,787.4373135000933,787.4373135000933,787.4373135000933,787.4373135000933,787.4373135000933,787.4373135000933,787.4373135000933,787.4373135000933,787.4373135000933,787.4373135000933,787.4373135000933,789.946406000061,789.946406000061,789.946406000061,789.946406000061,789.946406000061,67,73,54,54,73,59,5.0,0.8975756999570876,790.8608480999246,792.6731680000667,,,,,,,,,,106,m,20,2022-11-25_13h26.47.333,RL,2022.2.4,60.67913297841275,
1,31,0,31,0,,,,,,,,,,None,792.6731680000667,792.6731680000667,792.6731680000667,792.6731680000667,792.6731680000667,792.6731680000667,f,0.3417412999551743,793.0390951000154,793.0390951000154,793.0390951000154,793.0390951000154,793.0390951000154,793.0390951000154,793.3383851000108,793.3383851000108,794.9168048000429,794.9168048000429,794.9168048000429,794.9168048000429,794.9168048000429,794.9168048000429,794.9168048000429,794.9168048000429,794.9168048000429,794.9168048000429,794.9168048000429,794.9168048000429,794.9168048000429,794.9168048000429,794.9168048000429,794.9168048000429,794.9168048000429,797.4259518000763,797.4259518000763,797.4259518000763,797.4259518000763,797.4259518000763,54,58,54,48,58,74,3.0,1.07958330004476,798.5228544001002,800.2022118999157,,,,,,,,,,106,m,20,2022-11-25_13h26.47.333,RL,2022.2.4,60.67913297841275,
1,32,0,32,0,,,,,,,,,,None,800.2022118999157,800.2022118999157,800.2022118999157,800.2022118999157,800.2022118999157,800.2022118999157,j,0.3223403000738472,800.5519465000834,800.5519465000834,800.5519465000834,800.5519465000834,800.5519465000834,800.5519465000834,800.8509025000967,800.8509025000967,802.2138253999874,802.2138253999874,802.2138253999874,802.2138253999874,802.2138253999874,802.2138253999874,802.2138253999874,802.2138253999874,802.2138253999874,802.2138253999874,802.2138253999874,802.2138253999874,802.2138253999874,802.2138253999874,802.2138253999874,802.2138253999874,802.2138253999874,804.7230257999618,804.7230257999618,804.7230257999618,804.7230257999618,804.7230257999618,58,61,49,50,50,77,4.0,1.2288845998700708,805.9692200000864,807.9477947000414,,,,,,,,,,106,m,20,2022-11-25_13h26.47.333,RL,2022.2.4,60.67913297841275,
1,33,0,33,0,,,,,,,,,,None,807.9477947000414,807.9477947000414,807.9477947000414,807.9477947000414,807.9477947000414,807.9477947000414,i,0.2861320998053998,808.2697825001087,808.2697825001087,808.2697825001087,808.2697825001087,808.2697825001087,808.2697825001087,808.5628919999581,808.5628919999581,810.0088824001141,810.0088824001141,810.0088824001141,810.0088824001141,810.0088824001141,810.0088824001141,810.0088824001141,810.0088824001141,810.0088824001141,810.0088824001141,810.0088824001141,810.0088824001141,810.0088824001141,810.0088824001141,810.0088824001141,810.0088824001141,810.0088824001141,812.5194598000962,812.5194598000962,812.5194598000962,812.5194598000962,812.5194598000962,67,66,58,62,58,51,4.0,1.8943388999905437,814.4294588000048,816.2418826001231,,,,,,,,,,106,m,20,2022-11-25_13h26.47.333,RL,2022.2.4,60.67913297841275,
1,34,0,34,0,,,,,,,,,,None,816.2418826001231,816.2418826001231,816.2418826001231,816.2418826001231,816.2418826001231,816.2418826001231,i,0.34158640005625784,816.6083486999851,816.6083486999851,816.6083486999851,816.6083486999851,816.6083486999851,816.6083486999851,816.9070840000641,816.9070840000641,817.9206882000435,817.9206882000435,817.9206882000435,817.9206882000435,817.9206882000435,817.9206882000435,817.9206882000435,817.9206882000435,817.9206882000435,817.9206882000435,817.9206882000435,817.9206882000435,817.9206882000435,817.9206882000435,817.9206882000435,817.9206882000435,817.9206882000435,820.4300470000599,820.4300470000599,820.4300470000599,820.4300470000599,820.4300470000599,63,68,62,49,62,80,3.0,1.4548076000064611,821.8923559999093,823.8377751999069,,,,,,,,,,106,m,20,2022-11-25_13h26.47.333,RL,2022.2.4,60.67913297841275,
1,35,0,35,0,,,,,,,,,,None,823.8377751999069,823.8377751999069,823.8377751999069,823.8377751999069,823.8377751999069,823.8377751999069,j,1.1447062001097947,825.0022144999821,825.0022144999821,825.0022144999821,825.0022144999821,825.0022144999821,825.0022144999821,825.3007926000282,825.3007926000282,826.3648413000628,826.3648413000628,826.3648413000628,826.3648413000628,826.3648413000628,826.3648413000628,826.3648413000628,826.3648413000628,826.3648413000628,826.3648413000628,826.3648413000628,826.3648413000628,826.3648413000628,826.3648413000628,826.3648413000628,826.3648413000628,826.3648413000628,828.8738385001197,828.8738385001197,828.8738385001197,828.8738385001197,828.8738385001197,61,64,64,55,55,44,5.0,1.4111953000538051,830.3028651000932,832.2152384000365,,,,,,,,,,106,m,20,2022-11-25_13h26.47.333,RL,2022.2.4,60.67913297841275,
1,36,0,36,0,,,,,,,,,,None,832.2152384000365,832.2152384000365,832.2152384000365,832.2152384000365,832.2152384000365,832.2152384000365,r,1.0729646000545472,833.3168925000355,833.3168925000355,833.3168925000355,833.3168925000355,833.3168925000355,833.3168925000355,833.611467000097,833.611467000097,835.4064255000558,835.4064255000558,835.4064255000558,835.4064255000558,835.4064255000558,835.4064255000558,835.4064255000558,835.4064255000558,835.4064255000558,835.4064255000558,835.4064255000558,835.4064255000558,835.4064255000558,835.4064255000558,835.4064255000558,835.4064255000558,835.4064255000558,837.9155150000006,837.9155150000006,837.9155150000006,837.9155150000006,837.9155150000006,60,66,64,44,60,66,3.0,1.2954657000955194,839.2289223000407,840.9083016999066,,,,,,,,,,106,m,20,2022-11-25_13h26.47.333,RL,2022.2.4,60.67913297841275,
1,37,0,37,0,,,,,,,,,,None,840.9083016999066,840.9083016999066,840.9083016999066,840.9083016999066,840.9083016999066,840.9083016999066,r,0.7790286999661475,841.7061383000109,841.7061383000109,841.7061383000109,841.7061383000109,841.7061383000109,841.7061383000109,842.0063650999218,842.0063650999218,843.0356175000779,843.0356175000779,843.0356175000779,843.0356175000779,843.0356175000779,843.0356175000779,843.0356175000779,843.0356175000779,843.0356175000779,843.0356175000779,843.0356175000779,843.0356175000779,843.0356175000779,843.0356175000779,843.0356175000779,843.0356175000779,843.0356175000779,845.5448751999065,845.5448751999065,845.5448751999065,845.5448751999065,845.5448751999065,66,65,59,49,66,46,6.0,0.814419399946928,846.3756226000842,848.0719679999165,,,,,,,,,,106,m,20,2022-11-25_13h26.47.333,RL,2022.2.4,60.67913297841275,
1,38,0,38,0,,,,,,,,,,None,848.0719679999165,848.0719679999165,848.0719679999165,848.0719679999165,848.0719679999165,848.0719679999165,f,1.4738640000578016,849.5685131999198,849.5685131999198,849.5685131999198,849.5685131999198,849.5685131999198,849.5685131999198,849.8671033999417,849.8671033999417,851.0635417001322,851.0635417001322,851.0635417001322,851.0635417001322,851.0635417001322,851.0635417001322,851.0635417001322,851.0635417001322,851.0635417001322,851.0635417001322,851.0635417001322,851.0635417001322,851.0635417001322,851.0635417001322,851.0635417001322,851.0635417001322,851.0635417001322,853.5735104000196,853.5735104000196,853.5735104000196,853.5735104000196,853.5735104000196,68,65,60,51,65,43,5.0,0.9139582000207156,854.5034936999436,856.4159633999225,,,,,,,,,,106,m,20,2022-11-25_13h26.47.333,RL,2022.2.4,60.67913297841275,
1,39,0,39,0,,,,,,,,,,None,856.4159633999225,856.4159633999225,856.4159633999225,856.4159633999225,856.4159633999225,856.4159633999225,f,0.49566709995269775,856.9315132000484,856.9315132000484,856.9315132000484,856.9315132000484,856.9315132000484,856.9315132000484,857.2302769999951,857.2302769999951,858.2612840000074,858.2612840000074,858.2612840000074,858.2612840000074,858.2612840000074,858.2612840000074,858.2612840000074,858.2612840000074,858.2612840000074,858.2612840000074,858.2612840000074,858.2612840000074,858.2612840000074,858.2612840000074,858.2612840000074,858.2612840000074,858.2612840000074,860.7695846999995,860.7695846999995,860.7695846999995,860.7695846999995,860.7695846999995,58,58,65,45,58,66,3.0,0.9633651999756694,861.7504018000327,863.5627971000504,,,,,,,,,,106,m,20,2022-11-25_13h26.47.333,RL,2022.2.4,60.67913297841275,
1,40,0,40,0,,,,,,,,,,None,863.5627971000504,863.5627971000504,863.5627971000504,863.5627971000504,863.5627971000504,863.5627971000504,r,0.32417860021814704,863.912394199986,863.912394199986,863.912394199986,863.912394199986,863.912394199986,863.912394199986,864.2113288999535,864.2113288999535,866.0395226001274,866.0395226001274,866.0395226001274,866.0395226001274,866.0395226001274,866.0395226001274,866.0395226001274,866.0395226001274,866.0395226001274,866.0395226001274,866.0395226001274,866.0395226001274,866.0395226001274,866.0395226001274,866.0395226001274,866.0395226001274,866.0395226001274,868.5485372999683,868.5485372999683,868.5485372999683,868.5485372999683,868.5485372999683,62,56,56,51,62,55,5.0,0.682350300019607,869.2467378999572,870.7931172999088,,,,,,,,,,106,m,20,2022-11-25_13h26.47.333,RL,2022.2.4,60.67913297841275,
1,41,0,41,0,,,,,,,,,,None,870.7931172999088,870.7931172999088,870.7931172999088,870.7931172999088,870.7931172999088,870.7931172999088,r,0.3938985001295805,871.210874499986,871.210874499986,871.210874499986,871.210874499986,871.210874499986,871.210874499986,871.5078636999242,871.5078636999242,872.3724442000967,872.3724442000967,872.3724442000967,872.3724442000967,872.3724442000967,872.3724442000967,872.3724442000967,872.3724442000967,872.3724442000967,872.3724442000967,872.3724442000967,872.3724442000967,872.3724442000967,872.3724442000967,872.3724442000967,872.3724442000967,872.3724442000967,874.8815639000386,874.8815639000386,874.8815639000386,874.8815639000386,874.8815639000386,60,46,57,50,60,59,4.0,0.49014530004933476,875.3802634000313,877.0760774000082,,,,,,,,,,106,m,20,2022-11-25_13h26.47.333,RL,2022.2.4,60.67913297841275,
1,42,0,42,0,,,,,,,,,,None,877.0760774000082,877.0760774000082,877.0760774000082,877.0760774000082,877.0760774000082,877.0760774000082,j,1.1503718998283148,878.256480100099,878.256480100099,878.256480100099,878.256480100099,878.256480100099,878.256480100099,878.5558700000402,878.5558700000402,879.7520026001148,879.7520026001148,879.7520026001148,879.7520026001148,879.7520026001148,879.7520026001148,879.7520026001148,879.7520026001148,879.7520026001148,879.7520026001148,879.7520026001148,879.7520026001148,879.7520026001148,879.7520026001148,879.7520026001148,879.7520026001148,879.7520026001148,882.2612805999815,882.2612805999815,882.2612805999815,882.2612805999815,882.2612805999815,61,47,59,45,45,58,3.0,1.6620353998150676,883.9400841000024,885.5695978999138,,,,,,,,,,106,m,20,2022-11-25_13h26.47.333,RL,2022.2.4,60.67913297841275,
1,43,0,43,0,,,,,,,,,,None,885.5695978999138,885.5695978999138,885.5695978999138,885.5695978999138,885.5695978999138,885.5695978999138,j,0.6469711000099778,886.2435318999924,886.2435318999924,886.2435318999924,886.2435318999924,886.2435318999924,886.2435318999924,886.5338097999338,886.5338097999338,887.4144212000538,887.4144212000538,887.4311397001147,887.4311397001147,887.4311397001147,887.4311397001147,887.4311397001147,887.4311397001147,887.4311397001147,887.4311397001147,887.4311397001147,887.4311397001147,887.4311397001147,887.4311397001147,887.4311397001147,887.4311397001147,887.4311397001147,889.9406906000804,889.9406906000804,889.9406906000804,889.9406906000804,889.9406906000804,60,53,63,45,45,44,4.0,0.5149777000769973,890.4724062001333,892.06858010008,,,,,,,,,,106,m,20,2022-11-25_13h26.47.333,RL,2022.2.4,60.67913297841275,
1,44,0,44,0,,,,,,,,,,None,892.06858010008,892.06858010008,892.06858010008,892.06858010008,892.06858010008,892.06858010008,i,0.2837439998984337,892.3847123000305,892.3847123000305,892.3847123000305,892.3847123000305,892.3847123000305,892.3847123000305,892.6835900000297,892.6835900000297,894.1627227000427,894.1627227000427,894.1627227000427,894.1627227000427,894.1627227000427,894.1627227000427,894.1627227000427,894.1627227000427,894.1627227000427,894.1627227000427,894.1627227000427,894.1627227000427,894.1627227000427,894.1627227000427,894.1627227000427,894.1627227000427,894.1627227000427,896.6720662999433,896.6720662999433,896.6720662999433,896.6720662999433,896.6720662999433,71,53,60,43,60,60,4.0,0.6326944001484662,897.3203918999061,899.149401600007,,,,,,,,,,106,m,20,2022-11-25_13h26.47.333,RL,2022.2.4,60.67913297841275,
1,45,0,45,0,,,,,,,,,,None,899.149401600007,899.149401600007,899.149401600007,899.149401600007,899.149401600007,899.149401600007,r,0.5183387000579387,899.6980254999362,899.6980254999362,899.6980254999362,899.6980254999362,899.6980254999362,899.6980254999362,899.9968795001041,899.9968795001041,901.0107915999833,901.0107915999833,901.0273828001227,901.0273828001227,901.0273828001227,901.0273828001227,901.0273828001227,901.0273828001227,901.0273828001227,901.0273828001227,901.0273828001227,901.0273828001227,901.0273828001227,901.0273828001227,901.0273828001227,901.0273828001227,901.0273828001227,903.5365103001241,903.5365103001241,903.5365103001241,903.5365103001241,903.5365103001241,64,55,60,51,64,58,4.0,0.6808260001707822,904.2342636000831,906.1304021000396,,,,,,,,,,106,m,20,2022-11-25_13h26.47.333,RL,2022.2.4,60.67913297841275,
1,46,0,46,0,,,,,,,,,,None,906.1304021000396,906.1304021000396,906.1304021000396,906.1304021000396,906.1304021000396,906.1304021000396,r,0.7076094998046756,906.8633713999297,906.8633713999297,906.8633713999297,906.8633713999297,906.8633713999297,906.8633713999297,907.1605529000517,907.1605529000517,908.6896500999574,908.6896500999574,908.6896500999574,908.6896500999574,908.6896500999574,908.6896500999574,908.6896500999574,908.6896500999574,908.6896500999574,908.6896500999574,908.6896500999574,908.6896500999574,908.6896500999574,908.6896500999574,908.6896500999574,908.6896500999574,908.6896500999574,911.1988347000442,911.1988347000442,911.1988347000442,911.1988347000442,911.1988347000442,64,64,60,45,64,54,5.0,1.2953588999807835,912.5121335999575,914.1415220000781,,,,,,,,,,106,m,20,2022-11-25_13h26.47.333,RL,2022.2.4,60.67913297841275,
1,47,0,47,0,,,,,,,,,,None,914.1415220000781,914.1415220000781,914.1415220000781,914.1415220000781,914.1415220000781,914.1415220000781,r,0.5312934999819845,914.6957728001289,914.6957728001289,914.6957728001289,914.6957728001289,914.6957728001289,914.6957728001289,914.9891959000379,914.9891959000379,916.5852183999959,916.5852183999959,916.5852183999959,916.5852183999959,916.5852183999959,916.5852183999959,916.5852183999959,916.5852183999959,916.5852183999959,916.5852183999959,916.5852183999959,916.5852183999959,916.5852183999959,916.5852183999959,916.5852183999959,916.5852183999959,916.5852183999959,919.0939448000863,919.0939448000863,919.0939448000863,919.0939448000863,919.0939448000863,54,63,56,41,54,60,4.0,0.5813183998689055,919.692499200115,921.338975599967,,,,,,,,,,106,m,20,2022-11-25_13h26.47.333,RL,2022.2.4,60.67913297841275,
1,48,0,48,0,,,,,,,,,,None,921.338975599967,921.338975599967,921.338975599967,921.338975599967,921.338975599967,921.338975599967,r,0.6588816000148654,922.0250615000259,922.0250615000259,922.0250615000259,922.0250615000259,922.0250615000259,922.0250615000259,922.3192893001251,922.3192893001251,924.0983059999999,924.0983059999999,924.0983059999999,924.0983059999999,924.0983059999999,924.0983059999999,924.0983059999999,924.0983059999999,924.0983059999999,924.0983059999999,924.0983059999999,924.0983059999999,924.0983059999999,924.0983059999999,924.0983059999999,924.0983059999999,924.0983059999999,926.606822400121,926.606822400121,926.606822400121,926.606822400121,926.606822400121,58,65,61,39,58,58,4.0,0.4988272001501173,927.1221014000475,928.8848198000342,,,,,,,,,,106,m,20,2022-11-25_13h26.47.333,RL,2022.2.4,60.67913297841275,
1,49,0,49,0,,,,,,,,,,None,928.8848198000342,928.8848198000342,928.8848198000342,928.8848198000342,928.8848198000342,928.8848198000342,r,0.8035510000772774,929.7180912999902,929.7180912999902,929.7180912999902,929.7180912999902,929.7180912999902,929.7180912999902,930.0149570000358,930.0149570000358,931.1949784001336,931.1949784001336,931.2118351000827,931.2118351000827,931.2118351000827,931.2118351000827,931.2118351000827,931.2118351000827,931.2118351000827,931.2118351000827,931.2118351000827,931.2118351000827,931.2118351000827,931.2118351000827,931.2118351000827,931.2118351000827,931.2118351000827,933.7207043000963,933.7207043000963,933.7207043000963,933.7207043000963,933.7207043000963,56,59,58,52,56,71,2.0,1.4613932999782264,935.2002376001328,936.8295205000322,,,,,,,,,,106,m,20,2022-11-25_13h26.47.333,RL,2022.2.4,60.67913297841275,
1,50,0,50,0,,,,,,,,,,None,936.8295205000322,936.8295205000322,936.8295205000322,936.8295205000322,936.8295205000322,936.8295205000322,j,0.9337873999029398,937.7966766001191,937.7966766001191,937.7966766001191,937.7966766001191,937.7966766001191,937.7966766001191,938.0934256999753,938.0934256999753,939.622066100128,939.622066100128,939.622066100128,939.622066100128,939.622066100128,939.622066100128,939.622066100128,939.622066100128,939.622066100128,939.622066100128,939.622066100128,939.622066100128,939.622066100128,939.622066100128,939.622066100128,939.622066100128,939.622066100128,942.131330500124,942.131330500124,942.131330500124,942.131330500124,942.131330500124,59,65,51,46,46,49,4.0,0.6137801001314074,942.763352500042,944.3588948999532,,,,,,,,,,106,m,20,2022-11-25_13h26.47.333,RL,2022.2.4,60.67913297841275,
1,51,0,51,0,,,,,,,,,,None,944.3588948999532,944.3588948999532,944.3588948999532,944.3588948999532,944.3588948999532,944.3588948999532,f,0.3051631001289934,944.7022692000028,944.7022692000028,944.7022692000028,944.7022692000028,944.7022692000028,944.7022692000028,944.991077600047,944.991077600047,946.4885629001074,946.4885629001074,946.5033009001054,946.5033009001054,946.5033009001054,946.5033009001054,946.5033009001054,946.5033009001054,946.5033009001054,946.5033009001054,946.5033009001054,946.5033009001054,946.5033009001054,946.5033009001054,946.5033009001054,946.5033009001054,946.5033009001054,949.0126604000106,949.0126604000106,949.0126604000106,949.0126604000106,949.0126604000106,58,62,56,49,62,60,4.0,0.4485273000318557,949.4778428000864,951.007852199953,,,,,,,,,,106,m,20,2022-11-25_13h26.47.333,RL,2022.2.4,60.67913297841275,
1,52,0,52,0,,,,,,,,,,None,951.007852199953,951.007852199953,951.007852199953,951.007852199953,951.007852199953,951.007852199953,None,,,,,,,,,,,,,,,,,,,,,,,,,,,,,,,,51,57,52,45,0,**,None,None,957.0407456001267,958.8695293001365,952.5272870999761,957.0407456001267,,,,,,,,106,m,20,2022-11-25_13h26.47.333,RL,2022.2.4,60.67913297841275,
1,53,0,53,0,,,,,,,,,,None,958.8695293001365,958.8695293001365,958.8695293001365,958.8695293001365,958.8695293001365,958.8695293001365,f,0.4777666002046317,959.3693532000761,959.3693532000761,959.3693532000761,959.3693532000761,959.3693532000761,959.3693532000761,959.6674138000235,959.6674138000235,960.7978481000755,960.7978481000755,960.7978481000755,960.7978481000755,960.7978481000755,960.7978481000755,960.7978481000755,960.7978481000755,960.7978481000755,960.7978481000755,960.7978481000755,960.7978481000755,960.7978481000755,960.7978481000755,960.7978481000755,960.7978481000755,960.7978481000755,963.3066535999533,963.3066535999533,963.3066535999533,963.3066535999533,963.3066535999533,46,56,46,46,56,58,4.0,0.5484863999299705,963.8721183999442,965.7340834999923,,,,,,,,,,106,m,20,2022-11-25_13h26.47.333,RL,2022.2.4,60.67913297841275,
1,54,0,54,0,,,,,,,,,,None,965.7340834999923,965.7340834999923,965.7340834999923,965.7340834999923,965.7340834999923,965.7340834999923,r,0.5095550999976695,966.2677784999833,966.2677784999833,966.2677784999833,966.2677784999833,966.2677784999833,966.2677784999833,966.5658356999047,966.5658356999047,968.0453266000841,968.0453266000841,968.0453266000841,968.0453266000841,968.0453266000841,968.0453266000841,968.0453266000841,968.0453266000841,968.0453266000841,968.0453266000841,968.0453266000841,968.0453266000841,968.0453266000841,968.0453266000841,968.0453266000841,968.0453266000841,968.0453266000841,970.5534838000312,970.5534838000312,970.5534838000312,970.5534838000312,970.5534838000312,51,57,44,40,51,51,4.0,0.4478170000948012,971.0194614999928,972.7813309000339,,,,,,,,,,106,m,20,2022-11-25_13h26.47.333,RL,2022.2.4,60.67913297841275,
1,55,0,55,0,,,,,,,,,,None,972.7813309000339,972.7813309000339,972.7813309000339,972.7813309000339,972.7813309000339,972.7813309000339,r,0.4674872998148203,973.2813190999441,973.2813190999441,973.2813190999441,973.2813190999441,973.2813190999441,973.2813190999441,973.5811163000762,973.5811163000762,975.1418403000571,975.1418403000571,975.1418403000571,975.1418403000571,975.1418403000571,975.1418403000571,975.1418403000571,975.1418403000571,975.1418403000571,975.1418403000571,975.1418403000571,975.1418403000571,975.1418403000571,975.1418403000571,975.1418403000571,975.1418403000571,975.1418403000571,977.6508389001247,977.6508389001247,977.6508389001247,977.6508389001247,977.6508389001247,49,55,50,38,49,51,4.0,0.5313770999200642,978.1993887999561,980.1781494000461,,,,,,,,,,106,m,20,2022-11-25_13h26.47.333,RL,2022.2.4,60.67913297841275,
1,56,0,56,0,,,,,,,,,,None,980.1781494000461,980.1781494000461,980.1781494000461,980.1781494000461,980.1781494000461,980.1781494000461,f,0.5805458000395447,980.7795931000728,980.7795931000728,980.7795931000728,980.7795931000728,980.7795931000728,980.7795931000728,981.0757013999391,981.0757013999391,982.3557156000752,982.3557156000752,982.3557156000752,982.3557156000752,982.3557156000752,982.3557156000752,982.3557156000752,982.3557156000752,982.3557156000752,982.3557156000752,982.3557156000752,982.3557156000752,982.3557156000752,982.3557156000752,982.3557156000752,982.3557156000752,982.3557156000752,984.8645709999837,984.8645709999837,984.8645709999837,984.8645709999837,984.8645709999837,55,53,48,44,53,19,7.0,0.5487389999907464,985.4296041999478,987.2753928001039,,,,,,,,,,106,m,20,2022-11-25_13h26.47.333,RL,2022.2.4,60.67913297841275,
1,57,0,57,0,,,,,,,,,,None,987.2753928001039,987.2753928001039,987.2753928001039,987.2753928001039,987.2753928001039,987.2753928001039,j,0.3938815000001341,987.6915691001341,987.6915691001341,987.6915691001341,987.6915691001341,987.6915691001341,987.6915691001341,987.9901648999657,987.9901648999657,989.7523660000879,989.7523660000879,989.7523660000879,989.7523660000879,989.7523660000879,989.7523660000879,989.7523660000879,989.7523660000879,989.7523660000879,989.7523660000879,989.7523660000879,989.7523660000879,989.7523660000879,989.7523660000879,989.7523660000879,989.7523660000879,989.7523660000879,992.261136099929,992.261136099929,992.261136099929,992.261136099929,992.261136099929,54,56,43,37,37,48,3.0,0.7814947001170367,993.0587071001064,994.92122810008,,,,,,,,,,106,m,20,2022-11-25_13h26.47.333,RL,2022.2.4,60.67913297841275,
1,58,0,58,0,,,,,,,,,,None,994.92122810008,994.92122810008,994.92122810008,994.92122810008,994.92122810008,994.92122810008,j,0.7086326000280678,995.654030600097,995.654030600097,995.654030600097,995.654030600097,995.654030600097,995.654030600097,995.9518641000614,995.9518641000614,997.2814811000135,997.2814811000135,997.2814811000135,997.2814811000135,997.2814811000135,997.2814811000135,997.2814811000135,997.2814811000135,997.2814811000135,997.2814811000135,997.2814811000135,997.2814811000135,997.2814811000135,997.2814811000135,997.2814811000135,997.2814811000135,997.2814811000135,999.790472399909,999.790472399909,999.790472399909,999.790472399909,999.790472399909,51,46,48,45,45,65,3.0,0.8804305999074131,1000.6882150999736,1002.6336459000595,,,,,,,,,,106,m,20,2022-11-25_13h26.47.333,RL,2022.2.4,60.67913297841275,
1,59,0,59,0,,,,,,,,,,None,1002.6336459000595,1002.6336459000595,1002.6336459000595,1002.6336459000595,1002.6336459000595,1002.6336459000595,f,0.800497499993071,1003.4652724000625,1003.4652724000625,1003.4652724000625,1003.4652724000625,1003.4652724000625,1003.4652724000625,1003.7643925999291,1003.7643925999291,1005.5422563999891,1005.5422563999891,1005.5422563999891,1005.5422563999891,1005.5422563999891,1005.5422563999891,1005.5422563999891,1005.5422563999891,1005.5422563999891,1005.5422563999891,1005.5422563999891,1005.5422563999891,1005.5422563999891,1005.5422563999891,1005.5422563999891,1005.5422563999891,1005.5422563999891,1008.0512323000003,1008.0512323000003,1008.0512323000003,1008.0512323000003,1008.0512323000003,51,39,57,41,39,61,2.0,0.814338100142777,1008.8821370000951,1010.6281574000604,,,,,,,,,,106,m,20,2022-11-25_13h26.47.333,RL,2022.2.4,60.67913297841275,
1,60,0,60,0,,,,,,,,,,None,1010.6281574000604,1010.6281574000604,1010.6281574000604,1010.6281574000604,1010.6281574000604,1010.6281574000604,r,0.9904077001847327,1011.6427029001061,1011.6427029001061,1011.6427029001061,1011.6427029001061,1011.6427029001061,1011.6427029001061,1011.9415915999562,1011.9415915999562,1013.0717110999394,1013.0717110999394,1013.0717110999394,1013.0717110999394,1013.0717110999394,1013.0717110999394,1013.0717110999394,1013.0717110999394,1013.0717110999394,1013.0717110999394,1013.0717110999394,1013.0717110999394,1013.0717110999394,1013.0717110999394,1013.0717110999394,1013.0717110999394,1013.0717110999394,1015.5808019000106,1015.5808019000106,1015.5808019000106,1015.5808019000106,1015.5808019000106,53,46,45,44,53,50,5.0,1.8793391999788582,1017.4759518001229,1019.4874666999094,,,,,,,,,,106,m,20,2022-11-25_13h26.47.333,RL,2022.2.4,60.67913297841275,
1,61,0,61,0,,,,,,,,,,None,1019.4874666999094,1019.4874666999094,1019.4874666999094,1019.4874666999094,1019.4874666999094,1019.4874666999094,r,0.33147309999912977,1019.8369440999813,1019.8369440999813,1019.8369440999813,1019.8369440999813,1019.8369440999813,1019.8369440999813,1020.1362314000726,1020.1362314000726,1021.2992787000258,1021.2992787000258,1021.2992787000258,1021.2992787000258,1021.2992787000258,1021.2992787000258,1021.2992787000258,1021.2992787000258,1021.2992787000258,1021.2992787000258,1021.2992787000258,1021.2992787000258,1021.2992787000258,1021.2992787000258,1021.2992787000258,1021.2992787000258,1021.2992787000258,1023.8086353000253,1023.8086353000253,1023.8086353000253,1023.8086353000253,1023.8086353000253,50,52,48,46,50,66,3.0,1.062709900084883,1024.8886520001106,1026.8514495999552,,,,,,,,,,106,m,20,2022-11-25_13h26.47.333,RL,2022.2.4,60.67913297841275,
1,62,0,62,0,,,,,,,,,,None,1026.8514495999552,1026.8514495999552,1026.8514495999552,1026.8514495999552,1026.8514495999552,1026.8514495999552,f,0.27235640003345907,1027.151860699989,1027.151860699989,1027.151860699989,1027.151860699989,1027.151860699989,1027.151860699989,1027.449157099938,1027.449157099938,1028.6125477999449,1028.6125477999449,1028.6125477999449,1028.6125477999449,1028.6125477999449,1028.6125477999449,1028.6125477999449,1028.6125477999449,1028.6125477999449,1028.6125477999449,1028.6125477999449,1028.6125477999449,1028.6125477999449,1028.6125477999449,1028.6125477999449,1028.6125477999449,1028.6125477999449,1031.1219313000329,1031.1219313000329,1031.1219313000329,1031.1219313000329,1031.1219313000329,57,59,44,50,59,58,4.0,0.9137697999831289,1032.0525803999044,1033.5988112001214,,,,,,,,,,106,m,20,2022-11-25_13h26.47.333,RL,2022.2.4,60.67913297841275,
1,63,0,63,0,,,,,,,,,,None,1033.5988112001214,1033.5988112001214,1033.5988112001214,1033.5988112001214,1033.5988112001214,1033.5988112001214,f,1.0146845998242497,1034.6466930999886,1034.6466930999886,1034.6466930999886,1034.6466930999886,1034.6466930999886,1034.6466930999886,1034.9454886000603,1034.9454886000603,1036.275389800081,1036.275389800081,1036.275389800081,1036.275389800081,1036.275389800081,1036.275389800081,1036.275389800081,1036.275389800081,1036.275389800081,1036.275389800081,1036.275389800081,1036.275389800081,1036.275389800081,1036.275389800081,1036.275389800081,1036.275389800081,1036.275389800081,1038.7840909000952,1038.7840909000952,1038.7840909000952,1038.7840909000952,1038.7840909000952,64,56,47,46,56,70,3.0,0.7638719000387937,1039.5652274000458,1041.2280103000812,,,,,,,,,,106,m,20,2022-11-25_13h26.47.333,RL,2022.2.4,60.67913297841275,
1,64,0,64,0,,,,,,,,,,None,1041.2280103000812,1041.2280103000812,1041.2280103000812,1041.2280103000812,1041.2280103000812,1041.2280103000812,i,0.2756723000202328,1041.528003500076,1041.528003500076,1041.528003500076,1041.528003500076,1041.528003500076,1041.528003500076,1041.826857100008,1041.826857100008,1043.2725750999525,1043.2725750999525,1043.2725750999525,1043.2725750999525,1043.2725750999525,1043.2725750999525,1043.2725750999525,1043.2725750999525,1043.2725750999525,1043.2725750999525,1043.2725750999525,1043.2725750999525,1043.2725750999525,1043.2725750999525,1043.2725750999525,1043.2725750999525,1043.2725750999525,1045.7816993000451,1045.7816993000451,1045.7816993000451,1045.7816993000451,1045.7816993000451,54,52,45,43,45,67,3.0,1.4954250999726355,1047.2940346999094,1048.840943200048,,,,,,,,,,106,m,20,2022-11-25_13h26.47.333,RL,2022.2.4,60.67913297841275,
1,65,0,65,0,,,,,,,,,,None,1048.840943200048,1048.840943200048,1048.840943200048,1048.840943200048,1048.840943200048,1048.840943200048,i,0.49764960003085434,1049.356549799908,1049.356549799908,1049.356549799908,1049.356549799908,1049.356549799908,1049.356549799908,1049.655541599961,1049.655541599961,1050.6524084000848,1050.6524084000848,1050.6524084000848,1050.6524084000848,1050.6524084000848,1050.6524084000848,1050.6524084000848,1050.6524084000848,1050.6524084000848,1050.6524084000848,1050.6524084000848,1050.6524084000848,1050.6524084000848,1050.6524084000848,1050.6524084000848,1050.6524084000848,1050.6524084000848,1053.1618226999417,1053.1618226999417,1053.1618226999417,1053.1618226999417,1053.1618226999417,58,53,49,46,49,61,4.0,0.9133576001040637,1054.09241380007,1055.6054458001163,,,,,,,,,,106,m,20,2022-11-25_13h26.47.333,RL,2022.2.4,60.67913297841275,
1,66,0,66,0,,,,,,,,,,None,1055.6054458001163,1055.6054458001163,1055.6054458001163,1055.6054458001163,1055.6054458001163,1055.6054458001163,j,0.4335806998424232,1056.0733453999273,1056.0733453999273,1056.0733453999273,1056.0733453999273,1056.0733453999273,1056.0733453999273,1056.3706030000467,1056.3706030000467,1058.032503800001,1058.032503800001,1058.032503800001,1058.032503800001,1058.032503800001,1058.032503800001,1058.032503800001,1058.032503800001,1058.032503800001,1058.032503800001,1058.032503800001,1058.032503800001,1058.032503800001,1058.032503800001,1058.032503800001,1058.032503800001,1058.032503800001,1060.5416788000148,1060.5416788000148,1060.5416788000148,1060.5416788000148,1060.5416788000148,46,44,50,50,50,71,3.0,0.6477244000416249,1061.2062357999384,1062.786024800036,,,,,,,,,,106,m,20,2022-11-25_13h26.47.333,RL,2022.2.4,60.67913297841275,
1,67,0,67,0,,,,,,,,,,None,1062.786024800036,1062.786024800036,1062.786024800036,1062.786024800036,1062.786024800036,1062.786024800036,f,0.5092128999531269,1063.3203422001097,1063.3203422001097,1063.3203422001097,1063.3203422001097,1063.3203422001097,1063.3203422001097,1063.6171083999798,1063.6171083999798,1064.8472102000378,1064.8472102000378,1064.8640562999062,1064.8640562999062,1064.8640562999062,1064.8640562999062,1064.8640562999062,1064.8640562999062,1064.8640562999062,1064.8640562999062,1064.8640562999062,1064.8640562999062,1064.8640562999062,1064.8640562999062,1064.8640562999062,1064.8640562999062,1064.8640562999062,1067.3730446000118,1067.3730446000118,1067.3730446000118,1067.3730446000118,1067.3730446000118,46,47,47,48,47,65,2.0,0.9805111000314355,1068.3705174000934,1069.916348000057,,,,,,,,,,106,m,20,2022-11-25_13h26.47.333,RL,2022.2.4,60.67913297841275,
1,68,0,68,0,,,,,,,,,,None,1069.916348000057,1069.916348000057,1069.916348000057,1069.916348000057,1069.916348000057,1069.916348000057,r,0.2641143000219017,1070.2042873001192,1070.2042873001192,1070.2042873001192,1070.2042873001192,1070.2042873001192,1070.2042873001192,1070.4985424999613,1070.4985424999613,1072.492717700079,1072.492717700079,1072.5095923999324,1072.5095923999324,1072.5095923999324,1072.5095923999324,1072.5095923999324,1072.5095923999324,1072.5095923999324,1072.5095923999324,1072.5095923999324,1072.5095923999324,1072.5095923999324,1072.5095923999324,1072.5095923999324,1072.5095923999324,1072.5095923999324,1075.01884480007,1075.01884480007,1075.01884480007,1075.01884480007,1075.01884480007,45,45,54,50,45,72,2.0,0.8484852998517454,1075.883024299983,1077.7455327999778,,,,,,,,,,106,m,20,2022-11-25_13h26.47.333,RL,2022.2.4,60.67913297841275,
1,69,0,69,0,,,,,,,,,,None,1077.7455327999778,1077.7455327999778,1077.7455327999778,1077.7455327999778,1077.7455327999778,1077.7455327999778,r,0.23848559986799955,1078.0118948000018,1078.0118948000018,1078.0118948000018,1078.0118948000018,1078.0118948000018,1078.0118948000018,1078.3105009999126,1078.3105009999126,1079.7235856000334,1079.7235856000334,1079.7235856000334,1079.7235856000334,1079.7235856000334,1079.7235856000334,1079.7235856000334,1079.7235856000334,1079.7235856000334,1079.7235856000334,1079.7235856000334,1079.7235856000334,1079.7235856000334,1079.7235856000334,1079.7235856000334,1079.7235856000334,1079.7235856000334,1082.2324147999752,1082.2324147999752,1082.2324147999752,1082.2324147999752,1082.2324147999752,40,41,46,48,40,51,3.0,0.7972469001542777,1083.0468675000593,1084.5598005000502,,,,,,,,,,106,m,20,2022-11-25_13h26.47.333,RL,2022.2.4,60.67913297841275,
1,70,0,70,0,,,,,,,,,,None,1084.5598005000502,1084.5598005000502,1084.5598005000502,1084.5598005000502,1084.5598005000502,1084.5598005000502,f,0.3886029999703169,1084.9758705999702,1084.9758705999702,1084.9758705999702,1084.9758705999702,1084.9758705999702,1084.9758705999702,1085.275216900045,1085.275216900045,1087.0870362001006,1087.0870362001006,1087.0870362001006,1087.0870362001006,1087.0870362001006,1087.0870362001006,1087.0870362001006,1087.0870362001006,1087.0870362001006,1087.0870362001006,1087.0870362001006,1087.0870362001006,1087.0870362001006,1087.0870362001006,1087.0870362001006,1087.0870362001006,1087.0870362001006,1089.5955421000253,1089.5955421000253,1089.5955421000253,1089.5955421000253,1089.5955421000253,52,45,42,54,45,52,3.0,0.8464071999769658,1090.4599695000798,1092.1890444001183,,,,,,,,,,106,m,20,2022-11-25_13h26.47.333,RL,2022.2.4,60.67913297841275,
1,71,0,71,0,,,,,,,,,,None,1092.1890444001183,1092.1890444001183,1092.1890444001183,1092.1890444001183,1092.1890444001183,1092.1890444001183,j,0.3693772000260651,1092.5886029999238,1092.5886029999238,1092.5886029999238,1092.5886029999238,1092.5886029999238,1092.5886029999238,1092.870742799947,1092.870742799947,1094.5163352000527,1094.5163352000527,1094.5328639000654,1094.5328639000654,1094.5328639000654,1094.5328639000654,1094.5328639000654,1094.5328639000654,1094.5328639000654,1094.5328639000654,1094.5328639000654,1094.5328639000654,1094.5328639000654,1094.5328639000654,1094.5328639000654,1094.5328639000654,1094.5328639000654,1097.0420153001323,1097.0420153001323,1097.0420153001323,1097.0420153001323,1097.0420153001323,41,45,38,49,49,43,5.0,1.112698799930513,1098.1720517999493,1100.067424000008,,,,,,,,,,106,m,20,2022-11-25_13h26.47.333,RL,2022.2.4,60.67913297841275,
1,72,0,72,0,,,,,,,,,,None,1100.067424000008,1100.067424000008,1100.067424000008,1100.067424000008,1100.067424000008,1100.067424000008,j,0.23569190013222396,1100.333971899934,1100.333971899934,1100.333971899934,1100.333971899934,1100.333971899934,1100.333971899934,1100.6331106999423,1100.6331106999423,1101.8963373999577,1101.8963373999577,1101.8963373999577,1101.8963373999577,1101.8963373999577,1101.8963373999577,1101.8963373999577,1101.8963373999577,1101.8963373999577,1101.8963373999577,1101.8963373999577,1101.8963373999577,1101.8963373999577,1101.8963373999577,1101.8963373999577,1101.8963373999577,1101.8963373999577,1104.4056726999115,1104.4056726999115,1104.4056726999115,1104.4056726999115,1104.4056726999115,48,37,39,49,49,65,2.0,0.7805956001393497,1105.2028612999711,1106.9321483999956,,,,,,,,,,106,m,20,2022-11-25_13h26.47.333,RL,2022.2.4,60.67913297841275,
1,73,0,73,0,,,,,,,,,,None,1106.9321483999956,1106.9321483999956,1106.9321483999956,1106.9321483999956,1106.9321483999956,1106.9321483999956,r,0.3411751000676304,1107.301244399976,1107.301244399976,1107.301244399976,1107.301244399976,1107.301244399976,1107.301244399976,1107.5981690001208,1107.5981690001208,1108.6608738999348,1108.6608738999348,1108.6608738999348,1108.6608738999348,1108.6608738999348,1108.6608738999348,1108.6608738999348,1108.6608738999348,1108.6608738999348,1108.6608738999348,1108.6608738999348,1108.6608738999348,1108.6608738999348,1108.6608738999348,1108.6608738999348,1108.6608738999348,1108.6608738999348,1111.1703391999472,1111.1703391999472,1111.1703391999472,1111.1703391999472,1111.1703391999472,42,36,30,53,42,51,3.0,0.7477524999994785,1111.9348192999605,1113.796801300021,,,,,,,,,,106,m,20,2022-11-25_13h26.47.333,RL,2022.2.4,60.67913297841275,
1,74,0,74,0,,,,,,,,,,None,1113.796801300021,1113.796801300021,1113.796801300021,1113.796801300021,1113.796801300021,1113.796801300021,f,0.27222529985010624,1114.0989773001056,1114.0989773001056,1114.0989773001056,1114.0989773001056,1114.0989773001056,1114.0989773001056,1114.3953901000787,1114.3953901000787,1116.107316599926,1116.107316599926,1116.107316599926,1116.107316599926,1116.107316599926,1116.107316599926,1116.107316599926,1116.107316599926,1116.107316599926,1116.107316599926,1116.107316599926,1116.107316599926,1116.107316599926,1116.107316599926,1116.107316599926,1116.107316599926,1116.107316599926,1118.616539800074,1118.616539800074,1118.616539800074,1118.616539800074,1118.616539800074,36,36,36,45,36,63,1.0,0.8327992998529226,1119.464419200085,1121.1771478999872,,,,,,,,,,106,m,20,2022-11-25_13h26.47.333,RL,2022.2.4,60.67913297841275,
1,75,0,75,0,,,,,,,,,,q,1308.117416900117,1308.117416900117,1308.117416900117,1308.117416900117,1308.117416900117,1308.117416900117,j,1.3788124001584947,1309.52994389995,1309.52994389995,1309.52994389995,1309.52994389995,1309.52994389995,1309.52994389995,1309.8288817999419,1309.8288817999419,1310.6434563999064,1310.6434563999064,1310.6434563999064,1310.6434563999064,1310.6434563999064,1310.6434563999064,1310.6434563999064,1310.6434563999064,1310.6434563999064,1310.6434563999064,1310.6434563999064,1310.6434563999064,1310.6434563999064,1310.6434563999064,1310.6434563999064,1310.6434563999064,1310.6434563999064,1313.1531847999431,1313.1531847999431,1313.1531847999431,1313.1531847999431,1313.1531847999431,41,32,39,56,56,33,5.0,1.862326200120151,1315.0305041000247,1316.8266948999371,,,1121.1771478999872,1121.1771478999872,186.91445410018787,,,,,106,m,20,2022-11-25_13h26.47.333,RL,2022.2.4,60.67913297841275,
1,76,0,76,0,,,,,,,,,,None,1316.8266948999371,1316.8266948999371,1316.8266948999371,1316.8266948999371,1316.8266948999371,1316.8266948999371,j,0.4635270000435412,1317.3098832000978,1317.3098832000978,1317.3098832000978,1317.3098832000978,1317.3098832000978,1317.3098832000978,1317.6078492999077,1317.6078492999077,1318.5218344000168,1318.5218344000168,1318.5218344000168,1318.5218344000168,1318.5218344000168,1318.5218344000168,1318.5218344000168,1318.5218344000168,1318.5218344000168,1318.5218344000168,1318.5218344000168,1318.5218344000168,1318.5218344000168,1318.5218344000168,1318.5218344000168,1318.5218344000168,1318.5218344000168,1321.031480600126,1321.031480600126,1321.031480600126,1321.031480600126,1321.031480600126,45,32,39,55,55,64,3.0,0.6462260999251157,1321.6955162000377,1323.557838600129,,,,,,,,,,106,m,20,2022-11-25_13h26.47.333,RL,2022.2.4,60.67913297841275,
1,77,0,77,0,,,,,,,,,,None,1323.557838600129,1323.557838600129,1323.557838600129,1323.557838600129,1323.557838600129,1323.557838600129,f,0.503588099963963,1324.0943018000107,1324.0943018000107,1324.0943018000107,1324.0943018000107,1324.0943018000107,1324.0943018000107,1324.3892340001184,1324.3892340001184,1326.0513983001001,1326.0513983001001,1326.0513983001001,1326.0513983001001,1326.0513983001001,1326.0513983001001,1326.0513983001001,1326.0513983001001,1326.0513983001001,1326.0513983001001,1326.0513983001001,1326.0513983001001,1326.0513983001001,1326.0513983001001,1326.0513983001001,1326.0513983001001,1326.0513983001001,1328.560734699946,1328.560734699946,1328.560734699946,1328.560734699946,1328.560734699946,46,40,48,43,40,42,3.0,1.8606785999145359,1330.4388417000882,1331.9515092000365,,,,,,,,,,106,m,20,2022-11-25_13h26.47.333,RL,2022.2.4,60.67913297841275,
1,78,0,78,0,,,,,,,,,,None,1331.9515092000365,1331.9515092000365,1331.9515092000365,1331.9515092000365,1331.9515092000365,1331.9515092000365,j,0.31024379981681705,1332.2923920000903,1332.2923920000903,1332.2923920000903,1332.2923920000903,1332.2923920000903,1332.2923920000903,1332.5834544000681,1332.5834544000681,1333.4813856000546,1333.4813856000546,1333.4813856000546,1333.4813856000546,1333.4813856000546,1333.4813856000546,1333.4813856000546,1333.4813856000546,1333.4813856000546,1333.4813856000546,1333.4813856000546,1333.4813856000546,1333.4813856000546,1333.4813856000546,1333.4813856000546,1333.4813856000546,1333.4813856000546,1335.9904451000039,1335.9904451000039,1335.9904451000039,1335.9904451000039,1335.9904451000039,48,43,50,49,49,50,4.0,1.6220071001444012,1337.6189367999323,1339.5640438001137,,,,,,,,,,106,m,20,2022-11-25_13h26.47.333,RL,2022.2.4,60.67913297841275,
1,79,0,79,0,,,,,,,,,,None,1339.5640438001137,1339.5640438001137,1339.5640438001137,1339.5640438001137,1339.5640438001137,1339.5640438001137,r,0.4870998999103904,1340.0801425999962,1340.0801425999962,1340.0801425999962,1340.0801425999962,1340.0801425999962,1340.0801425999962,1340.3788825999945,1340.3788825999945,1341.957821900025,1341.957821900025,1341.9744068,1341.9744068,1341.9744068,1341.9744068,1341.9744068,1341.9744068,1341.9744068,1341.9744068,1341.9744068,1341.9744068,1341.9744068,1341.9744068,1341.9744068,1341.9744068,1341.9744068,1344.4836979999673,1344.4836979999673,1344.4836979999673,1344.4836979999673,1344.4836979999673,51,37,48,50,51,51,4.0,0.5160873997956514,1345.015281500062,1346.9608368000481,,,,,,,,,,106,m,20,2022-11-25_13h26.47.333,RL,2022.2.4,60.67913297841275,
1,80,0,80,0,,,,,,,,,,None,1346.9608368000481,1346.9608368000481,1346.9608368000481,1346.9608368000481,1346.9608368000481,1346.9608368000481,f,0.2755116999614984,1347.2617331999354,1347.2617331999354,1347.2617331999354,1347.2617331999354,1347.2617331999354,1347.2617331999354,1347.5593425999396,1347.5593425999396,1349.1216355999932,1349.1216355999932,1349.1216355999932,1349.1216355999932,1349.1216355999932,1349.1216355999932,1349.1216355999932,1349.1216355999932,1349.1216355999932,1349.1216355999932,1349.1216355999932,1349.1216355999932,1349.1216355999932,1349.1216355999932,1349.1216355999932,1349.1216355999932,1349.1216355999932,1351.630696499953,1351.630696499953,1351.630696499953,1351.630696499953,1351.630696499953,54,39,55,52,39,53,2.0,0.43066539987921715,1352.0795766999945,1353.692138100043,,,,,,,,,,106,m,20,2022-11-25_13h26.47.333,RL,2022.2.4,60.67913297841275,
1,81,0,81,0,,,,,,,,,,None,1353.692138100043,1353.692138100043,1353.692138100043,1353.692138100043,1353.692138100043,1353.692138100043,r,0.699821799993515,1354.42632530001,1354.42632530001,1354.42632530001,1354.42632530001,1354.42632530001,1354.42632530001,1354.7234777000267,1354.7234777000267,1356.6184553001076,1356.6184553001076,1356.6184553001076,1356.6184553001076,1356.6184553001076,1356.6184553001076,1356.6184553001076,1356.6184553001076,1356.6184553001076,1356.6184553001076,1356.6184553001076,1356.6184553001076,1356.6184553001076,1356.6184553001076,1356.6184553001076,1356.6184553001076,1356.6184553001076,1359.1273272999097,1359.1273272999097,1359.1273272999097,1359.1273272999097,1359.1273272999097,49,41,60,46,49,51,4.0,0.43156119994819164,1359.5755358999595,1361.205221600132,,,,,,,,,,106,m,20,2022-11-25_13h26.47.333,RL,2022.2.4,60.67913297841275,
1,82,0,82,0,,,,,,,,,,None,1361.205221600132,1361.205221600132,1361.205221600132,1361.205221600132,1361.205221600132,1361.205221600132,f,0.3217478001024574,1361.5560711999424,1361.5560711999424,1361.5560711999424,1361.5560711999424,1361.5560711999424,1361.5560711999424,1361.8539402000606,1361.8539402000606,1363.216604199959,1363.216604199959,1363.216604199959,1363.216604199959,1363.216604199959,1363.216604199959,1363.216604199959,1363.216604199959,1363.216604199959,1363.216604199959,1363.216604199959,1363.216604199959,1363.216604199959,1363.216604199959,1363.216604199959,1363.216604199959,1363.216604199959,1365.7255369999912,1365.7255369999912,1365.7255369999912,1365.7255369999912,1365.7255369999912,50,42,45,45,42,57,3.0,0.727940000128001,1366.4737267999444,1368.0366676000413,,,,,,,,,,106,m,20,2022-11-25_13h26.47.333,RL,2022.2.4,60.67913297841275,
1,83,0,83,0,,,,,,,,,,None,1368.0366676000413,1368.0366676000413,1368.0366676000413,1368.0366676000413,1368.0366676000413,1368.0366676000413,j,0.295111799845472,1368.3528136000969,1368.3528136000969,1368.3528136000969,1368.3528136000969,1368.3528136000969,1368.3528136000969,1368.6517435999122,1368.6517435999122,1370.2309034999926,1370.2309034999926,1370.2309034999926,1370.2309034999926,1370.2309034999926,1370.2309034999926,1370.2309034999926,1370.2309034999926,1370.2309034999926,1370.2309034999926,1370.2309034999926,1370.2309034999926,1370.2309034999926,1370.2309034999926,1370.2309034999926,1370.2309034999926,1370.2309034999926,1372.7396774999797,1372.7396774999797,1372.7396774999797,1372.7396774999797,1372.7396774999797,46,51,51,42,42,52,3.0,1.1126926001161337,1373.870007700054,1375.5658241000492,,,,,,,,,,106,m,20,2022-11-25_13h26.47.333,RL,2022.2.4,60.67913297841275,
1,84,0,84,0,,,,,,,,,,None,1375.5658241000492,1375.5658241000492,1375.5658241000492,1375.5658241000492,1375.5658241000492,1375.5658241000492,j,0.24604299990460277,1375.832406600006,1375.832406600006,1375.832406600006,1375.832406600006,1375.832406600006,1375.832406600006,1376.1312535000034,1376.1312535000034,1377.527583300136,1377.527583300136,1377.527583300136,1377.527583300136,1377.527583300136,1377.527583300136,1377.527583300136,1377.527583300136,1377.527583300136,1377.527583300136,1377.527583300136,1377.527583300136,1377.527583300136,1377.527583300136,1377.527583300136,1377.527583300136,1377.527583300136,1380.036534700077,1380.036534700077,1380.036534700077,1380.036534700077,1380.036534700077,41,49,57,48,48,48,4.0,0.49755630013532937,1380.5516077999491,1382.4972230999265,,,,,,,,,,106,m,20,2022-11-25_13h26.47.333,RL,2022.2.4,60.67913297841275,
1,85,0,85,0,,,,,,,,,,None,1382.4972230999265,1382.4972230999265,1382.4972230999265,1382.4972230999265,1382.4972230999265,1382.4972230999265,r,0.3298599999397993,1382.8482343999203,1382.8482343999203,1382.8482343999203,1382.8482343999203,1382.8482343999203,1382.8482343999203,1383.1456021000631,1383.1456021000631,1384.4085307000205,1384.4085307000205,1384.4256100999191,1384.4256100999191,1384.4256100999191,1384.4256100999191,1384.4256100999191,1384.4256100999191,1384.4256100999191,1384.4256100999191,1384.4256100999191,1384.4256100999191,1384.4256100999191,1384.4256100999191,1384.4256100999191,1384.4256100999191,1384.4256100999191,1386.9344621000346,1386.9344621000346,1386.9344621000346,1386.9344621000346,1386.9344621000346,40,43,62,39,40,50,3.0,1.7283046999946237,1388.679451999953,1390.4920638001058,,,,,,,,,,106,m,20,2022-11-25_13h26.47.333,RL,2022.2.4,60.67913297841275,
1,86,0,86,0,,,,,,,,,,None,1390.4920638001058,1390.4920638001058,1390.4920638001058,1390.4920638001058,1390.4920638001058,1390.4920638001058,j,0.48578400001861155,1391.0144664999098,1391.0144664999098,1391.0144664999098,1391.0144664999098,1391.0144664999098,1391.0144664999098,1391.3068415001035,1391.3068415001035,1392.3536501999479,1392.3536501999479,1392.3702416000888,1392.3702416000888,1392.3702416000888,1392.3702416000888,1392.3702416000888,1392.3702416000888,1392.3702416000888,1392.3702416000888,1392.3702416000888,1392.3702416000888,1392.3702416000888,1392.3702416000888,1392.3702416000888,1392.3702416000888,1392.3702416000888,1394.8795728001278,1394.8795728001278,1394.8795728001278,1394.8795728001278,1394.8795728001278,42,43,58,42,42,55,3.0,0.6641224999912083,1395.5608268999495,1397.4563684000168,,,,,,,,,,106,m,20,2022-11-25_13h26.47.333,RL,2022.2.4,60.67913297841275,
1,87,0,87,0,,,,,,,,,,None,1397.4563684000168,1397.4563684000168,1397.4563684000168,1397.4563684000168,1397.4563684000168,1397.4563684000168,i,0.7900167999323457,1398.271887500072,1398.271887500072,1398.271887500072,1398.271887500072,1398.271887500072,1398.271887500072,1398.5703636000399,1398.5703636000399,1400.0991708000656,1400.0991708000656,1400.0991708000656,1400.0991708000656,1400.0991708000656,1400.0991708000656,1400.0991708000656,1400.0991708000656,1400.0991708000656,1400.0991708000656,1400.0991708000656,1400.0991708000656,1400.0991708000656,1400.0991708000656,1400.0991708000656,1400.0991708000656,1400.0991708000656,1402.60814450006,1402.60814450006,1402.60814450006,1402.60814450006,1402.60814450006,46,36,59,34,59,51,5.0,0.597477599978447,1403.2236844000872,1404.7530549999792,,,,,,,,,,106,m,20,2022-11-25_13h26.47.333,RL,2022.2.4,60.67913297841275,
1,88,0,88,0,,,,,,,,,,None,1404.7530549999792,1404.7530549999792,1404.7530549999792,1404.7530549999792,1404.7530549999792,1404.7530549999792,j,0.4336069000419229,1405.2205056000967,1405.2205056000967,1405.2205056000967,1405.2205056000967,1405.2205056000967,1405.2205056000967,1405.5179757000878,1405.5179757000878,1407.0639859999064,1407.0639859999064,1407.0801451001316,1407.0801451001316,1407.0801451001316,1407.0801451001316,1407.0801451001316,1407.0801451001316,1407.0801451001316,1407.0801451001316,1407.0801451001316,1407.0801451001316,1407.0801451001316,1407.0801451001316,1407.0801451001316,1407.0801451001316,1407.0801451001316,1409.589920599945,1409.589920599945,1409.589920599945,1409.589920599945,1409.589920599945,42,34,55,45,45,54,3.0,0.513067299965769,1410.1209094000515,1411.867292799987,,,,,,,,,,106,m,20,2022-11-25_13h26.47.333,RL,2022.2.4,60.67913297841275,
1,89,0,89,0,,,,,,,,,,None,1411.867292799987,1411.867292799987,1411.867292799987,1411.867292799987,1411.867292799987,1411.867292799987,f,0.5091331000439823,1412.3993335999548,1412.3993335999548,1412.3993335999548,1412.3993335999548,1412.3993335999548,1412.3993335999548,1412.6993053001352,1412.6993053001352,1414.4103951000143,1414.4103951000143,1414.4103951000143,1414.4103951000143,1414.4103951000143,1414.4103951000143,1414.4103951000143,1414.4103951000143,1414.4103951000143,1414.4103951000143,1414.4103951000143,1414.4103951000143,1414.4103951000143,1414.4103951000143,1414.4103951000143,1414.4103951000143,1414.4103951000143,1416.9192337000277,1416.9192337000277,1416.9192337000277,1416.9192337000277,1416.9192337000277,44,36,46,52,36,56,2.0,0.9288087000604719,1417.8664248001296,1419.778803900117,,,,,,,,,,106,m,20,2022-11-25_13h26.47.333,RL,2022.2.4,60.67913297841275,
1,90,0,90,0,,,,,,,,,,None,1419.778803900117,1419.778803900117,1419.778803900117,1419.778803900117,1419.778803900117,1419.778803900117,j,0.5472760999109596,1420.346560700098,1420.346560700098,1420.346560700098,1420.346560700098,1420.346560700098,1420.346560700098,1420.6433757999912,1420.6433757999912,1422.2388245000038,1422.2388245000038,1422.2388245000038,1422.2388245000038,1422.2388245000038,1422.2388245000038,1422.2388245000038,1422.2388245000038,1422.2388245000038,1422.2388245000038,1422.2388245000038,1422.2388245000038,1422.2388245000038,1422.2388245000038,1422.2388245000038,1422.2388245000038,1422.2388245000038,1424.7479505001102,1424.7479505001102,1424.7479505001102,1424.7479505001102,1424.7479505001102,49,41,49,54,54,59,4.0,0.879830899881199,1425.6453581999522,1427.474671300035,,,,,,,,,,106,m,20,2022-11-25_13h26.47.333,RL,2022.2.4,60.67913297841275,
1,91,0,91,0,,,,,,,,,,None,1427.474671300035,1427.474671300035,1427.474671300035,1427.474671300035,1427.474671300035,1427.474671300035,f,0.6607552000787109,1428.1565115000121,1428.1565115000121,1428.1565115000121,1428.1565115000121,1428.1565115000121,1428.1565115000121,1428.4553485000506,1428.4553485000506,1430.2503062000033,1430.2503062000033,1430.2503062000033,1430.2503062000033,1430.2503062000033,1430.2503062000033,1430.2503062000033,1430.2503062000033,1430.2503062000033,1430.2503062000033,1430.2503062000033,1430.2503062000033,1430.2503062000033,1430.2503062000033,1430.2503062000033,1430.2503062000033,1430.2503062000033,1432.7594832999166,1432.7594832999166,1432.7594832999166,1432.7594832999166,1432.7594832999166,41,36,51,43,36,63,1.0,1.2448634998872876,1434.0236649001017,1435.801566200098,,,,,,,,,,106,m,20,2022-11-25_13h26.47.333,RL,2022.2.4,60.67913297841275,
1,92,0,92,0,,,,,,,,,,None,1435.801566200098,1435.801566200098,1435.801566200098,1435.801566200098,1435.801566200098,1435.801566200098,r,0.337903399951756,1436.1694018999115,1436.1694018999115,1436.1694018999115,1436.1694018999115,1436.1694018999115,1436.1694018999115,1436.466773299966,1436.466773299966,1437.5806726000737,1437.5806726000737,1437.5806726000737,1437.5806726000737,1437.5806726000737,1437.5806726000737,1437.5806726000737,1437.5806726000737,1437.5806726000737,1437.5806726000737,1437.5806726000737,1437.5806726000737,1437.5806726000737,1437.5806726000737,1437.5806726000737,1437.5806726000737,1437.5806726000737,1440.0895422000904,1440.0895422000904,1440.0895422000904,1440.0895422000904,1440.0895422000904,41,35,54,58,41,53,3.0,1.6120764999650419,1441.7185545000248,1443.2313977999147,,,,,,,,,,106,m,20,2022-11-25_13h26.47.333,RL,2022.2.4,60.67913297841275,
1,93,0,93,0,,,,,,,,,,None,1443.2313977999147,1443.2313977999147,1443.2313977999147,1443.2313977999147,1443.2313977999147,1443.2313977999147,j,0.41289019980467856,1443.6654763000552,1443.6654763000552,1443.6654763000552,1443.6654763000552,1443.6654763000552,1443.6654763000552,1443.9463349001016,1443.9463349001016,1445.7246149000712,1445.7246149000712,1445.7414110000245,1445.7414110000245,1445.7414110000245,1445.7414110000245,1445.7414110000245,1445.7414110000245,1445.7414110000245,1445.7414110000245,1445.7414110000245,1445.7414110000245,1445.7414110000245,1445.7414110000245,1445.7414110000245,1445.7414110000245,1445.7414110000245,1448.2506192000583,1448.2506192000583,1448.2506192000583,1448.2506192000583,1448.2506192000583,36,33,48,56,56,66,3.0,1.1449407001491636,1449.4137190999463,1451.2930886999238,,,,,,,,,,106,m,20,2022-11-25_13h26.47.333,RL,2022.2.4,60.67913297841275,
1,94,0,94,0,,,,,,,,,,None,1451.2930886999238,1451.2930886999238,1451.2930886999238,1451.2930886999238,1451.2930886999238,1451.2930886999238,r,0.32636249996721745,1451.6424919001292,1451.6424919001292,1451.6424919001292,1451.6424919001292,1451.6424919001292,1451.6424919001292,1451.9418373000808,1451.9418373000808,1452.9385387001093,1452.9385387001093,1452.9385387001093,1452.9385387001093,1452.9385387001093,1452.9385387001093,1452.9385387001093,1452.9385387001093,1452.9385387001093,1452.9385387001093,1452.9385387001093,1452.9385387001093,1452.9385387001093,1452.9385387001093,1452.9385387001093,1452.9385387001093,1452.9385387001093,1455.4481470000464,1455.4481470000464,1455.4481470000464,1455.4481470000464,1455.4481470000464,40,43,56,55,40,61,2.0,2.991512600099668,1458.4559840001166,1459.9854381999467,,,,,,,,,,106,m,20,2022-11-25_13h26.47.333,RL,2022.2.4,60.67913297841275,
1,95,0,95,0,,,,,,,,,,None,1459.9854381999467,1459.9854381999467,1459.9854381999467,1459.9854381999467,1459.9854381999467,1459.9854381999467,j,0.2728897000197321,1460.2924562001135,1460.2924562001135,1460.2924562001135,1460.2924562001135,1460.2924562001135,1460.2924562001135,1460.5846796999685,1460.5846796999685,1462.2303116000257,1462.2303116000257,1462.2303116000257,1462.2303116000257,1462.2303116000257,1462.2303116000257,1462.2303116000257,1462.2303116000257,1462.2303116000257,1462.2303116000257,1462.2303116000257,1462.2303116000257,1462.2303116000257,1462.2303116000257,1462.2303116000257,1462.2303116000257,1462.2303116000257,1464.738708900055,1464.738708900055,1464.738708900055,1464.738708900055,1464.738708900055,35,43,50,60,60,60,4.0,0.4480802998878062,1465.2039159000851,1467.0663173999637,,,,,,,,,,106,m,20,2022-11-25_13h26.47.333,RL,2022.2.4,60.67913297841275,
1,96,0,96,0,,,,,,,,,,None,1467.0663173999637,1467.0663173999637,1467.0663173999637,1467.0663173999637,1467.0663173999637,1467.0663173999637,j,0.3465539999306202,1467.433673700085,1467.433673700085,1467.433673700085,1467.433673700085,1467.433673700085,1467.433673700085,1467.73147540004,1467.73147540004,1469.2771838000044,1469.2771838000044,1469.2771838000044,1469.2771838000044,1469.2771838000044,1469.2771838000044,1469.2771838000044,1469.2771838000044,1469.2771838000044,1469.2771838000044,1469.2771838000044,1469.2771838000044,1469.2771838000044,1469.2771838000044,1469.2771838000044,1469.2771838000044,1469.2771838000044,1471.7865214000922,1471.7865214000922,1471.7865214000922,1471.7865214000922,1471.7865214000922,42,37,48,53,53,60,3.0,1.2788444999605417,1473.08311649994,1474.612486799946,,,,,,,,,,106,m,20,2022-11-25_13h26.47.333,RL,2022.2.4,60.67913297841275,
1,97,0,97,0,,,,,,,,,,None,1474.612486799946,1474.612486799946,1474.612486799946,1474.612486799946,1474.612486799946,1474.612486799946,f,0.7402518000453711,1475.3786855000071,1475.3786855000071,1475.3786855000071,1475.3786855000071,1475.3786855000071,1475.3786855000071,1475.6769729000516,1475.6769729000516,1476.6902230000123,1476.6902230000123,1476.6902230000123,1476.6902230000123,1476.6902230000123,1476.6902230000123,1476.6902230000123,1476.6902230000123,1476.6902230000123,1476.6902230000123,1476.6902230000123,1476.6902230000123,1476.6902230000123,1476.6902230000123,1476.6902230000123,1476.6902230000123,1476.6902230000123,1479.1992355000693,1479.1992355000693,1479.1992355000693,1479.1992355000693,1479.1992355000693,44,37,62,54,37,62,2.0,0.647653300082311,1479.8640727999154,1481.3772881999612,,,,,,,,,,106,m,20,2022-11-25_13h26.47.333,RL,2022.2.4,60.67913297841275,
1,98,0,98,0,,,,,,,,,,None,1481.3772881999612,1481.3772881999612,1481.3772881999612,1481.3772881999612,1481.3772881999612,1481.3772881999612,r,0.6160724998917431,1482.0265877000056,1482.0265877000056,1482.0265877000056,1482.0265877000056,1482.0265877000056,1482.0265877000056,1482.3253425001167,1482.3253425001167,1483.1724708999973,1483.1724708999973,1483.1724708999973,1483.1724708999973,1483.1724708999973,1483.1724708999973,1483.1724708999973,1483.1724708999973,1483.1724708999973,1483.1724708999973,1483.1724708999973,1483.1724708999973,1483.1724708999973,1483.1724708999973,1483.1724708999973,1483.1724708999973,1483.1724708999973,1485.6815849000122,1485.6815849000122,1485.6815849000122,1485.6815849000122,1485.6815849000122,47,36,55,62,47,52,3.0,0.8140310000162572,1486.5126704000868,1488.1087404999416,,,,,,,,,,106,m,20,2022-11-25_13h26.47.333,RL,2022.2.4,60.67913297841275,
1,99,0,99,0,,,,,,,,,,None,1488.1087404999416,1488.1087404999416,1488.1087404999416,1488.1087404999416,1488.1087404999416,1488.1087404999416,r,0.44026910001412034,1488.5753687000833,1488.5753687000833,1488.5753687000833,1488.5753687000833,1488.5753687000833,1488.5753687000833,1488.8740004999563,1488.8740004999563,1490.735488000093,1490.735488000093,1490.7520363999065,1490.7520363999065,1490.7520363999065,1490.7520363999065,1490.7520363999065,1490.7520363999065,1490.7520363999065,1490.7520363999065,1490.7520363999065,1490.7520363999065,1490.7520363999065,1490.7520363999065,1490.7520363999065,1490.7520363999065,1490.7520363999065,1493.2610597000457,1493.2610597000457,1493.2610597000457,1493.2610597000457,1493.2610597000457,39,32,53,57,39,55,2.0,2.559033100027591,1495.8372829,1497.450051800115,,,,,,,,,,106,m,20,2022-11-25_13h26.47.333,RL,2022.2.4,60.67913297841275,
1,100,0,100,0,,,,,,,,,,None,1497.450051800115,1497.450051800115,1497.450051800115,1497.450051800115,1497.450051800115,1497.450051800115,f,0.6735054000746459,1498.150047000032,1498.150047000032,1498.150047000032,1498.150047000032,1498.150047000032,1498.150047000032,1498.4476459000725,1498.4476459000725,1499.7940106000751,1499.7940106000751,1499.8105456000194,1499.8105456000194,1499.8105456000194,1499.8105456000194,1499.8105456000194,1499.8105456000194,1499.8105456000194,1499.8105456000194,1499.8105456000194,1499.8105456000194,1499.8105456000194,1499.8105456000194,1499.8105456000194,1499.8105456000194,1499.8105456000194,1502.3197675999254,1502.3197675999254,1502.3197675999254,1502.3197675999254,1502.3197675999254,41,29,50,58,29,66,1.0,0.8301904001273215,1503.1672914999072,1505.1124887999613,,,,,,,,,,106,m,20,2022-11-25_13h26.47.333,RL,2022.2.4,60.67913297841275,
1,101,0,101,0,,,,,,,,,,None,1505.1124887999613,1505.1124887999613,1505.1124887999613,1505.1124887999613,1505.1124887999613,1505.1124887999613,j,0.3363083000294864,1505.4788410000037,1505.4788410000037,1505.4788410000037,1505.4788410000037,1505.4788410000037,1505.4788410000037,1505.7780079001095,1505.7780079001095,1507.1902624999639,1507.1902624999639,1507.206805499969,1507.206805499969,1507.206805499969,1507.206805499969,1507.206805499969,1507.206805499969,1507.206805499969,1507.206805499969,1507.206805499969,1507.206805499969,1507.206805499969,1507.206805499969,1507.206805499969,1507.206805499969,1507.206805499969,1509.7160515999421,1509.7160515999421,1509.7160515999421,1509.7160515999421,1509.7160515999421,42,20,42,64,64,51,5.0,0.9955594001803547,1510.730091100093,1512.5421494001057,,,,,,,,,,106,m,20,2022-11-25_13h26.47.333,RL,2022.2.4,60.67913297841275,
1,102,0,102,0,,,,,,,,,,None,1512.5421494001057,1512.5421494001057,1512.5421494001057,1512.5421494001057,1512.5421494001057,1512.5421494001057,None,,,,,,,,,,,,,,,,,,,,,,,,,,,,,,,,39,26,51,61,0,**,None,None,1518.5584569999482,1520.2214973999653,1514.0553009000141,1518.5584569999482,,,,,,,,106,m,20,2022-11-25_13h26.47.333,RL,2022.2.4,60.67913297841275,
1,103,0,103,0,,,,,,,,,,None,1520.2214973999653,1520.2214973999653,1520.2214973999653,1520.2214973999653,1520.2214973999653,1520.2214973999653,j,0.3167552000377327,1520.5709426999092,1520.5709426999092,1520.5709426999092,1520.5709426999092,1520.5709426999092,1520.5709426999092,1520.8699608999304,1520.8699608999304,1521.8501339999493,1521.8501339999493,1521.8501339999493,1521.8501339999493,1521.8501339999493,1521.8501339999493,1521.8501339999493,1521.8501339999493,1521.8501339999493,1521.8501339999493,1521.8501339999493,1521.8501339999493,1521.8501339999493,1521.8501339999493,1521.8501339999493,1521.8501339999493,1521.8501339999493,1524.359631499974,1524.359631499974,1524.359631499974,1524.359631499974,1524.359631499974,29,41,44,50,50,62,3.0,0.6811957000754774,1525.0574849999975,1526.8533775999676,,,,,,,,,,106,m,20,2022-11-25_13h26.47.333,RL,2022.2.4,60.67913297841275,
1,104,0,104,0,,,,,,,,,,None,1526.8533775999676,1526.8533775999676,1526.8533775999676,1526.8533775999676,1526.8533775999676,1526.8533775999676,f,0.26045869989320636,1527.1415762000252,1527.1415762000252,1527.1415762000252,1527.1415762000252,1527.1415762000252,1527.1415762000252,1527.4189269999042,1527.4189269999042,1528.3828382999636,1528.3828382999636,1528.4161300999112,1528.4161300999112,1528.4161300999112,1528.4161300999112,1528.4161300999112,1528.4161300999112,1528.4161300999112,1528.4161300999112,1528.4161300999112,1528.4161300999112,1528.4161300999112,1528.4161300999112,1528.4161300999112,1528.4161300999112,1528.4161300999112,1530.9253583999816,1530.9253583999816,1530.9253583999816,1530.9253583999816,1530.9253583999816,28,36,44,65,36,65,1.0,1.7965470000635833,1532.7366132999305,1534.5321788999718,,,,,,,,,,106,m,20,2022-11-25_13h26.47.333,RL,2022.2.4,60.67913297841275,
1,105,0,105,0,,,,,,,,,,None,1534.5321788999718,1534.5321788999718,1534.5321788999718,1534.5321788999718,1534.5321788999718,1534.5321788999718,r,0.2517359999474138,1534.8240054999478,1534.8240054999478,1534.8240054999478,1534.8240054999478,1534.8240054999478,1534.8240054999478,1535.1143881999888,1535.1143881999888,1537.0421800999902,1537.0421800999902,1537.0590902999975,1537.0590902999975,1537.0590902999975,1537.0590902999975,1537.0590902999975,1537.0590902999975,1537.0590902999975,1537.0590902999975,1537.0590902999975,1537.0590902999975,1537.0590902999975,1537.0590902999975,1537.0590902999975,1537.0590902999975,1537.0590902999975,1539.5684690999333,1539.5684690999333,1539.5684690999333,1539.5684690999333,1539.5684690999333,36,42,39,61,36,72,1.0,0.6479120999574661,1540.2327366999816,1542.2114840999711,,,,,,,,,,106,m,20,2022-11-25_13h26.47.333,RL,2022.2.4,60.67913297841275,
1,106,0,106,0,,,,,,,,,,None,1542.2114840999711,1542.2114840999711,1542.2114840999711,1542.2114840999711,1542.2114840999711,1542.2114840999711,j,0.18251629988662899,1542.4119232001249,1542.4119232001249,1542.4119232001249,1542.4119232001249,1542.4119232001249,1542.4119232001249,1542.7106514000334,1542.7106514000334,1543.8902853999753,1543.8902853999753,1543.8902853999753,1543.8902853999753,1543.8902853999753,1543.8902853999753,1543.8902853999753,1543.8902853999753,1543.8902853999753,1543.8902853999753,1543.8902853999753,1543.8902853999753,1543.8902853999753,1543.8902853999753,1543.8902853999753,1543.8902853999753,1543.8902853999753,1546.3994205999188,1546.3994205999188,1546.3994205999188,1546.3994205999188,1546.3994205999188,31,49,44,58,58,60,4.0,0.4976151001174003,1546.9146064999513,1548.5278817999642,,,,,,,,,,106,m,20,2022-11-25_13h26.47.333,RL,2022.2.4,60.67913297841275,
1,107,0,107,0,,,,,,,,,,None,1548.5278817999642,1548.5278817999642,1548.5278817999642,1548.5278817999642,1548.5278817999642,1548.5278817999642,f,0.28328490001149476,1548.8437197001185,1548.8437197001185,1548.8437197001185,1548.8437197001185,1548.8437197001185,1548.8437197001185,1549.14275670005,1549.14275670005,1551.1370024001226,1551.1370024001226,1551.1538406999316,1551.1538406999316,1551.1538406999316,1551.1538406999316,1551.1538406999316,1551.1538406999316,1551.1538406999316,1551.1538406999316,1551.1538406999316,1551.1538406999316,1551.1538406999316,1551.1538406999316,1551.1538406999316,1551.1538406999316,1551.1538406999316,1553.6628461999353,1553.6628461999353,1553.6628461999353,1553.6628461999353,1553.6628461999353,29,52,59,63,52,56,3.0,0.614897099789232,1554.2942987999413,1556.2406759001315,,,,,,,,,,106,m,20,2022-11-25_13h26.47.333,RL,2022.2.4,60.67913297841275,
1,108,0,108,0,,,,,,,,,,None,1556.2406759001315,1556.2406759001315,1556.2406759001315,1556.2406759001315,1556.2406759001315,1556.2406759001315,r,0.2645195999648422,1556.522963100113,1556.522963100113,1556.522963100113,1556.522963100113,1556.522963100113,1556.522963100113,1556.821781600127,1556.821781600127,1558.1016635000706,1558.1016635000706,1558.1016635000706,1558.1016635000706,1558.1016635000706,1558.1016635000706,1558.1016635000706,1558.1016635000706,1558.1016635000706,1558.1016635000706,1558.1016635000706,1558.1016635000706,1558.1016635000706,1558.1016635000706,1558.1016635000706,1558.1016635000706,1558.1016635000706,1560.6113014000002,1560.6113014000002,1560.6113014000002,1560.6113014000002,1560.6113014000002,42,45,54,59,42,49,3.0,0.8308304999954998,1561.4580796000082,1563.1208150000311,,,,,,,,,,106,m,20,2022-11-25_13h26.47.333,RL,2022.2.4,60.67913297841275,
1,109,0,109,0,,,,,,,,,,None,1563.1208150000311,1563.1208150000311,1563.1208150000311,1563.1208150000311,1563.1208150000311,1563.1208150000311,j,0.33484290004707873,1563.490977999987,1563.490977999987,1563.490977999987,1563.490977999987,1563.490977999987,1563.490977999987,1563.7861905000173,1563.7861905000173,1565.4980375999585,1565.4980375999585,1565.4980375999585,1565.4980375999585,1565.4980375999585,1565.4980375999585,1565.4980375999585,1565.4980375999585,1565.4980375999585,1565.4980375999585,1565.4980375999585,1565.4980375999585,1565.4980375999585,1565.4980375999585,1565.4980375999585,1565.4980375999585,1565.4980375999585,1568.0071066999808,1568.0071066999808,1568.0071066999808,1568.0071066999808,1568.0071066999808,24,42,51,56,56,71,3.0,0.8140726999845356,1568.8384602000006,1570.4178095001262,,,,,,,,,,106,m,20,2022-11-25_13h26.47.333,RL,2022.2.4,60.67913297841275,
1,110,0,110,0,,,,,,,,,,None,1570.4178095001262,1570.4178095001262,1570.4178095001262,1570.4178095001262,1570.4178095001262,1570.4178095001262,r,0.3236891000997275,1570.7676045999397,1570.7676045999397,1570.7676045999397,1570.7676045999397,1570.7676045999397,1570.7676045999397,1571.0505316001363,1571.0505316001363,1572.7286275001243,1572.7286275001243,1572.7450578000862,1572.7450578000862,1572.7450578000862,1572.7450578000862,1572.7450578000862,1572.7450578000862,1572.7450578000862,1572.7450578000862,1572.7450578000862,1572.7450578000862,1572.7450578000862,1572.7450578000862,1572.7450578000862,1572.7450578000862,1572.7450578000862,1575.254460199969,1575.254460199969,1575.254460199969,1575.254460199969,1575.254460199969,30,41,55,57,30,46,2.0,0.7470879999455065,1576.0184732999187,1577.5814165999182,,,,,,,,,,106,m,20,2022-11-25_13h26.47.333,RL,2022.2.4,60.67913297841275,
1,111,0,111,0,,,,,,,,,,None,1577.5814165999182,1577.5814165999182,1577.5814165999182,1577.5814165999182,1577.5814165999182,1577.5814165999182,f,0.4204074000008404,1578.0329440000933,1578.0329440000933,1578.0329440000933,1578.0329440000933,1578.0329440000933,1578.0329440000933,1578.329678399954,1578.329678399954,1579.2109580000397,1579.2109580000397,1579.2109580000397,1579.2109580000397,1579.2109580000397,1579.2109580000397,1579.2109580000397,1579.2109580000397,1579.2109580000397,1579.2109580000397,1579.2109580000397,1579.2109580000397,1579.2109580000397,1579.2109580000397,1579.2109580000397,1579.2109580000397,1579.2109580000397,1581.720442299964,1581.720442299964,1581.720442299964,1581.720442299964,1581.720442299964,32,41,53,51,41,50,3.0,1.5607419000007212,1583.298637199914,1584.8947743000463,,,,,,,,,,106,m,20,2022-11-25_13h26.47.333,RL,2022.2.4,60.67913297841275,
1,112,0,112,0,,,,,,,,,,None,1584.8947743000463,1584.8947743000463,1584.8947743000463,1584.8947743000463,1584.8947743000463,1584.8947743000463,r,0.4224201999604702,1585.3443843999412,1585.3443843999412,1585.3443843999412,1585.3443843999412,1585.3443843999412,1585.3443843999412,1585.6431491000112,1585.6431491000112,1586.8732481999323,1586.8732481999323,1586.8732481999323,1586.8732481999323,1586.8732481999323,1586.8732481999323,1586.8732481999323,1586.8732481999323,1586.8732481999323,1586.8732481999323,1586.8732481999323,1586.8732481999323,1586.8732481999323,1586.8732481999323,1586.8732481999323,1586.8732481999323,1586.8732481999323,1589.3821058000904,1589.3821058000904,1589.3821058000904,1589.3821058000904,1589.3821058000904,29,43,59,51,29,35,3.0,1.414088999852538,1590.8114525999408,1592.7237641999964,,,,,,,,,,106,m,20,2022-11-25_13h26.47.333,RL,2022.2.4,60.67913297841275,
1,113,0,113,0,,,,,,,,,,None,1592.7237641999964,1592.7237641999964,1592.7237641999964,1592.7237641999964,1592.7237641999964,1592.7237641999964,f,0.578195400070399,1593.322893399978,1593.322893399978,1593.322893399978,1593.322893399978,1593.322893399978,1593.322893399978,1593.6214606000576,1593.6214606000576,1595.0009461001027,1595.0009461001027,1595.0009461001027,1595.0009461001027,1595.0009461001027,1595.0009461001027,1595.0009461001027,1595.0009461001027,1595.0009461001027,1595.0009461001027,1595.0009461001027,1595.0009461001027,1595.0009461001027,1595.0009461001027,1595.0009461001027,1595.0009461001027,1595.0009461001027,1597.5103428999428,1597.5103428999428,1597.5103428999428,1597.5103428999428,1597.5103428999428,33,49,63,42,49,48,4.0,0.5984336000401527,1598.1247030999511,1599.8880736001302,,,,,,,,,,106,m,20,2022-11-25_13h26.47.333,RL,2022.2.4,60.67913297841275,
1,114,0,114,0,,,,,,,,,,None,1599.8880736001302,1599.8880736001302,1599.8880736001302,1599.8880736001302,1599.8880736001302,1599.8880736001302,r,0.4590410999953747,1600.3699292000383,1600.3699292000383,1600.3699292000383,1600.3699292000383,1600.3699292000383,1600.3699292000383,1600.6688840999268,1600.6688840999268,1602.6300162000116,1602.6300162000116,1602.6300162000116,1602.6300162000116,1602.6300162000116,1602.6300162000116,1602.6300162000116,1602.6300162000116,1602.6300162000116,1602.6300162000116,1602.6300162000116,1602.6300162000116,1602.6300162000116,1602.6300162000116,1602.6300162000116,1602.6300162000116,1602.6300162000116,1605.1394670999143,1605.1394670999143,1605.1394670999143,1605.1394670999143,1605.1394670999143,32,47,63,61,32,76,1.0,1.0795725001953542,1606.2361004999839,1607.8826123001054,,,,,,,,,,106,m,20,2022-11-25_13h26.47.333,RL,2022.2.4,60.67913297841275,
