bandit,trials.thisRepN,trials.thisTrialN,trials.thisN,trials.thisIndex,instru_img1.started,instru_img1.stopped,instru_resp.keys,instru_resp.rt,instru_resp.started,instru_resp.stopped,instru_img2.started,instru_img2.stopped,instru_resp2.keys,instru_resp2.rt,instru_resp2.started,instru_resp2.stopped,fixbefore_2.started,fixbefore_2.stopped,rest_image.started,rest_image.stopped,rest_response.keys,rest_response.started,rest_response.stopped,red.started,red.stopped,green.started,green.stopped,yellow.started,yellow.stopped,blue.started,blue.stopped,choose_bandit.keys,choose_bandit.rt,choose_bandit.started,choose_bandit.stopped,Fixation.started,Fixation.stopped,black.started,black.stopped,red_2.started,red_2.stopped,green_2.started,green_2.stopped,yellow_2.started,yellow_2.stopped,blue_2.started,blue_2.stopped,fixation_2.started,fixation_2.stopped,docs.started,docs.stopped,image_2.started,image_2.stopped,black_com.started,black_com.stopped,reward_sub.started,reward_sub.stopped,palyerb.started,palyerb.stopped,reward__sub.started,reward__sub.stopped,compare.started,compare.stopped,red_compare.started,red_compare.stopped,green_com.started,green_com.stopped,yellow_com.started,yellow_com.stopped,blue_com.started,blue_com.stopped,rewardyellow,rewardred,rewardblue,rewardgreen,subchoose,playerb,image_3.started,image_3.stopped,slider.response,slider.rt,slider.started,slider.stopped,text.started,text.stopped,image_4.started,image_4.stopped,image_5.started,image_5.stopped,bigx.started,bigx.stopped,intertrialfix.started,intertrialfix.stopped,rest_response.rt,image.started,image.stopped,key_resp.keys,key_resp.started,key_resp.stopped,participant,Gender,Age,date,expName,psychopyVersion,frameRate,
,,,,,25.002022900000156,None,space,2.4620490000015707,25.002022900000156,None,,,,,,,,,,,,,,,,,,,,,,,,,,,,,,,,,,,,,,,,,,,,,,,,,,,,,,,,,,,,,,,,,,,,,,,,,,,,,,,,,,,,,,,,,,107,M,22,2022_Nov_25_1515,RL,2021.2.3,59.865040251822066,
,,,,,,,,,,,27.494542899999942,None,space,3.3694544000027236,27.494542899999942,None,,,,,,,,,,,,,,,,,,,,,,,,,,,,,,,,,,,,,,,,,,,,,,,,,,,,,,,,,,,,,,,,,,,,,,,,,,,,,,,,,,,,107,M,22,2022_Nov_25_1515,RL,2021.2.3,59.865040251822066,
1,0,0,0,0,,,,,,,,,,,,,30.910206400003517,None,None,None,None,None,None,31.91212340000493,None,31.91212340000493,None,31.91212340000493,None,31.91212340000493,None,f,0.38208649999432964,31.91212340000493,None,31.91212340000493,None,32.34785710000142,None,32.34785710000142,None,32.34785710000142,None,32.34785710000142,None,32.34785710000142,None,32.34785710000142,None,32.64694270000473,None,32.64694270000473,None,34.35851309999998,None,34.35851309999998,None,34.35851309999998,None,34.35851309999998,None,34.35851309999998,None,34.35851309999998,None,34.35851309999998,None,34.35851309999998,None,34.35851309999998,None,55,28,42,63,28,53,36.88270780000312,None,3.0,2.0768725000016275,36.88270780000312,None,36.88270780000312,None,36.88270780000312,None,36.88270780000312,None,None,None,38.99132350000582,None,,,,,,,107,M,22,2022_Nov_25_1515,RL,2021.2.3,59.865040251822066,
1,1,0,1,0,,,,,,,,,,,,,,,None,None,None,None,None,40.53976469999907,None,40.53976469999907,None,40.53976469999907,None,40.53976469999907,None,i,0.6643602999974973,40.53976469999907,None,40.53976469999907,None,41.26835769999889,None,41.26835769999889,None,41.26835769999889,None,41.26835769999889,None,41.26835769999889,None,41.26835769999889,None,41.55226400000538,42.636090600004536,41.55226400000538,42.636090600004536,42.667648599999666,None,42.667648599999666,None,42.667648599999666,None,42.667648599999666,None,42.667648599999666,None,42.667648599999666,None,42.667648599999666,None,42.667648599999666,None,42.667648599999666,None,49,31,46,71,46,39,45.19301130000531,None,5.0,2.5626584999990882,45.19301130000531,None,45.19301130000531,None,45.19301130000531,None,45.19301130000531,None,None,None,47.779320699999516,None,,,,,,,107,M,22,2022_Nov_25_1515,RL,2021.2.3,59.865040251822066,
1,2,0,2,0,,,,,,,,,,,,,,,None,None,None,None,None,49.74294890000601,None,49.74294890000601,None,49.74294890000601,None,49.74294890000601,None,r,0.5210939000025974,49.74294890000601,None,49.74294890000601,None,50.308939100003045,None,50.308939100003045,None,50.308939100003045,None,50.308939100003045,None,50.308939100003045,None,50.308939100003045,None,50.60840230000031,None,50.60840230000031,None,52.252005800000916,None,52.252005800000916,None,52.252005800000916,None,52.252005800000916,None,52.252005800000916,None,52.252005800000916,None,52.252005800000916,None,52.252005800000916,None,52.252005800000916,None,49,36,41,72,49,53,54.77389029999904,None,4.0,2.024643000004289,54.77389029999904,None,54.77389029999904,None,54.77389029999904,None,54.77389029999904,None,None,None,56.81256020000001,None,,,,,,,107,M,22,2022_Nov_25_1515,RL,2021.2.3,59.865040251822066,
1,3,0,3,0,,,,,,,,,,,,,,,None,None,None,None,None,58.50040440000157,None,58.50040440000157,None,58.50040440000157,None,58.50040440000157,None,j,0.28371229999902425,58.50040440000157,None,58.50040440000157,None,58.83723340000142,None,58.83723340000142,None,58.83723340000142,None,58.83723340000142,None,58.83723340000142,None,58.83723340000142,None,59.131396000004315,None,59.131396000004315,None,60.54721090000385,None,60.54721090000385,None,60.54721090000385,None,60.54721090000385,None,60.54721090000385,None,60.54721090000385,None,60.54721090000385,None,60.54721090000385,None,60.54721090000385,None,50,35,42,67,67,59,63.05994030000147,None,6.0,3.3744200000001,63.05994030000147,None,63.05994030000147,None,63.05994030000147,None,63.05994030000147,None,None,None,66.45251740000094,None,,,,,,,107,M,22,2022_Nov_25_1515,RL,2021.2.3,59.865040251822066,
1,4,0,4,0,,,,,,,,,,,,,,,None,None,None,None,None,68.03913780000585,None,68.03913780000585,None,68.03913780000585,None,68.03913780000585,None,j,0.3852134999979171,68.03913780000585,None,68.03913780000585,None,68.48045130000537,None,68.48045130000537,None,68.48045130000537,None,68.48045130000537,None,68.48045130000537,None,68.48045130000537,None,68.77124660000118,None,68.77124660000118,None,69.93789690000267,None,69.93789690000267,None,69.93789690000267,None,69.93789690000267,None,69.93789690000267,None,69.93789690000267,None,69.93789690000267,None,69.93789690000267,None,69.93789690000267,None,55,38,44,77,77,41,72.46974140000384,None,7.0,2.40995799999655,72.46974140000384,None,72.46974140000384,None,72.46974140000384,None,72.46974140000384,None,None,None,74.87525100000494,None,,,,,,,107,M,22,2022_Nov_25_1515,RL,2021.2.3,59.865040251822066,
1,5,0,5,0,,,,,,,,,,,,,,,None,None,None,None,None,76.82802240000456,None,76.82802240000456,None,76.82802240000456,None,76.82802240000456,None,j,0.4161947999964468,76.82802240000456,None,76.82802240000456,None,77.27288409999892,None,77.27288409999892,None,77.27288409999892,None,77.27288409999892,None,77.27288409999892,None,77.27288409999892,None,77.56046690000221,79.49584380000306,77.56046690000221,79.49584380000306,79.52895010000066,None,79.52895010000066,None,79.52895010000066,None,79.52895010000066,None,79.52895010000066,None,79.52895010000066,None,79.52895010000066,None,79.52895010000066,None,79.52895010000066,None,55,40,38,72,72,54,82.04807290000463,None,7.0,5.285135700003593,82.04807290000463,None,82.04807290000463,None,82.04807290000463,None,82.04807290000463,None,None,None,87.35120770000503,None,,,,,,,107,M,22,2022_Nov_25_1515,RL,2021.2.3,59.865040251822066,
1,6,0,6,0,,,,,,,,,,,,,,,None,None,None,None,None,89.28767760000483,None,89.28767760000483,None,89.28767760000483,None,89.28767760000483,None,j,0.2662574999994831,89.28767760000483,None,89.28767760000483,None,89.5960716000045,None,89.5960716000045,None,89.5960716000045,None,89.5960716000045,None,89.5960716000045,None,89.5960716000045,None,89.8957531000051,None,89.8957531000051,None,90.98085930000525,None,90.98085930000525,None,90.98085930000525,None,90.98085930000525,None,90.98085930000525,None,90.98085930000525,None,90.98085930000525,None,90.98085930000525,None,90.98085930000525,None,50,44,34,82,82,29,93.49280010000075,None,7.0,1.219030100000964,93.49280010000075,None,93.49280010000075,None,93.49280010000075,None,93.49280010000075,None,None,None,94.72987190000276,None,,,,,,,107,M,22,2022_Nov_25_1515,RL,2021.2.3,59.865040251822066,
1,7,0,7,0,,,,,,,,,,,,,,,None,None,None,None,None,96.29430839999986,None,96.29430839999986,None,96.29430839999986,None,96.29430839999986,None,j,0.3099965000001248,96.29430839999986,None,96.29430839999986,None,96.64622260000033,None,96.64622260000033,None,96.64622260000033,None,96.64622260000033,None,96.64622260000033,None,96.64622260000033,None,96.94055740000476,None,96.94055740000476,None,97.95837250000477,None,97.95837250000477,None,97.95837250000477,None,97.95837250000477,None,97.95837250000477,None,97.95837250000477,None,97.95837250000477,None,97.95837250000477,None,97.95837250000477,None,62,44,41,72,72,22,100.47017179999966,None,7.0,1.189425200005644,100.47017179999966,None,100.47017179999966,None,100.47017179999966,None,100.47017179999966,None,None,None,101.6839598000006,None,,,,,,,107,M,22,2022_Nov_25_1515,RL,2021.2.3,59.865040251822066,
1,8,0,8,0,,,,,,,,,,,,,,,None,None,None,None,None,103.20856350000395,None,103.20856350000395,None,103.20856350000395,None,103.20856350000395,None,j,0.26582649999909336,103.20856350000395,None,103.20856350000395,None,103.5095239000002,None,103.5095239000002,None,103.5095239000002,None,103.5095239000002,None,103.5095239000002,None,103.5095239000002,None,103.7952310000037,104.64567240000179,103.7952310000037,104.64567240000179,104.67518610000116,None,104.67518610000116,None,104.67518610000116,None,104.67518610000116,None,104.67518610000116,None,104.67518610000116,None,104.67518610000116,None,104.67518610000116,None,104.67518610000116,None,48,53,49,69,69,66,107.18579740000132,None,5.0,1.1834238000010373,107.18579740000132,None,107.18579740000132,None,107.18579740000132,None,107.18579740000132,None,None,None,108.38684510000166,None,,,,,,,107,M,22,2022_Nov_25_1515,RL,2021.2.3,59.865040251822066,
1,9,0,9,0,,,,,,,,,,,,,,,None,None,None,None,None,109.98505290000321,None,109.98505290000321,None,109.98505290000321,None,109.98505290000321,None,j,0.27942219999386,109.98505290000321,None,109.98505290000321,None,110.30626840000332,None,110.30626840000332,None,110.30626840000332,None,110.30626840000332,None,110.30626840000332,None,110.30626840000332,None,110.59989870000572,None,110.59989870000572,None,112.36755750000157,None,112.36755750000157,None,112.36755750000157,None,112.36755750000157,None,112.36755750000157,None,112.36755750000157,None,112.36755750000157,None,112.36755750000157,None,112.36755750000157,None,56,52,44,76,76,63,114.88733640000282,None,5.0,2.13287180000043,114.88733640000282,None,114.88733640000282,None,114.88733640000282,None,114.88733640000282,None,None,None,117.03944580000098,None,,,,,,,107,M,22,2022_Nov_25_1515,RL,2021.2.3,59.865040251822066,
1,10,0,10,0,,,,,,,,,,,,,,,None,None,None,None,None,118.92525610000303,None,118.92525610000303,None,118.92525610000303,None,118.92525610000303,None,j,0.2990949999948498,118.92525610000303,None,118.92525610000303,None,119.27219510000577,None,119.27219510000577,None,119.27219510000577,None,119.27219510000577,None,119.27219510000577,None,119.27219510000577,None,119.55618710000272,121.12389610000537,119.55618710000272,121.12389610000537,121.15746510000463,None,121.15746510000463,None,121.15746510000463,None,121.15746510000463,None,121.15746510000463,None,121.15746510000463,None,121.15746510000463,None,121.15746510000463,None,121.15746510000463,None,52,54,48,77,77,64,123.66805630000454,None,5.0,0.8275534999993397,123.66805630000454,None,123.66805630000454,None,123.66805630000454,None,123.66805630000454,None,None,None,124.50923340000008,None,,,,,,,107,M,22,2022_Nov_25_1515,RL,2021.2.3,59.865040251822066,
1,11,0,11,0,,,,,,,,,,,,,,,None,None,None,None,None,126.13093530000333,None,126.13093530000333,None,126.13093530000333,None,126.13093530000333,None,j,0.3836534000001848,126.13093530000333,None,126.13093530000333,None,126.56760890000442,None,126.56760890000442,None,126.56760890000442,None,126.56760890000442,None,126.56760890000442,None,126.56760890000442,None,126.86156100000517,None,126.86156100000517,None,127.94142730000021,None,127.94142730000021,None,127.94142730000021,None,127.94142730000021,None,127.94142730000021,None,127.94142730000021,None,127.94142730000021,None,127.94142730000021,None,127.94142730000021,None,63,49,45,79,79,37,130.46551829999953,None,7.0,1.1340025000026799,130.46551829999953,None,130.46551829999953,None,130.46551829999953,None,130.46551829999953,None,None,None,131.62100560000545,None,,,,,,,107,M,22,2022_Nov_25_1515,RL,2021.2.3,59.865040251822066,
1,12,0,12,0,,,,,,,,,,,,,,,None,None,None,None,None,133.40208520000306,None,133.40208520000306,None,133.40208520000306,None,133.40208520000306,None,j,0.3423874000000069,133.40208520000306,None,133.40208520000306,None,133.78776630000357,None,133.78776630000357,None,133.78776630000357,None,133.78776630000357,None,133.78776630000357,None,133.78776630000357,None,134.08296780000092,None,134.08296780000092,None,135.92911420000019,None,135.92911420000019,None,135.92911420000019,None,135.92911420000019,None,135.92911420000019,None,135.92911420000019,None,135.92911420000019,None,135.92911420000019,None,135.92911420000019,None,59,37,44,71,71,52,138.4535579000003,None,7.0,8.106376399999135,138.4535579000003,None,138.4535579000003,None,138.4535579000003,None,138.4535579000003,None,None,None,146.5747255000024,None,,,,,,,107,M,22,2022_Nov_25_1515,RL,2021.2.3,59.865040251822066,
1,13,0,13,0,,,,,,,,,,,,,,,None,None,None,None,None,148.14387859999988,None,148.14387859999988,None,148.14387859999988,None,148.14387859999988,None,j,0.38137969999661436,148.14387859999988,None,148.14387859999988,None,148.55385790000582,None,148.55385790000582,None,148.55385790000582,None,148.55385790000582,None,148.55385790000582,None,148.55385790000582,None,148.84317320000264,150.0940718999991,148.84317320000264,150.0940718999991,150.13615250000294,None,150.13615250000294,None,150.13615250000294,None,150.13615250000294,None,150.13615250000294,None,150.13615250000294,None,150.13615250000294,None,150.13615250000294,None,150.13615250000294,None,57,39,45,70,70,69,152.6535481000028,None,5.0,1.7459075000006123,152.6535481000028,None,152.6535481000028,None,152.6535481000028,None,152.6535481000028,None,None,None,154.42063390000112,None,,,,,,,107,M,22,2022_Nov_25_1515,RL,2021.2.3,59.865040251822066,
1,14,0,14,0,,,,,,,,,,,,,,,None,None,None,None,None,156.13994660000026,None,156.13994660000026,None,156.13994660000026,None,156.13994660000026,None,j,0.28559929999755695,156.13994660000026,None,156.13994660000026,None,156.47037920000002,None,156.47037920000002,None,156.47037920000002,None,156.47037920000002,None,156.47037920000002,None,156.47037920000002,None,156.7654188000015,158.70019190000312,156.7654188000015,158.70019190000312,158.73280720000184,None,158.73280720000184,None,158.73280720000184,None,158.73280720000184,None,158.73280720000184,None,158.73280720000184,None,158.73280720000184,None,158.73280720000184,None,158.73280720000184,None,50,43,37,70,70,38,161.2493328000055,None,6.0,1.9886087999984738,161.2493328000055,None,161.2493328000055,None,161.2493328000055,None,161.2493328000055,None,None,None,163.25282410000364,None,,,,,,,107,M,22,2022_Nov_25_1515,RL,2021.2.3,59.865040251822066,
1,15,0,15,0,,,,,,,,,,,,,,,None,None,None,None,None,165.04023410000082,None,165.04023410000082,None,165.04023410000082,None,165.04023410000082,None,j,0.24562199999490986,165.04023410000082,None,165.04023410000082,None,165.3320096000025,None,165.3320096000025,None,165.3320096000025,None,165.3320096000025,None,165.3320096000025,None,165.3320096000025,None,165.62152420000348,166.57205819999945,165.62152420000348,166.57205819999945,166.60034900000028,None,166.60034900000028,None,166.60034900000028,None,166.60034900000028,None,166.60034900000028,None,166.60034900000028,None,166.60034900000028,None,166.60034900000028,None,166.60034900000028,None,52,53,43,71,71,50,169.1165914000012,None,6.0,0.9579613999958383,169.1165914000012,None,169.1165914000012,None,169.1165914000012,None,169.1165914000012,None,None,None,170.09269510000013,None,,,,,,,107,M,22,2022_Nov_25_1515,RL,2021.2.3,59.865040251822066,
1,16,0,16,0,,,,,,,,,,,,,,,None,None,None,None,None,171.60883230000036,None,171.60883230000036,None,171.60883230000036,None,171.60883230000036,None,j,0.2669116999968537,171.60883230000036,None,171.60883230000036,None,171.91424530000222,173.44376270000066,171.91424530000222,173.44376270000066,171.91424530000222,173.44376270000066,171.91424530000222,173.44376270000066,171.91424530000222,173.44376270000066,171.91424530000222,173.44376270000066,172.2189739000023,None,172.2189739000023,None,173.4755243000036,None,173.4755243000036,None,173.4755243000036,None,173.4755243000036,None,173.4755243000036,None,173.4755243000036,None,173.4755243000036,None,173.4755243000036,None,173.4755243000036,None,47,53,37,68,68,82,175.9879488000006,None,3.0,1.5940991999959806,175.9879488000006,None,175.9879488000006,None,175.9879488000006,None,175.9879488000006,None,None,None,177.6028268000009,None,,,,,,,107,M,22,2022_Nov_25_1515,RL,2021.2.3,59.865040251822066,
1,17,0,17,0,,,,,,,,,,,,,,,None,None,None,None,None,179.2306319000054,None,179.2306319000054,None,179.2306319000054,None,179.2306319000054,None,j,0.5353962000008323,179.2306319000054,None,179.2306319000054,None,179.81585030000133,None,179.81585030000133,None,179.81585030000133,None,179.81585030000133,None,179.81585030000133,None,179.81585030000133,None,180.11511579999933,None,180.11511579999933,None,181.6806757000013,None,181.6806757000013,None,181.6806757000013,None,181.6806757000013,None,181.6806757000013,None,181.6806757000013,None,181.6806757000013,None,181.6806757000013,None,181.6806757000013,None,57,41,44,60,60,77,184.19485500000155,None,3.0,1.725464600000123,184.19485500000155,None,184.19485500000155,None,184.19485500000155,None,184.19485500000155,None,None,None,185.93522120000125,None,,,,,,,107,M,22,2022_Nov_25_1515,RL,2021.2.3,59.865040251822066,
1,18,0,18,0,,,,,,,,,,,,,,,None,None,None,None,None,187.8867018000019,None,187.8867018000019,None,187.8867018000019,None,187.8867018000019,None,r,0.6292357999991509,187.8867018000019,None,187.8867018000019,None,188.55827169999975,None,188.55827169999975,None,188.55827169999975,None,188.55827169999975,None,188.55827169999975,None,188.55827169999975,None,188.85462499999994,None,188.85462499999994,None,189.90095629999996,None,189.90095629999996,None,189.90095629999996,None,189.90095629999996,None,189.90095629999996,None,189.90095629999996,None,189.90095629999996,None,189.90095629999996,None,189.90095629999996,None,50,33,37,59,50,73,192.42108500000177,None,3.0,1.4874200999984168,192.42108500000177,None,192.42108500000177,None,192.42108500000177,None,192.42108500000177,None,None,None,193.92851740000333,None,,,,,,,107,M,22,2022_Nov_25_1515,RL,2021.2.3,59.865040251822066,
1,19,0,19,0,,,,,,,,,,,,,,,None,None,None,None,None,195.8631983000014,None,195.8631983000014,None,195.8631983000014,None,195.8631983000014,None,f,0.5128946999975597,195.8631983000014,None,195.8631983000014,None,196.41606660000252,None,196.41606660000252,None,196.41606660000252,None,196.41606660000252,None,196.41606660000252,None,196.41606660000252,None,196.7097505000056,198.32738280000194,196.7097505000056,198.32738280000194,198.3546467000051,None,198.3546467000051,None,198.3546467000051,None,198.3546467000051,None,198.3546467000051,None,198.3546467000051,None,198.3546467000051,None,198.3546467000051,None,198.3546467000051,None,54,42,39,63,42,72,200.8717409000019,None,2.0,3.6760943999979645,200.8717409000019,None,200.8717409000019,None,200.8717409000019,None,200.8717409000019,None,None,None,204.56659850000142,None,,,,,,,107,M,22,2022_Nov_25_1515,RL,2021.2.3,59.865040251822066,
1,20,0,20,0,,,,,,,,,,,,,,,None,None,None,None,None,206.18304970000463,None,206.18304970000463,None,206.18304970000463,None,206.18304970000463,None,i,0.2830407000001287,206.18304970000463,None,206.18304970000463,None,206.5050659000044,None,206.5050659000044,None,206.5050659000044,None,206.5050659000044,None,206.5050659000044,None,206.5050659000044,None,206.8000447000013,207.80060790000425,206.8000447000013,207.80060790000425,207.8300623000032,None,207.8300623000032,None,207.8300623000032,None,207.8300623000032,None,207.8300623000032,None,207.8300623000032,None,207.8300623000032,None,207.8300623000032,None,207.8300623000032,None,51,42,31,64,31,53,210.3509916000039,None,2.0,2.5351732000053744,210.3509916000039,None,210.3509916000039,None,210.3509916000039,None,210.3509916000039,None,None,None,212.90388109999913,None,,,,,,,107,M,22,2022_Nov_25_1515,RL,2021.2.3,59.865040251822066,
1,21,0,21,0,,,,,,,,,,,,,,,None,None,None,None,None,214.50965980000183,None,214.50965980000183,None,214.50965980000183,None,214.50965980000183,None,r,0.32608389999950305,214.50965980000183,None,214.50965980000183,None,214.88436000000365,None,214.88436000000365,None,214.88436000000365,None,214.88436000000365,None,214.88436000000365,None,214.88436000000365,None,215.17248960000143,None,215.17248960000143,None,216.9439685000034,None,216.9439685000034,None,216.9439685000034,None,216.9439685000034,None,216.9439685000034,None,216.9439685000034,None,216.9439685000034,None,216.9439685000034,None,216.9439685000034,None,61,34,33,63,61,77,219.4770286999992,None,3.0,2.148811899998691,219.4770286999992,None,219.4770286999992,None,219.4770286999992,None,219.4770286999992,None,None,None,221.64857080000365,None,,,,,,,107,M,22,2022_Nov_25_1515,RL,2021.2.3,59.865040251822066,
1,22,0,22,0,,,,,,,,,,,,,,,None,None,None,None,None,223.44789420000598,None,223.44789420000598,None,223.44789420000598,None,223.44789420000598,None,r,0.27836399999796413,223.44789420000598,None,223.44789420000598,None,223.76382000000012,None,223.76382000000012,None,223.76382000000012,None,223.76382000000012,None,223.76382000000012,None,223.76382000000012,None,224.06214410000393,None,224.06214410000393,None,225.90049290000024,None,225.90049290000024,None,225.90049290000024,None,225.90049290000024,None,225.90049290000024,None,225.90049290000024,None,225.90049290000024,None,225.90049290000024,None,225.90049290000024,None,52,32,35,56,52,76,228.4324162000048,None,3.0,1.0648360999985016,228.4324162000048,None,228.4324162000048,None,228.4324162000048,None,228.4324162000048,None,None,None,229.51654000000417,None,,,,,,,107,M,22,2022_Nov_25_1515,RL,2021.2.3,59.865040251822066,
1,23,0,23,0,,,,,,,,,,,,,,,None,None,None,None,None,231.42059610000433,None,231.42059610000433,None,231.42059610000433,None,231.42059610000433,None,j,0.3257842000020901,231.42059610000433,None,231.42059610000433,None,231.790697299999,None,231.790697299999,None,231.790697299999,None,231.790697299999,None,231.790697299999,None,231.790697299999,None,232.06783970000106,233.7018728000039,232.06783970000106,233.7018728000039,233.74415679999947,None,233.74415679999947,None,233.74415679999947,None,233.74415679999947,None,233.74415679999947,None,233.74415679999947,None,233.74415679999947,None,233.74415679999947,None,233.74415679999947,None,49,24,28,48,48,42,236.26679140000488,None,5.0,1.4561451999979909,236.26679140000488,None,236.26679140000488,None,236.26679140000488,None,236.26679140000488,None,None,None,237.7399781999993,None,,,,,,,107,M,22,2022_Nov_25_1515,RL,2021.2.3,59.865040251822066,
1,24,0,24,0,,,,,,,,,,,,,,,None,None,None,None,None,239.4318121000033,None,239.4318121000033,None,239.4318121000033,None,239.4318121000033,None,j,0.31451089999609394,239.4318121000033,None,239.4318121000033,None,239.79657800000132,None,239.79657800000132,None,239.79657800000132,None,239.79657800000132,None,239.79657800000132,None,239.79657800000132,None,240.08971350000502,241.64087760000257,240.08971350000502,241.64087760000257,241.66935370000283,None,241.66935370000283,None,241.66935370000283,None,241.66935370000283,None,241.66935370000283,None,241.66935370000283,None,241.66935370000283,None,241.66935370000283,None,241.66935370000283,None,50,21,33,48,48,75,244.18960530000186,None,2.0,1.3900176000024658,244.18960530000186,None,244.18960530000186,None,244.18960530000186,None,244.18960530000186,None,None,None,245.6015011000054,None,,,,,,,107,M,22,2022_Nov_25_1515,RL,2021.2.3,59.865040251822066,
1,25,0,25,0,,,,,,,,,,,,,,,None,None,None,None,None,247.1834200000012,None,247.1834200000012,None,247.1834200000012,None,247.1834200000012,None,r,0.512225500002387,247.1834200000012,None,247.1834200000012,None,247.726175900003,None,247.726175900003,None,247.726175900003,None,247.726175900003,None,247.726175900003,None,247.726175900003,None,248.01190810000116,249.49618100000225,248.01190810000116,249.49618100000225,249.53267400000186,None,249.53267400000186,None,249.53267400000186,None,249.53267400000186,None,249.53267400000186,None,249.53267400000186,None,249.53267400000186,None,249.53267400000186,None,249.53267400000186,None,46,30,36,41,46,75,252.05979350000416,None,2.0,0.9049096999951871,252.05979350000416,None,252.05979350000416,None,252.05979350000416,None,252.05979350000416,None,None,None,252.9816906000051,None,,,,,,,107,M,22,2022_Nov_25_1515,RL,2021.2.3,59.865040251822066,
1,26,0,26,0,,,,,,,,,,,,,,,None,None,None,None,None,254.98475650000182,None,254.98475650000182,None,254.98475650000182,None,254.98475650000182,None,j,0.35175479999452364,254.98475650000182,None,254.98475650000182,None,255.37770000000455,None,255.37770000000455,None,255.37770000000455,None,255.37770000000455,None,255.37770000000455,None,255.37770000000455,None,255.66725920000317,256.901205400005,255.66725920000317,256.901205400005,256.9309815000015,None,256.9309815000015,None,256.9309815000015,None,256.9309815000015,None,256.9309815000015,None,256.9309815000015,None,256.9309815000015,None,256.9309815000015,None,256.9309815000015,None,49,28,30,48,48,71,259.44823560000077,None,2.0,0.7588535000031698,259.44823560000077,None,259.44823560000077,None,259.44823560000077,None,259.44823560000077,None,None,None,260.2294708000045,None,,,,,,,107,M,22,2022_Nov_25_1515,RL,2021.2.3,59.865040251822066,
1,27,0,27,0,,,,,,,,,,,,,,,None,None,None,None,None,262.1713963000002,None,262.1713963000002,None,262.1713963000002,None,262.1713963000002,None,j,0.7249800999998115,262.1713963000002,None,262.1713963000002,None,262.94520990000456,None,262.94520990000456,None,262.94520990000456,None,262.94520990000456,None,262.94520990000456,None,262.94520990000456,None,263.2392921999999,None,263.2392921999999,None,265.21712090000074,None,265.21712090000074,None,265.21712090000074,None,265.21712090000074,None,265.21712090000074,None,265.21712090000074,None,265.21712090000074,None,265.21712090000074,None,265.21712090000074,None,50,25,37,41,41,77,267.7206479000015,None,1.0,1.0415895999976783,267.7206479000015,None,267.7206479000015,None,267.7206479000015,None,267.7206479000015,None,None,None,268.7761144000033,None,,,,,,,107,M,22,2022_Nov_25_1515,RL,2021.2.3,59.865040251822066,
1,28,0,28,0,,,,,,,,,,,,,,,None,None,None,None,None,270.3128560000041,None,270.3128560000041,None,270.3128560000041,None,270.3128560000041,None,r,0.7437140999973053,270.3128560000041,None,270.3128560000041,None,271.10084420000203,None,271.10084420000203,None,271.10084420000203,None,271.10084420000203,None,271.10084420000203,None,271.10084420000203,None,271.394991000001,None,271.394991000001,None,273.41042160000507,None,273.41042160000507,None,273.41042160000507,None,273.41042160000507,None,273.41042160000507,None,273.41042160000507,None,273.41042160000507,None,273.41042160000507,None,273.41042160000507,None,49,27,30,42,49,34,275.92886590000126,None,5.0,1.106364699997357,275.92886590000126,None,275.92886590000126,None,275.92886590000126,None,275.92886590000126,None,None,None,277.0485179000025,None,,,,,,,107,M,22,2022_Nov_25_1515,RL,2021.2.3,59.865040251822066,
1,29,0,29,0,,,,,,,,,,,,,,,None,None,None,None,None,278.8518438000028,None,278.8518438000028,None,278.8518438000028,None,278.8518438000028,None,r,0.2540602000008221,278.8518438000028,None,278.8518438000028,None,279.147157899999,None,279.147157899999,None,279.147157899999,None,279.147157899999,None,279.147157899999,None,279.147157899999,None,279.4336844999998,281.1681319999989,279.4336844999998,281.1681319999989,281.2000229000041,None,281.2000229000041,None,281.2000229000041,None,281.2000229000041,None,281.2000229000041,None,281.2000229000041,None,281.2000229000041,None,281.2000229000041,None,281.2000229000041,None,47,31,31,47,47,66,283.72247430000425,None,3.0,1.5298843999989913,283.72247430000425,None,283.72247430000425,None,283.72247430000425,None,283.72247430000425,None,None,None,285.2719158000036,None,,,,,,,107,M,22,2022_Nov_25_1515,RL,2021.2.3,59.865040251822066,
1,30,0,30,0,,,,,,,,,,,,,,,None,None,None,None,None,287.17937510000047,None,287.17937510000047,None,287.17937510000047,None,287.17937510000047,None,i,0.28726170000300044,287.17937510000047,None,287.17937510000047,None,287.5145568000007,None,287.5145568000007,None,287.5145568000007,None,287.5145568000007,None,287.5145568000007,None,287.5145568000007,None,287.8060007000022,288.75673950000055,287.8060007000022,288.75673950000055,288.7915944000051,None,288.7915944000051,None,288.7915944000051,None,288.7915944000051,None,288.7915944000051,None,288.7915944000051,None,288.7915944000051,None,288.7915944000051,None,288.7915944000051,None,47,22,36,39,36,65,291.3056699000008,None,1.0,1.7870293999949354,291.3056699000008,None,291.3056699000008,None,291.3056699000008,None,291.3056699000008,None,None,None,293.1138878000056,None,,,,,,,107,M,22,2022_Nov_25_1515,RL,2021.2.3,59.865040251822066,
1,31,0,31,0,,,,,,,,,,,,,,,None,None,None,None,None,294.62733030000527,None,294.62733030000527,None,294.62733030000527,None,294.62733030000527,None,r,0.39933400000154506,294.62733030000527,None,294.62733030000527,None,295.0727820000029,None,295.0727820000029,None,295.0727820000029,None,295.0727820000029,None,295.0727820000029,None,295.0727820000029,None,295.3616431000046,None,295.3616431000046,None,296.3607034000015,None,296.3607034000015,None,296.3607034000015,None,296.3607034000015,None,296.3607034000015,None,296.3607034000015,None,296.3607034000015,None,296.3607034000015,None,296.3607034000015,None,51,25,30,49,51,24,298.87907370000175,None,6.0,1.400943799999368,298.87907370000175,None,298.87907370000175,None,298.87907370000175,None,298.87907370000175,None,None,None,300.29832010000246,None,,,,,,,107,M,22,2022_Nov_25_1515,RL,2021.2.3,59.865040251822066,
1,32,0,32,0,,,,,,,,,,,,,,,None,None,None,None,None,302.1193908999994,None,302.1193908999994,None,302.1193908999994,None,302.1193908999994,None,r,0.2680166999998619,302.1193908999994,None,302.1193908999994,None,302.44989570000325,None,302.44989570000325,None,302.44989570000325,None,302.44989570000325,None,302.44989570000325,None,302.44989570000325,None,302.7500106000007,None,302.7500106000007,None,304.20646750000014,None,304.20646750000014,None,304.20646750000014,None,304.20646750000014,None,304.20646750000014,None,304.20646750000014,None,304.20646750000014,None,304.20646750000014,None,304.20646750000014,None,49,24,31,50,49,55,306.73804160000145,None,4.0,0.9162607000034768,306.73804160000145,None,306.73804160000145,None,306.73804160000145,None,306.73804160000145,None,None,None,307.67254479999974,None,,,,,,,107,M,22,2022_Nov_25_1515,RL,2021.2.3,59.865040251822066,
1,33,0,33,0,,,,,,,,,,,,,,,None,None,None,None,None,309.573570200002,None,309.573570200002,None,309.573570200002,None,309.573570200002,None,r,0.25426059999881545,309.573570200002,None,309.573570200002,None,309.88443720000214,None,309.88443720000214,None,309.88443720000214,None,309.88443720000214,None,309.88443720000214,None,309.88443720000214,None,310.1717998000022,311.1389424000008,310.1717998000022,311.1389424000008,311.18235730000015,None,311.18235730000015,None,311.18235730000015,None,311.18235730000015,None,311.18235730000015,None,311.18235730000015,None,311.18235730000015,None,311.18235730000015,None,311.18235730000015,None,45,35,33,46,45,61,313.7223551000061,None,3.0,0.9653577999997651,313.7223551000061,None,313.7223551000061,None,313.7223551000061,None,313.7223551000061,None,None,None,314.6913060000006,None,,,,,,,107,M,22,2022_Nov_25_1515,RL,2021.2.3,59.865040251822066,
1,34,0,34,0,,,,,,,,,,,,,,,None,None,None,None,None,316.64461930000107,None,316.64461930000107,None,316.64461930000107,None,316.64461930000107,None,r,0.3129895999954897,316.64461930000107,None,316.64461930000107,None,317.00497059999907,None,317.00497059999907,None,317.00497059999907,None,317.00497059999907,None,317.00497059999907,None,317.00497059999907,None,317.29308350000065,None,317.29308350000065,None,318.92659860000276,None,318.92659860000276,None,318.92659860000276,None,318.92659860000276,None,318.92659860000276,None,318.92659860000276,None,318.92659860000276,None,318.92659860000276,None,318.92659860000276,None,48,32,33,48,48,62,321.44429669999954,None,3.0,0.6338031999985105,321.44429669999954,None,321.44429669999954,None,321.44429669999954,None,321.44429669999954,None,None,None,322.10159150000254,None,,,,,,,107,M,22,2022_Nov_25_1515,RL,2021.2.3,59.865040251822066,
1,35,0,35,0,,,,,,,,,,,,,,,None,None,None,None,None,324.0369486999989,None,324.0369486999989,None,324.0369486999989,None,324.0369486999989,None,j,0.3106153000044287,324.0369486999989,None,324.0369486999989,None,324.38869200000045,None,324.38869200000045,None,324.38869200000045,None,324.38869200000045,None,324.38869200000045,None,324.38869200000045,None,324.66540460000397,326.5328236999994,324.66540460000397,326.5328236999994,326.57919350000157,None,326.57919350000157,None,326.57919350000157,None,326.57919350000157,None,326.57919350000157,None,326.57919350000157,None,326.57919350000157,None,326.57919350000157,None,326.57919350000157,None,51,40,26,46,46,37,329.09458520000044,None,5.0,2.0270732999997563,329.09458520000044,None,329.09458520000044,None,329.09458520000044,None,329.09458520000044,None,None,None,331.14043340000353,None,,,,,,,107,M,22,2022_Nov_25_1515,RL,2021.2.3,59.865040251822066,
1,36,0,36,0,,,,,,,,,,,,,,,None,None,None,None,None,332.8721796000027,None,332.8721796000027,None,332.8721796000027,None,332.8721796000027,None,r,0.3056998000029125,332.8721796000027,None,332.8721796000027,None,333.2363910000058,None,333.2363910000058,None,333.2363910000058,None,333.2363910000058,None,333.2363910000058,None,333.2363910000058,None,333.52134540000407,335.0722925000009,333.52134540000407,335.0722925000009,335.10310120000213,None,335.10310120000213,None,335.10310120000213,None,335.10310120000213,None,335.10310120000213,None,335.10310120000213,None,335.10310120000213,None,335.10310120000213,None,335.10310120000213,None,35,38,27,62,35,40,337.6118964000052,None,3.0,2.3953923000008217,337.6118964000052,None,337.6118964000052,None,337.6118964000052,None,337.6118964000052,None,None,None,340.02880050000385,None,,,,,,,107,M,22,2022_Nov_25_1515,RL,2021.2.3,59.865040251822066,
1,37,0,37,0,,,,,,,,,,,,,,,None,None,None,None,None,341.77940630000376,None,341.77940630000376,None,341.77940630000376,None,341.77940630000376,None,j,0.2587353999988409,341.77940630000376,None,341.77940630000376,None,342.0845713000017,None,342.0845713000017,None,342.0845713000017,None,342.0845713000017,None,342.0845713000017,None,342.0845713000017,None,342.3774678000045,None,342.3774678000045,None,344.14725980000367,None,344.14725980000367,None,344.14725980000367,None,344.14725980000367,None,344.14725980000367,None,344.14725980000367,None,344.14725980000367,None,344.14725980000367,None,344.14725980000367,None,47,38,21,57,57,53,346.66510080000444,None,5.0,1.6498532999976305,346.66510080000444,None,346.66510080000444,None,346.66510080000444,None,346.66510080000444,None,None,None,348.3328786999991,None,,,,,,,107,M,22,2022_Nov_25_1515,RL,2021.2.3,59.865040251822066,
1,38,0,38,0,,,,,,,,,,,,,,,None,None,None,None,None,350.10237269999925,None,350.10237269999925,None,350.10237269999925,None,350.10237269999925,None,r,0.2757283999962965,350.10237269999925,None,350.10237269999925,None,350.42156270000123,None,350.42156270000123,None,350.42156270000123,None,350.42156270000123,None,350.42156270000123,None,350.42156270000123,None,350.71659470000304,None,350.71659470000304,None,352.51439740000205,None,352.51439740000205,None,352.51439740000205,None,352.51439740000205,None,352.51439740000205,None,352.51439740000205,None,352.51439740000205,None,352.51439740000205,None,352.51439740000205,None,51,45,18,49,51,38,355.0338015000016,None,6.0,1.1725003000028664,355.0338015000016,None,355.0338015000016,None,355.0338015000016,None,355.0338015000016,None,None,None,356.22513210000034,None,,,,,,,107,M,22,2022_Nov_25_1515,RL,2021.2.3,59.865040251822066,
1,39,0,39,0,,,,,,,,,,,,,,,None,None,None,None,None,358.07316880000144,None,358.07316880000144,None,358.07316880000144,None,358.07316880000144,None,r,0.6947287000002689,358.07316880000144,None,358.07316880000144,None,358.8047816000035,None,358.8047816000035,None,358.8047816000035,None,358.8047816000035,None,358.8047816000035,None,358.8047816000035,None,359.10565450000286,None,359.10565450000286,None,360.7002573999998,None,360.7002573999998,None,360.7002573999998,None,360.7002573999998,None,360.7002573999998,None,360.7002573999998,None,360.7002573999998,None,360.7002573999998,None,360.7002573999998,None,44,36,17,47,44,39,363.2221850999995,None,5.0,1.0737499999959255,363.2221850999995,None,363.2221850999995,None,363.2221850999995,None,363.2221850999995,None,None,None,364.3088680000001,None,,,,,,,107,M,22,2022_Nov_25_1515,RL,2021.2.3,59.865040251822066,
1,40,0,40,0,,,,,,,,,,,,,,,None,None,None,None,None,365.99543200000335,None,365.99543200000335,None,365.99543200000335,None,365.99543200000335,None,j,0.38242840000020806,365.99543200000335,None,365.99543200000335,None,366.4087256000057,None,366.4087256000057,None,366.4087256000057,None,366.4087256000057,None,366.4087256000057,None,366.4087256000057,None,366.6943648000015,367.9781485000058,366.6943648000015,367.9781485000058,368.0048223000049,None,368.0048223000049,None,368.0048223000049,None,368.0048223000049,None,368.0048223000049,None,368.0048223000049,None,368.0048223000049,None,368.0048223000049,None,368.0048223000049,None,45,37,23,52,52,71,370.52872750000097,None,3.0,2.154758700002276,370.52872750000097,None,370.52872750000097,None,370.52872750000097,None,370.52872750000097,None,None,None,372.698103900002,None,,,,,,,107,M,22,2022_Nov_25_1515,RL,2021.2.3,59.865040251822066,
1,41,0,41,0,,,,,,,,,,,,,,,None,None,None,None,None,374.6197338999991,None,374.6197338999991,None,374.6197338999991,None,374.6197338999991,None,r,0.29767680000077235,374.6197338999991,None,374.6197338999991,None,374.95077010000387,None,374.95077010000387,None,374.95077010000387,None,374.95077010000387,None,374.95077010000387,None,374.95077010000387,None,375.23488100000395,376.71761060000426,375.23488100000395,376.71761060000426,376.73997529999906,None,376.73997529999906,None,376.73997529999906,None,376.73997529999906,None,376.73997529999906,None,376.73997529999906,None,376.73997529999906,None,376.73997529999906,None,376.73997529999906,None,42,40,17,48,42,64,379.26346990000457,None,2.0,1.1906525000013062,379.26346990000457,None,379.26346990000457,None,379.26346990000457,None,379.26346990000457,None,None,None,380.47033190000366,None,,,,,,,107,M,22,2022_Nov_25_1515,RL,2021.2.3,59.865040251822066,
1,42,0,42,0,,,,,,,,,,,,,,,None,None,None,None,None,382.19049160000577,None,382.19049160000577,None,382.19049160000577,None,382.19049160000577,None,r,0.2977463999995962,382.19049160000577,None,382.19049160000577,None,382.5270950000049,None,382.5270950000049,None,382.5270950000049,None,382.5270950000049,None,382.5270950000049,None,382.5270950000049,None,382.8223691000021,None,382.8223691000021,None,383.82775020000554,None,383.82775020000554,None,383.82775020000554,None,383.82775020000554,None,383.82775020000554,None,383.82775020000554,None,383.82775020000554,None,383.82775020000554,None,383.82775020000554,None,38,39,17,53,38,64,386.34631570000056,None,1.0,0.9519699000011315,386.34631570000056,None,386.34631570000056,None,386.34631570000056,None,386.34631570000056,None,None,None,387.3087340999991,None,,,,,,,107,M,22,2022_Nov_25_1515,RL,2021.2.3,59.865040251822066,
1,43,0,43,0,,,,,,,,,,,,,,,None,None,None,None,None,389.2097089000017,None,389.2097089000017,None,389.2097089000017,None,389.2097089000017,None,j,0.26844010000058915,389.2097089000017,None,389.2097089000017,None,389.5381675000026,None,389.5381675000026,None,389.5381675000026,None,389.5381675000026,None,389.5381675000026,None,389.5381675000026,None,389.8270801000035,391.010895899999,389.8270801000035,391.010895899999,391.0453759000011,None,391.0453759000011,None,391.0453759000011,None,391.0453759000011,None,391.0453759000011,None,391.0453759000011,None,391.0453759000011,None,391.0453759000011,None,391.0453759000011,None,44,42,23,58,58,38,393.5631758000018,None,6.0,1.001339200003713,393.5631758000018,None,393.5631758000018,None,393.5631758000018,None,393.5631758000018,None,None,None,394.5800518000033,None,,,,,,,107,M,22,2022_Nov_25_1515,RL,2021.2.3,59.865040251822066,
1,44,0,44,0,,,,,,,,,,,,,,,None,None,None,None,None,396.47218710000016,None,396.47218710000016,None,396.47218710000016,None,396.47218710000016,None,r,0.2558414000013727,396.47218710000016,None,396.47218710000016,None,396.77791160000197,None,396.77791160000197,None,396.77791160000197,None,396.77791160000197,None,396.77791160000197,None,396.77791160000197,None,397.06680459999916,398.09944830000313,397.06680459999916,398.09944830000313,398.1331006000037,None,398.1331006000037,None,398.1331006000037,None,398.1331006000037,None,398.1331006000037,None,398.1331006000037,None,398.1331006000037,None,398.1331006000037,None,398.1331006000037,None,35,36,18,56,35,59,400.6490091000014,None,2.0,0.9186735999974189,400.6490091000014,None,400.6490091000014,None,400.6490091000014,None,400.6490091000014,None,None,None,401.5849623000031,None,,,,,,,107,M,22,2022_Nov_25_1515,RL,2021.2.3,59.865040251822066,
1,45,0,45,0,,,,,,,,,,,,,,,None,None,None,None,None,403.1407560000007,None,403.1407560000007,None,403.1407560000007,None,403.1407560000007,None,j,0.2474787999963155,403.1407560000007,None,403.1407560000007,None,403.4349227999992,None,403.4349227999992,None,403.4349227999992,None,403.4349227999992,None,403.4349227999992,None,403.4349227999992,None,403.7199158000003,404.8205670000025,403.7199158000003,404.8205670000025,404.8527813000037,None,404.8527813000037,None,404.8527813000037,None,404.8527813000037,None,404.8527813000037,None,404.8527813000037,None,404.8527813000037,None,404.8527813000037,None,404.8527813000037,None,36,26,20,54,54,40,407.37620260000404,None,5.0,0.998407800005225,407.37620260000404,None,407.37620260000404,None,407.37620260000404,None,407.37620260000404,None,None,None,408.3985724000013,None,,,,,,,107,M,22,2022_Nov_25_1515,RL,2021.2.3,59.865040251822066,
1,46,0,46,0,,,,,,,,,,,,,,,None,None,None,None,None,410.35835360000056,None,410.35835360000056,None,410.35835360000056,None,410.35835360000056,None,j,0.26003149999451125,410.35835360000056,None,410.35835360000056,None,410.66235170000436,None,410.66235170000436,None,410.66235170000436,None,410.66235170000436,None,410.66235170000436,None,410.66235170000436,None,410.95821630000137,None,410.95821630000137,None,411.97937960000127,None,411.97937960000127,None,411.97937960000127,None,411.97937960000127,None,411.97937960000127,None,411.97937960000127,None,411.97937960000127,None,411.97937960000127,None,411.97937960000127,None,39,22,22,47,47,28,414.5021188000028,None,6.0,0.9820894000004046,414.5021188000028,None,414.5021188000028,None,414.5021188000028,None,414.5021188000028,None,None,None,415.4944908000034,None,,,,,,,107,M,22,2022_Nov_25_1515,RL,2021.2.3,59.865040251822066,
1,47,0,47,0,,,,,,,,,,,,,,,None,None,None,None,None,417.14562950000254,None,417.14562950000254,None,417.14562950000254,None,417.14562950000254,None,j,0.27271530000143684,417.14562950000254,None,417.14562950000254,None,417.47960969999986,None,417.47960969999986,None,417.47960969999986,None,417.47960969999986,None,417.47960969999986,None,417.47960969999986,None,417.7797512000034,None,417.7797512000034,None,419.64883920000284,None,419.64883920000284,None,419.64883920000284,None,419.64883920000284,None,419.64883920000284,None,419.64883920000284,None,419.64883920000284,None,419.64883920000284,None,419.64883920000284,None,35,30,16,52,52,65,422.1627754000001,None,3.0,1.4194731000025058,422.1627754000001,None,422.1627754000001,None,422.1627754000001,None,422.1627754000001,None,None,None,423.5999245000057,None,,,,,,,107,M,22,2022_Nov_25_1515,RL,2021.2.3,59.865040251822066,
1,48,0,48,0,,,,,,,,,,,,,,,None,None,None,None,None,425.44874569999956,None,425.44874569999956,None,425.44874569999956,None,425.44874569999956,None,r,0.2396011000018916,425.44874569999956,None,425.44874569999956,None,425.7494919000019,None,425.7494919000019,None,425.7494919000019,None,425.7494919000019,None,425.7494919000019,None,425.7494919000019,None,426.03531569999905,427.36938360000204,426.03531569999905,427.36938360000204,427.40240820000326,None,427.40240820000326,None,427.40240820000326,None,427.40240820000326,None,427.40240820000326,None,427.40240820000326,None,427.40240820000326,None,427.40240820000326,None,427.40240820000326,None,41,29,30,57,41,62,429.9232762000029,None,2.0,1.4011699999973644,429.9232762000029,None,429.9232762000029,None,429.9232762000029,None,429.9232762000029,None,None,None,431.3386809000003,None,,,,,,,107,M,22,2022_Nov_25_1515,RL,2021.2.3,59.865040251822066,
1,49,0,49,0,,,,,,,,,,,,,,,None,None,None,None,None,433.2455734000032,None,433.2455734000032,None,433.2455734000032,None,433.2455734000032,None,j,0.2429063000017777,433.2455734000032,None,433.2455734000032,None,433.53729770000064,None,433.53729770000064,None,433.53729770000064,None,433.53729770000064,None,433.53729770000064,None,433.53729770000064,None,433.8251186000052,435.0248933000039,433.8251186000052,435.0248933000039,435.05847899999935,None,435.05847899999935,None,435.05847899999935,None,435.05847899999935,None,435.05847899999935,None,435.05847899999935,None,435.05847899999935,None,435.05847899999935,None,435.05847899999935,None,34,23,30,62,62,25,437.58062240000436,None,7.0,1.3834697999991477,437.58062240000436,None,437.58062240000436,None,437.58062240000436,None,437.58062240000436,None,None,None,438.9774624000056,None,,,,,,,107,M,22,2022_Nov_25_1515,RL,2021.2.3,59.865040251822066,
1,50,0,50,0,,,,,,,,,,,,,,,None,None,None,None,None,440.71566860000166,None,440.71566860000166,None,440.71566860000166,None,440.71566860000166,None,j,0.3127078000034089,440.71566860000166,None,440.71566860000166,None,441.06723110000166,None,441.06723110000166,None,441.06723110000166,None,441.06723110000166,None,441.06723110000166,None,441.06723110000166,None,441.3628919000039,None,441.3628919000039,None,442.59284100000514,None,442.59284100000514,None,442.59284100000514,None,442.59284100000514,None,442.59284100000514,None,442.59284100000514,None,442.59284100000514,None,442.59284100000514,None,442.59284100000514,None,40,22,25,57,57,70,445.1138762000046,None,3.0,1.2832726999986335,445.1138762000046,None,445.1138762000046,None,445.1138762000046,None,445.1138762000046,None,None,None,446.41576270000223,None,,,,,,,107,M,22,2022_Nov_25_1515,RL,2021.2.3,59.865040251822066,
1,51,0,51,0,,,,,,,,,,,,,,,None,None,None,None,None,448.0338191000046,None,448.0338191000046,None,448.0338191000046,None,448.0338191000046,None,j,0.1649567999993451,448.0338191000046,None,448.0338191000046,None,448.2433781,None,448.2433781,None,448.2433781,None,448.2433781,None,448.2433781,None,448.2433781,None,448.5342707000018,450.1022280000034,448.5342707000018,450.1022280000034,450.1351261000018,None,450.1351261000018,None,450.1351261000018,None,450.1351261000018,None,450.1351261000018,None,450.1351261000018,None,450.1351261000018,None,450.1351261000018,None,450.1351261000018,None,35,22,29,53,53,44,452.66110070000286,None,5.0,1.2997548999992432,452.66110070000286,None,452.66110070000286,None,452.66110070000286,None,452.66110070000286,None,None,None,453.9712304000059,None,,,,,,,107,M,22,2022_Nov_25_1515,RL,2021.2.3,59.865040251822066,
1,52,0,52,0,,,,,,,,,,,,,,,None,None,None,None,None,455.6922746000055,None,455.6922746000055,None,455.6922746000055,None,455.6922746000055,None,j,0.33569169999827864,455.6922746000055,None,455.6922746000055,None,456.07791700000234,None,456.07791700000234,None,456.07791700000234,None,456.07791700000234,None,456.07791700000234,None,456.07791700000234,None,456.3730534999995,457.45704160000605,456.3730534999995,457.45704160000605,457.48797910000576,None,457.48797910000576,None,457.48797910000576,None,457.48797910000576,None,457.48797910000576,None,457.48797910000576,None,457.48797910000576,None,457.48797910000576,None,457.48797910000576,None,44,26,31,45,45,60,460.0040988000037,None,3.0,1.6534342000013567,460.0040988000037,None,460.0040988000037,None,460.0040988000037,None,460.0040988000037,None,None,None,461.68121729999984,None,,,,,,,107,M,22,2022_Nov_25_1515,RL,2021.2.3,59.865040251822066,
1,53,0,53,0,,,,,,,,,,,,,,,None,None,None,None,None,463.6316829999996,None,463.6316829999996,None,463.6316829999996,None,463.6316829999996,None,j,0.26771480000024894,463.6316829999996,None,463.6316829999996,None,463.9540163999991,None,463.9540163999991,None,463.9540163999991,None,463.9540163999991,None,463.9540163999991,None,463.9540163999991,None,464.24533820000215,None,464.24533820000215,None,465.7273678999991,None,465.7273678999991,None,465.7273678999991,None,465.7273678999991,None,465.7273678999991,None,465.7273678999991,None,465.7273678999991,None,465.7273678999991,None,465.7273678999991,None,32,32,26,51,51,35,468.238529000002,None,5.0,1.8467844000042533,468.238529000002,None,468.238529000002,None,468.238529000002,None,468.238529000002,None,None,None,470.0990032000045,None,,,,,,,107,M,22,2022_Nov_25_1515,RL,2021.2.3,59.865040251822066,
1,54,0,54,0,,,,,,,,,,,,,,,None,None,None,None,None,472.08646579999913,None,472.08646579999913,None,472.08646579999913,None,472.08646579999913,None,i,0.2528537999969558,472.08646579999913,None,472.08646579999913,None,472.38887590000377,None,472.38887590000377,None,472.38887590000377,None,472.38887590000377,None,472.38887590000377,None,472.38887590000377,None,472.68435930000123,None,472.68435930000123,None,474.0475634000031,None,474.0475634000031,None,474.0475634000031,None,474.0475634000031,None,474.0475634000031,None,474.0475634000031,None,474.0475634000031,None,474.0475634000031,None,474.0475634000031,None,39,22,34,57,34,73,476.5622829000058,None,1.0,1.0621142000018153,476.5622829000058,None,476.5622829000058,None,476.5622829000058,None,476.5622829000058,None,None,None,477.6386846000023,None,,,,,,,107,M,22,2022_Nov_25_1515,RL,2021.2.3,59.865040251822066,
1,55,0,55,0,,,,,,,,,,,,,,,None,None,None,None,None,479.1731407000043,None,479.1731407000043,None,479.1731407000043,None,479.1731407000043,None,j,0.26691459999710787,479.1731407000043,None,479.1731407000043,None,479.48910660000547,None,479.48910660000547,None,479.48910660000547,None,479.48910660000547,None,479.48910660000547,None,479.48910660000547,None,479.7725821000058,481.0400630000004,479.7725821000058,481.0400630000004,481.06996100000106,None,481.06996100000106,None,481.06996100000106,None,481.06996100000106,None,481.06996100000106,None,481.06996100000106,None,481.06996100000106,None,481.06996100000106,None,481.06996100000106,None,38,26,35,49,49,74,483.5857029000035,None,1.0,1.0415375000011409,483.5857029000035,None,483.5857029000035,None,483.5857029000035,None,483.5857029000035,None,None,None,484.64246920000005,None,,,,,,,107,M,22,2022_Nov_25_1515,RL,2021.2.3,59.865040251822066,
1,56,0,56,0,,,,,,,,,,,,,,,None,None,None,None,None,486.2983912999989,None,486.2983912999989,None,486.2983912999989,None,486.2983912999989,None,f,0.22071460000006482,486.2983912999989,None,486.2983912999989,None,486.5607842000027,None,486.5607842000027,None,486.5607842000027,None,486.5607842000027,None,486.5607842000027,None,486.5607842000027,None,486.86111350000283,None,486.86111350000283,None,488.7172858000049,None,488.7172858000049,None,488.7172858000049,None,488.7172858000049,None,488.7172858000049,None,488.7172858000049,None,488.7172858000049,None,488.7172858000049,None,488.7172858000049,None,35,34,29,47,34,69,491.24455820000003,None,1.0,0.5702109999983804,491.24455820000003,None,491.24455820000003,None,491.24455820000003,None,491.24455820000003,None,None,None,491.83115060000273,None,,,,,,,107,M,22,2022_Nov_25_1515,RL,2021.2.3,59.865040251822066,
1,57,0,57,0,,,,,,,,,,,,,,,None,None,None,None,None,493.8013185000018,None,493.8013185000018,None,493.8013185000018,None,493.8013185000018,None,j,0.28846149999299087,493.8013185000018,None,493.8013185000018,None,494.14284630000475,None,494.14284630000475,None,494.14284630000475,None,494.14284630000475,None,494.14284630000475,None,494.14284630000475,None,494.43250439999974,None,494.43250439999974,None,495.58944780000456,None,495.58944780000456,None,495.58944780000456,None,495.58944780000456,None,495.58944780000456,None,495.58944780000456,None,495.58944780000456,None,495.58944780000456,None,495.58944780000456,None,44,31,33,53,53,77,498.11402980000275,None,3.0,0.9752000999942538,498.11402980000275,None,498.11402980000275,None,498.11402980000275,None,498.11402980000275,None,None,None,499.11081510000076,None,,,,,,,107,M,22,2022_Nov_25_1515,RL,2021.2.3,59.865040251822066,
1,58,0,58,0,,,,,,,,,,,,,,,None,None,None,None,None,501.03848590000416,None,501.03848590000416,None,501.03848590000416,None,501.03848590000416,None,r,0.2509711000020616,501.03848590000416,None,501.03848590000416,None,501.35533679999935,None,501.35533679999935,None,501.35533679999935,None,501.35533679999935,None,501.35533679999935,None,501.35533679999935,None,501.6377505000055,503.62227800000255,501.6377505000055,503.62227800000255,503.6463784000007,None,503.6463784000007,None,503.6463784000007,None,503.6463784000007,None,503.6463784000007,None,503.6463784000007,None,503.6463784000007,None,503.6463784000007,None,503.6463784000007,None,38,35,30,46,38,69,506.1639706999995,None,1.0,0.859007200000633,506.1639706999995,None,506.1639706999995,None,506.1639706999995,None,506.1639706999995,None,None,None,507.0515990000058,None,,,,,,,107,M,22,2022_Nov_25_1515,RL,2021.2.3,59.865040251822066,
1,59,0,59,0,,,,,,,,,,,,,,,None,None,None,None,None,509.01296189999994,None,509.01296189999994,None,509.01296189999994,None,509.01296189999994,None,j,0.22728729999653297,509.01296189999994,None,509.01296189999994,None,509.28161309999996,None,509.28161309999996,None,509.28161309999996,None,509.28161309999996,None,509.28161309999996,None,509.28161309999996,None,509.57672319999983,510.7776634000038,509.57672319999983,510.7776634000038,510.79943320000166,None,510.79943320000166,None,510.79943320000166,None,510.79943320000166,None,510.79943320000166,None,510.79943320000166,None,510.79943320000166,None,510.79943320000166,None,510.79943320000166,None,42,32,28,42,42,72,513.3171619000059,None,3.0,0.8303326000022935,513.3171619000059,None,513.3171619000059,None,513.3171619000059,None,513.3171619000059,None,None,None,514.169596300002,None,,,,,,,107,M,22,2022_Nov_25_1515,RL,2021.2.3,59.865040251822066,
1,60,0,60,0,,,,,,,,,,,,,,,None,None,None,None,None,515.8692365000024,None,515.8692365000024,None,515.8692365000024,None,515.8692365000024,None,j,0.24039859999902546,515.8692365000024,None,515.8692365000024,None,516.1542741000012,None,516.1542741000012,None,516.1542741000012,None,516.1542741000012,None,516.1542741000012,None,516.1542741000012,None,516.4480627000012,None,516.4480627000012,None,518.2080516999995,None,518.2080516999995,None,518.2080516999995,None,518.2080516999995,None,518.2080516999995,None,518.2080516999995,None,518.2080516999995,None,518.2080516999995,None,518.2080516999995,None,40,32,29,54,54,67,520.7253567000007,None,3.0,1.161068500005058,520.7253567000007,None,520.7253567000007,None,520.7253567000007,None,520.7253567000007,None,None,None,521.9090075999993,None,,,,,,,107,M,22,2022_Nov_25_1515,RL,2021.2.3,59.865040251822066,
1,61,0,61,0,,,,,,,,,,,,,,,None,None,None,None,None,523.5733250000048,None,523.5733250000048,None,523.5733250000048,None,523.5733250000048,None,j,0.27704509999603033,523.5733250000048,None,523.5733250000048,None,523.9018400999994,None,523.9018400999994,None,523.9018400999994,None,523.9018400999994,None,523.9018400999994,None,523.9018400999994,None,524.1866668000002,525.0205812000058,524.1866668000002,525.0205812000058,525.053419200005,None,525.053419200005,None,525.053419200005,None,525.053419200005,None,525.053419200005,None,525.053419200005,None,525.053419200005,None,525.053419200005,None,525.053419200005,None,40,26,30,42,42,52,527.5730469000046,None,3.0,2.2992128999976558,527.5730469000046,None,527.5730469000046,None,527.5730469000046,None,527.5730469000046,None,None,None,529.899235900004,None,,,,,,,107,M,22,2022_Nov_25_1515,RL,2021.2.3,59.865040251822066,
1,62,0,62,0,,,,,,,,,,,,,,,None,None,None,None,None,531.7951907000024,None,531.7951907000024,None,531.7951907000024,None,531.7951907000024,None,j,0.31457919999957085,531.7951907000024,None,531.7951907000024,None,532.1433414000057,None,532.1433414000057,None,532.1433414000057,None,532.1433414000057,None,532.1433414000057,None,532.1433414000057,None,532.4425737000056,None,532.4425737000056,None,533.3502955000004,None,533.3502955000004,None,533.3502955000004,None,533.3502955000004,None,533.3502955000004,None,533.3502955000004,None,533.3502955000004,None,533.3502955000004,None,533.3502955000004,None,32,28,29,49,49,66,535.8763634000061,None,3.0,0.5369150000042282,535.8763634000061,None,535.8763634000061,None,535.8763634000061,None,535.8763634000061,None,None,None,536.4313779000004,None,,,,,,,107,M,22,2022_Nov_25_1515,RL,2021.2.3,59.865040251822066,
1,63,0,63,0,,,,,,,,,,,,,,,None,None,None,None,None,538.0626598000017,None,538.0626598000017,None,538.0626598000017,None,538.0626598000017,None,j,0.2574594999969122,538.0626598000017,None,538.0626598000017,None,538.3610394999996,None,538.3610394999996,None,538.3610394999996,None,538.3610394999996,None,538.3610394999996,None,538.3610394999996,None,538.6466201000003,539.9974898,538.6466201000003,539.9974898,540.033626299999,None,540.033626299999,None,540.033626299999,None,540.033626299999,None,540.033626299999,None,540.033626299999,None,540.033626299999,None,540.033626299999,None,540.033626299999,None,41,36,24,49,49,64,542.5568615000011,None,3.0,0.5454108999983873,542.5568615000011,None,542.5568615000011,None,542.5568615000011,None,542.5568615000011,None,None,None,543.1206301999991,None,,,,,,,107,M,22,2022_Nov_25_1515,RL,2021.2.3,59.865040251822066,
1,64,0,64,0,,,,,,,,,,,,,,,None,None,None,None,None,544.9006193000023,None,544.9006193000023,None,544.9006193000023,None,544.9006193000023,None,j,0.85909709999396,544.9006193000023,None,544.9006193000023,None,545.802706100003,None,545.802706100003,None,545.802706100003,None,545.802706100003,None,545.802706100003,None,545.802706100003,None,546.1018941000002,548.0866422000036,546.1018941000002,548.0866422000036,548.115913900001,None,548.115913900001,None,548.115913900001,None,548.115913900001,None,548.115913900001,None,548.115913900001,None,548.115913900001,None,548.115913900001,None,548.115913900001,None,34,35,18,47,47,72,550.6296501000033,None,2.0,0.5947793000013917,550.6296501000033,None,550.6296501000033,None,550.6296501000033,None,550.6296501000033,None,None,None,551.2388171999992,None,,,,,,,107,M,22,2022_Nov_25_1515,RL,2021.2.3,59.865040251822066,
1,65,0,65,0,,,,,,,,,,,,,,,None,None,None,None,None,552.8761152000006,None,552.8761152000006,None,552.8761152000006,None,552.8761152000006,None,j,0.23392299999977695,552.8761152000006,None,552.8761152000006,None,553.1573261000012,None,553.1573261000012,None,553.1573261000012,None,553.1573261000012,None,553.1573261000012,None,553.1573261000012,None,553.4569533000031,None,553.4569533000031,None,554.705203000005,None,554.705203000005,None,554.705203000005,None,554.705203000005,None,554.705203000005,None,554.705203000005,None,554.705203000005,None,554.705203000005,None,554.705203000005,None,31,40,10,52,52,64,557.225194300001,None,3.0,1.5021510000005946,557.225194300001,None,557.225194300001,None,557.225194300001,None,557.225194300001,None,None,None,558.7477736000001,None,,,,,,,107,M,22,2022_Nov_25_1515,RL,2021.2.3,59.865040251822066,
1,66,0,66,0,,,,,,,,,,,,,,,None,None,None,None,None,560.6850425000011,None,560.6850425000011,None,560.6850425000011,None,560.6850425000011,None,r,0.43508599999768194,560.6850425000011,None,560.6850425000011,None,561.163075000004,None,561.163075000004,None,561.163075000004,None,561.163075000004,None,561.163075000004,None,561.163075000004,None,561.4627464000005,None,561.4627464000005,None,563.4433357000016,None,563.4433357000016,None,563.4433357000016,None,563.4433357000016,None,563.4433357000016,None,563.4433357000016,None,563.4433357000016,None,563.4433357000016,None,563.4433357000016,None,31,21,16,51,31,57,565.963024100005,None,2.0,2.2878353000050993,565.963024100005,None,565.963024100005,None,565.963024100005,None,565.963024100005,None,None,None,568.2687612000009,None,,,,,,,107,M,22,2022_Nov_25_1515,RL,2021.2.3,59.865040251822066,
1,67,0,67,0,,,,,,,,,,,,,,,None,None,None,None,None,569.8250422000056,None,569.8250422000056,None,569.8250422000056,None,569.8250422000056,None,j,0.24434109999856446,569.8250422000056,None,569.8250422000056,None,570.095335900005,None,570.095335900005,None,570.095335900005,None,570.095335900005,None,570.095335900005,None,570.095335900005,None,570.3854387000029,572.3700755000027,570.3854387000029,572.3700755000027,572.4011121000003,None,572.4011121000003,None,572.4011121000003,None,572.4011121000003,None,572.4011121000003,None,572.4011121000003,None,572.4011121000003,None,572.4011121000003,None,572.4011121000003,None,29,24,19,50,50,55,574.9276533000011,None,4.0,1.2693041999955312,574.9276533000011,None,574.9276533000011,None,574.9276533000011,None,574.9276533000011,None,None,None,576.2107439000029,None,,,,,,,107,M,22,2022_Nov_25_1515,RL,2021.2.3,59.865040251822066,
1,68,0,68,0,,,,,,,,,,,,,,,None,None,None,None,None,577.8403239000036,None,577.8403239000036,None,577.8403239000036,None,577.8403239000036,None,j,0.32004679999954533,577.8403239000036,None,577.8403239000036,None,578.2269709000029,None,578.2269709000029,None,578.2269709000029,None,578.2269709000029,None,578.2269709000029,None,578.2269709000029,None,578.5241606000054,None,578.5241606000054,None,579.5184330000047,None,579.5184330000047,None,579.5184330000047,None,579.5184330000047,None,579.5184330000047,None,579.5184330000047,None,579.5184330000047,None,579.5184330000047,None,579.5184330000047,None,34,26,26,44,44,59,582.0422507000039,None,3.0,3.7546188999986043,582.0422507000039,None,582.0422507000039,None,582.0422507000039,None,582.0422507000039,None,None,None,585.8123995999995,None,,,,,,,107,M,22,2022_Nov_25_1515,RL,2021.2.3,59.865040251822066,
1,69,0,69,0,,,,,,,,,,,,,,,None,None,None,None,None,587.483756900001,None,587.483756900001,None,587.483756900001,None,587.483756900001,None,j,0.25644420000026,587.483756900001,None,587.483756900001,None,587.7839106000029,None,587.7839106000029,None,587.7839106000029,None,587.7839106000029,None,587.7839106000029,None,587.7839106000029,None,588.080942200002,None,588.080942200002,None,589.5515283999994,None,589.5515283999994,None,589.5515283999994,None,589.5515283999994,None,589.5515283999994,None,589.5515283999994,None,589.5515283999994,None,589.5515283999994,None,589.5515283999994,None,34,26,21,59,59,63,592.0619838999992,None,4.0,1.1582820000039646,592.0619838999992,None,592.0619838999992,None,592.0619838999992,None,592.0619838999992,None,None,None,593.2410885999998,None,,,,,,,107,M,22,2022_Nov_25_1515,RL,2021.2.3,59.865040251822066,
1,70,0,70,0,,,,,,,,,,,,,,,None,None,None,None,None,595.0735411999995,None,595.0735411999995,None,595.0735411999995,None,595.0735411999995,None,j,0.2368780000033439,595.0735411999995,None,595.0735411999995,None,595.3624389000033,None,595.3624389000033,None,595.3624389000033,None,595.3624389000033,None,595.3624389000033,None,595.3624389000033,None,595.652848800004,597.4374720000051,595.652848800004,597.4374720000051,597.473928600004,None,597.473928600004,None,597.473928600004,None,597.473928600004,None,597.473928600004,None,597.473928600004,None,597.473928600004,None,597.473928600004,None,597.473928600004,None,30,28,31,60,60,67,599.9946203,None,3.0,7.332273799998802,599.9946203,None,599.9946203,None,599.9946203,None,599.9946203,None,None,None,607.3438380000007,None,,,,,,,107,M,22,2022_Nov_25_1515,RL,2021.2.3,59.865040251822066,
1,71,0,71,0,,,,,,,,,,,,,,,None,None,None,None,None,609.231755700006,None,609.231755700006,None,609.231755700006,None,609.231755700006,None,j,0.30850810000265483,609.231755700006,None,609.231755700006,None,609.5811319000059,None,609.5811319000059,None,609.5811319000059,None,609.5811319000059,None,609.5811319000059,None,609.5811319000059,None,609.8795258000027,None,609.8795258000027,None,611.1267466999998,None,611.1267466999998,None,611.1267466999998,None,611.1267466999998,None,611.1267466999998,None,611.1267466999998,None,611.1267466999998,None,611.1267466999998,None,611.1267466999998,None,28,40,19,61,61,69,613.6439246000009,None,3.0,0.9412951999984216,613.6439246000009,None,613.6439246000009,None,613.6439246000009,None,613.6439246000009,None,None,None,614.6002930000031,None,,,,,,,107,M,22,2022_Nov_25_1515,RL,2021.2.3,59.865040251822066,
1,72,0,72,0,,,,,,,,,,,,,,,None,None,None,None,None,616.4412010000015,None,616.4412010000015,None,616.4412010000015,None,616.4412010000015,None,j,0.2599454000010155,616.4412010000015,None,616.4412010000015,None,616.7403391000043,None,616.7403391000043,None,616.7403391000043,None,616.7403391000043,None,616.7403391000043,None,616.7403391000043,None,617.0346694000036,None,617.0346694000036,None,618.6283684000009,None,618.6283684000009,None,618.6283684000009,None,618.6283684000009,None,618.6283684000009,None,618.6283684000009,None,618.6283684000009,None,618.6283684000009,None,618.6283684000009,None,37,30,19,55,55,62,621.1522762000022,None,3.0,0.6225702000010642,621.1522762000022,None,621.1522762000022,None,621.1522762000022,None,621.1522762000022,None,None,None,621.7882248000024,None,,,,,,,107,M,22,2022_Nov_25_1515,RL,2021.2.3,59.865040251822066,
1,73,0,73,0,,,,,,,,,,,,,,,None,None,None,None,None,623.7886763999995,None,623.7886763999995,None,623.7886763999995,None,623.7886763999995,None,j,0.2626507999957539,623.7886763999995,None,623.7886763999995,None,624.096062800003,None,624.096062800003,None,624.096062800003,None,624.096062800003,None,624.096062800003,None,624.096062800003,None,624.3895191000047,626.2406508999993,624.3895191000047,626.2406508999993,626.2713813000009,None,626.2713813000009,None,626.2713813000009,None,626.2713813000009,None,626.2713813000009,None,626.2713813000009,None,626.2713813000009,None,626.2713813000009,None,626.2713813000009,None,35,38,17,58,58,58,628.785151600001,None,4.0,1.6075344999990193,628.785151600001,None,628.785151600001,None,628.785151600001,None,628.785151600001,None,None,None,630.4143523000021,None,,,,,,,107,M,22,2022_Nov_25_1515,RL,2021.2.3,59.865040251822066,
1,74,0,74,0,,,,,,,,,,,,,,,None,None,None,None,None,632.1811282000053,None,632.1811282000053,None,632.1811282000053,None,632.1811282000053,None,j,0.980047500001092,632.1811282000053,None,632.1811282000053,None,633.1885936000035,None,633.1885936000035,None,633.1885936000035,None,633.1885936000035,None,633.1885936000035,None,633.1885936000035,None,633.4791612000045,634.4629922000022,633.4791612000045,634.4629922000022,634.4950224000058,None,634.4950224000058,None,634.4950224000058,None,634.4950224000058,None,634.4950224000058,None,634.4950224000058,None,634.4950224000058,None,634.4950224000058,None,634.4950224000058,None,35,37,29,48,48,58,637.015813500002,None,3.0,1.6321936000022106,637.015813500002,None,637.015813500002,None,637.015813500002,None,637.015813500002,None,None,None,638.6665734000053,None,,,,,,,107,M,22,2022_Nov_25_1515,RL,2021.2.3,59.865040251822066,
1,75,0,75,0,,,,,,,,,,,,,,,640.5172010000024,None,q,640.5172010000024,None,703.2939102000018,None,703.2939102000018,None,703.2939102000018,None,703.2939102000018,None,j,0.4960833000004641,703.2939102000018,None,703.2939102000018,None,703.8325734000027,None,703.8325734000027,None,703.8325734000027,None,703.8325734000027,None,703.8325734000027,None,703.8325734000027,None,704.1282413000008,None,704.1282413000008,None,705.1941933000053,None,705.1941933000053,None,705.1941933000053,None,705.1941933000053,None,705.1941933000053,None,705.1941933000053,None,705.1941933000053,None,705.1941933000053,None,705.1941933000053,None,38,32,14,57,57,65,707.7195608000038,None,3.0,1.3657525000016904,707.7195608000038,None,707.7195608000038,None,707.7195608000038,None,707.7195608000038,None,None,None,709.0979236000057,None,62.74674260000029,,,,,,107,M,22,2022_Nov_25_1515,RL,2021.2.3,59.865040251822066,
1,76,0,76,0,,,,,,,,,,,,,,,None,None,None,None,None,710.9185645000034,None,710.9185645000034,None,710.9185645000034,None,710.9185645000034,None,r,0.27130149999720743,710.9185645000034,None,710.9185645000034,None,711.2265152000036,None,711.2265152000036,None,711.2265152000036,None,711.2265152000036,None,711.2265152000036,None,711.2265152000036,None,711.5164765000009,713.0674677999996,711.5164765000009,713.0674677999996,713.0945637000041,None,713.0945637000041,None,713.0945637000041,None,713.0945637000041,None,713.0945637000041,None,713.0945637000041,None,713.0945637000041,None,713.0945637000041,None,713.0945637000041,None,43,29,25,55,43,68,715.6089741000033,None,2.0,0.89469950000057,715.6089741000033,None,715.6089741000033,None,715.6089741000033,None,715.6089741000033,None,None,None,716.5195034999997,None,,,,,,,107,M,22,2022_Nov_25_1515,RL,2021.2.3,59.865040251822066,
1,77,0,77,0,,,,,,,,,,,,,,,None,None,None,None,None,718.0568378000025,None,718.0568378000025,None,718.0568378000025,None,718.0568378000025,None,f,0.3129742000019178,718.0568378000025,None,718.0568378000025,None,718.4104335000011,None,718.4104335000011,None,718.4104335000011,None,718.4104335000011,None,718.4104335000011,None,718.4104335000011,None,718.7052387000003,None,718.7052387000003,None,720.2812549000009,None,720.2812549000009,None,720.2812549000009,None,720.2812549000009,None,720.2812549000009,None,720.2812549000009,None,720.2812549000009,None,720.2812549000009,None,720.2812549000009,None,44,40,19,60,40,73,722.8082121000043,None,1.0,2.1360437999974238,722.8082121000043,None,722.8082121000043,None,722.8082121000043,None,722.8082121000043,None,None,None,724.9588736000005,None,,,,,,,107,M,22,2022_Nov_25_1515,RL,2021.2.3,59.865040251822066,
1,78,0,78,0,,,,,,,,,,,,,,,None,None,None,None,None,726.5934643,None,726.5934643,None,726.5934643,None,726.5934643,None,i,0.236727499999688,726.5934643,None,726.5934643,None,726.8834076999992,None,726.8834076999992,None,726.8834076999992,None,726.8834076999992,None,726.8834076999992,None,726.8834076999992,None,727.1774752999991,None,727.1774752999991,None,728.7314910999994,None,728.7314910999994,None,728.7314910999994,None,728.7314910999994,None,728.7314910999994,None,728.7314910999994,None,728.7314910999994,None,728.7314910999994,None,728.7314910999994,None,43,38,29,51,29,73,731.2540128000037,None,1.0,6.130219000006036,731.2540128000037,None,731.2540128000037,None,731.2540128000037,None,731.2540128000037,None,None,None,737.4012039000008,None,,,,,,,107,M,22,2022_Nov_25_1515,RL,2021.2.3,59.865040251822066,
1,79,0,79,0,,,,,,,,,,,,,,,None,None,None,None,None,739.2022905000049,None,739.2022905000049,None,739.2022905000049,None,739.2022905000049,None,j,0.23778740000125254,739.2022905000049,None,739.2022905000049,None,739.490908300002,None,739.490908300002,None,739.490908300002,None,739.490908300002,None,739.490908300002,None,739.490908300002,None,739.786108799999,741.0201963,739.786108799999,741.0201963,741.0402003999989,None,741.0402003999989,None,741.0402003999989,None,741.0402003999989,None,741.0402003999989,None,741.0402003999989,None,741.0402003999989,None,741.0402003999989,None,741.0402003999989,None,44,36,20,57,57,69,743.5703018000058,None,3.0,1.6730577000053017,743.5703018000058,None,743.5703018000058,None,743.5703018000058,None,743.5703018000058,None,None,None,745.2574406999993,None,,,,,,,107,M,22,2022_Nov_25_1515,RL,2021.2.3,59.865040251822066,
1,80,0,80,0,,,,,,,,,,,,,,,None,None,None,None,None,746.7761218000014,None,746.7761218000014,None,746.7761218000014,None,746.7761218000014,None,j,0.23409620000165887,746.7761218000014,None,746.7761218000014,None,747.0684561000016,None,747.0684561000016,None,747.0684561000016,None,747.0684561000016,None,747.0684561000016,None,747.0684561000016,None,747.3583290000024,749.1091965000014,747.3583290000024,749.1091965000014,749.1412224000014,None,749.1412224000014,None,749.1412224000014,None,749.1412224000014,None,749.1412224000014,None,749.1412224000014,None,749.1412224000014,None,749.1412224000014,None,749.1412224000014,None,41,46,17,46,46,70,751.6570317000005,None,2.0,1.8739402999999584,751.6570317000005,None,751.6570317000005,None,751.6570317000005,None,751.6570317000005,None,None,None,753.5519621999993,None,,,,,,,107,M,22,2022_Nov_25_1515,RL,2021.2.3,59.865040251822066,
1,81,0,81,0,,,,,,,,,,,,,,,None,None,None,None,None,755.5186786000049,None,755.5186786000049,None,755.5186786000049,None,755.5186786000049,None,r,0.2325381999980891,755.5186786000049,None,755.5186786000049,None,755.803267700001,None,755.803267700001,None,755.803267700001,None,755.803267700001,None,755.803267700001,None,755.803267700001,None,756.0976393000019,757.548377500003,756.0976393000019,757.548377500003,757.5836312000029,None,757.5836312000029,None,757.5836312000029,None,757.5836312000029,None,757.5836312000029,None,757.5836312000029,None,757.5836312000029,None,757.5836312000029,None,757.5836312000029,None,45,48,18,53,45,61,760.1005957000016,None,4.0,1.6375188999954844,760.1005957000016,None,760.1005957000016,None,760.1005957000016,None,760.1005957000016,None,None,None,761.7617078000039,None,,,,,,,107,M,22,2022_Nov_25_1515,RL,2021.2.3,59.865040251822066,
1,82,0,82,0,,,,,,,,,,,,,,,None,None,None,None,None,763.418986100005,None,763.418986100005,None,763.418986100005,None,763.418986100005,None,r,0.24211680000007618,763.418986100005,None,763.418986100005,None,763.7027347000039,None,763.7027347000039,None,763.7027347000039,None,763.7027347000039,None,763.7027347000039,None,763.7027347000039,None,764.0030649000037,None,764.0030649000037,None,765.5944363000017,None,765.5944363000017,None,765.5944363000017,None,765.5944363000017,None,765.5944363000017,None,765.5944363000017,None,765.5944363000017,None,765.5944363000017,None,765.5944363000017,None,49,40,28,49,49,74,768.1089818000037,None,1.0,1.2945461999988765,768.1089818000037,None,768.1089818000037,None,768.1089818000037,None,768.1089818000037,None,None,None,769.4232565000057,None,,,,,,,107,M,22,2022_Nov_25_1515,RL,2021.2.3,59.865040251822066,
1,83,0,83,0,,,,,,,,,,,,,,,None,None,None,None,None,771.2771714000046,None,771.2771714000046,None,771.2771714000046,None,771.2771714000046,None,j,0.2340794999981881,771.2771714000046,None,771.2771714000046,None,771.5567145000023,None,771.5567145000023,None,771.5567145000023,None,771.5567145000023,None,771.5567145000023,None,771.5567145000023,None,771.8416962000047,773.2426134000052,771.8416962000047,773.2426134000052,773.273517600006,None,773.273517600006,None,773.273517600006,None,773.273517600006,None,773.273517600006,None,773.273517600006,None,773.273517600006,None,773.273517600006,None,773.273517600006,None,40,48,12,54,54,78,775.794939600004,None,2.0,0.70030090000364,775.794939600004,None,775.794939600004,None,775.794939600004,None,775.794939600004,None,None,None,776.5113975999993,None,,,,,,,107,M,22,2022_Nov_25_1515,RL,2021.2.3,59.865040251822066,
1,84,0,84,0,,,,,,,,,,,,,,,None,None,None,None,None,778.4492051000052,None,778.4492051000052,None,778.4492051000052,None,778.4492051000052,None,r,0.23208139999769628,778.4492051000052,None,778.4492051000052,None,778.7179843000049,None,778.7179843000049,None,778.7179843000049,None,778.7179843000049,None,778.7179843000049,None,778.7179843000049,None,779.0132108000034,780.547556000005,779.0132108000034,780.547556000005,780.5764468000052,None,780.5764468000052,None,780.5764468000052,None,780.5764468000052,None,780.5764468000052,None,780.5764468000052,None,780.5764468000052,None,780.5764468000052,None,780.5764468000052,None,36,54,21,47,36,65,783.0949933000011,None,1.0,1.157888699999603,783.0949933000011,None,783.0949933000011,None,783.0949933000011,None,783.0949933000011,None,None,None,784.2723455000014,None,,,,,,,107,M,22,2022_Nov_25_1515,RL,2021.2.3,59.865040251822066,
1,85,0,85,0,,,,,,,,,,,,,,,None,None,None,None,None,786.0057998000048,None,786.0057998000048,None,786.0057998000048,None,786.0057998000048,None,j,0.25532400000520283,786.0057998000048,None,786.0057998000048,None,786.3021760000047,None,786.3021760000047,None,786.3021760000047,None,786.3021760000047,None,786.3021760000047,None,786.3021760000047,None,786.6019711000044,None,786.6019711000044,None,787.4490170999998,None,787.4490170999998,None,787.4490170999998,None,787.4490170999998,None,787.4490170999998,None,787.4490170999998,None,787.4490170999998,None,787.4490170999998,None,787.4490170999998,None,29,39,26,42,42,69,789.9718351000047,None,3.0,1.2214202999966801,789.9718351000047,None,789.9718351000047,None,789.9718351000047,None,789.9718351000047,None,None,None,791.2047623000035,None,,,,,,,107,M,22,2022_Nov_25_1515,RL,2021.2.3,59.865040251822066,
1,86,0,86,0,,,,,,,,,,,,,,,None,None,None,None,None,792.991409000002,None,792.991409000002,None,792.991409000002,None,792.991409000002,None,j,0.43992859999707434,792.991409000002,None,792.991409000002,None,793.4846248000031,None,793.4846248000031,None,793.4846248000031,None,793.4846248000031,None,793.4846248000031,None,793.4846248000031,None,793.7733560000052,None,793.7733560000052,None,795.464796100001,None,795.464796100001,None,795.464796100001,None,795.464796100001,None,795.464796100001,None,795.464796100001,None,795.464796100001,None,795.464796100001,None,795.464796100001,None,30,50,21,51,51,68,797.9918577999997,None,3.0,3.4707515999980387,797.9918577999997,None,797.9918577999997,None,797.9918577999997,None,797.9918577999997,None,None,None,801.478844600002,None,,,,,,,107,M,22,2022_Nov_25_1515,RL,2021.2.3,59.865040251822066,
1,87,0,87,0,,,,,,,,,,,,,,,None,None,None,None,None,803.297774300001,None,803.297774300001,None,803.297774300001,None,803.297774300001,None,j,0.23365090000152122,803.297774300001,None,803.297774300001,None,803.5708636999989,None,803.5708636999989,None,803.5708636999989,None,803.5708636999989,None,803.5708636999989,None,803.5708636999989,None,803.8637791000001,None,803.8637791000001,None,805.6458650000059,None,805.6458650000059,None,805.6458650000059,None,805.6458650000059,None,805.6458650000059,None,805.6458650000059,None,805.6458650000059,None,805.6458650000059,None,805.6458650000059,None,39,45,21,46,46,74,808.161396800002,None,2.0,1.6548540000003413,808.161396800002,None,808.161396800002,None,808.161396800002,None,808.161396800002,None,None,None,809.8362506000049,None,,,,,,,107,M,22,2022_Nov_25_1515,RL,2021.2.3,59.865040251822066,
1,88,0,88,0,,,,,,,,,,,,,,,None,None,None,None,None,811.5357281000033,None,811.5357281000033,None,811.5357281000033,None,811.5357281000033,None,r,0.2854737999950885,811.5357281000033,None,811.5357281000033,None,811.8615576000011,None,811.8615576000011,None,811.8615576000011,None,811.8615576000011,None,811.8615576000011,None,811.8615576000011,None,812.1531481000056,813.1200639000017,812.1531481000056,813.1200639000017,813.142517799999,None,813.142517799999,None,813.142517799999,None,813.142517799999,None,813.142517799999,None,813.142517799999,None,813.142517799999,None,813.142517799999,None,813.142517799999,None,36,53,26,48,36,65,815.6765311999989,None,1.0,1.7488220000013825,815.6765311999989,None,815.6765311999989,None,815.6765311999989,None,815.6765311999989,None,None,None,817.4403070000044,None,,,,,,,107,M,22,2022_Nov_25_1515,RL,2021.2.3,59.865040251822066,
1,89,0,89,0,,,,,,,,,,,,,,,None,None,None,None,None,819.0933537000019,None,819.0933537000019,None,819.0933537000019,None,819.0933537000019,None,j,0.23806579999654787,819.0933537000019,None,819.0933537000019,None,819.37457,None,819.37457,None,819.37457,None,819.37457,None,819.37457,None,819.37457,None,819.6750032999989,None,819.6750032999989,None,820.7490851000039,None,820.7490851000039,None,820.7490851000039,None,820.7490851000039,None,820.7490851000039,None,820.7490851000039,None,820.7490851000039,None,820.7490851000039,None,820.7490851000039,None,34,54,26,41,41,64,823.2750722000055,None,2.0,0.8844540999998571,823.2750722000055,None,823.2750722000055,None,823.2750722000055,None,823.2750722000055,None,None,None,824.1881213000015,None,,,,,,,107,M,22,2022_Nov_25_1515,RL,2021.2.3,59.865040251822066,
1,90,0,90,0,,,,,,,,,,,,,,,None,None,None,None,None,825.8479879000006,None,825.8479879000006,None,825.8479879000006,None,825.8479879000006,None,i,0.2737476000038441,825.8479879000006,None,825.8479879000006,None,826.1583840000021,None,826.1583840000021,None,826.1583840000021,None,826.1583840000021,None,826.1583840000021,None,826.1583840000021,None,826.4463407000003,827.8305239000038,826.4463407000003,827.8305239000038,827.8619471999991,None,827.8619471999991,None,827.8619471999991,None,827.8619471999991,None,827.8619471999991,None,827.8619471999991,None,827.8619471999991,None,827.8619471999991,None,827.8619471999991,None,33,53,27,50,27,62,830.3939415999994,None,1.0,5.12949590000062,830.3939415999994,None,830.3939415999994,None,830.3939415999994,None,830.3939415999994,None,None,None,835.5357118000029,None,,,,,,,107,M,22,2022_Nov_25_1515,RL,2021.2.3,59.865040251822066,
1,91,0,91,0,,,,,,,,,,,,,,,None,None,None,None,None,837.4410406000025,None,837.4410406000025,None,837.4410406000025,None,837.4410406000025,None,j,0.24068540000007488,837.4410406000025,None,837.4410406000025,None,837.7316283000036,None,837.7316283000036,None,837.7316283000036,None,837.7316283000036,None,837.7316283000036,None,837.7316283000036,None,838.0209997000056,839.4384979000024,838.0209997000056,839.4384979000024,839.4728342000017,None,839.4728342000017,None,839.4728342000017,None,839.4728342000017,None,839.4728342000017,None,839.4728342000017,None,839.4728342000017,None,839.4728342000017,None,839.4728342000017,None,33,57,22,53,53,75,841.9962771999999,None,2.0,1.3316133999978774,841.9962771999999,None,841.9962771999999,None,841.9962771999999,None,841.9962771999999,None,None,None,843.3411047000045,None,,,,,,,107,M,22,2022_Nov_25_1515,RL,2021.2.3,59.865040251822066,
1,92,0,92,0,,,,,,,,,,,,,,,None,None,None,None,None,845.3135159000012,None,845.3135159000012,None,845.3135159000012,None,845.3135159000012,None,j,0.21807519999856595,845.3135159000012,None,845.3135159000012,None,845.5835735,None,845.5835735,None,845.5835735,None,845.5835735,None,845.5835735,None,845.5835735,None,845.8595745999992,847.0440596000044,845.8595745999992,847.0440596000044,847.0844963999989,None,847.0844963999989,None,847.0844963999989,None,847.0844963999989,None,847.0844963999989,None,847.0844963999989,None,847.0844963999989,None,847.0844963999989,None,847.0844963999989,None,38,40,26,58,58,64,849.6102914000003,None,3.0,1.3202535999953398,849.6102914000003,None,849.6102914000003,None,849.6102914000003,None,849.6102914000003,None,None,None,850.9461765000015,None,,,,,,,107,M,22,2022_Nov_25_1515,RL,2021.2.3,59.865040251822066,
1,93,0,93,0,,,,,,,,,,,,,,,None,None,None,None,None,852.701871600002,None,852.701871600002,None,852.701871600002,None,852.701871600002,None,j,0.23998110000684392,852.701871600002,None,852.701871600002,None,852.985886800001,None,852.985886800001,None,852.985886800001,None,852.985886800001,None,852.985886800001,None,852.985886800001,None,853.2816982000004,None,853.2816982000004,None,855.1883968000038,None,855.1883968000038,None,855.1883968000038,None,855.1883968000038,None,855.1883968000038,None,855.1883968000038,None,855.1883968000038,None,855.1883968000038,None,855.1883968000038,None,42,48,23,54,54,67,857.7118012999999,None,3.0,0.7491447000065818,857.7118012999999,None,857.7118012999999,None,857.7118012999999,None,857.7118012999999,None,None,None,858.4709435000041,None,,,,,,,107,M,22,2022_Nov_25_1515,RL,2021.2.3,59.865040251822066,
1,94,0,94,0,,,,,,,,,,,,,,,None,None,None,None,None,860.286159700001,None,860.286159700001,None,860.286159700001,None,860.286159700001,None,j,0.22526880000077654,860.286159700001,None,860.286159700001,None,860.5557681999999,None,860.5557681999999,None,860.5557681999999,None,860.5557681999999,None,860.5557681999999,None,860.5557681999999,None,860.8537861000004,None,860.8537861000004,None,862.5633898000015,None,862.5633898000015,None,862.5633898000015,None,862.5633898000015,None,862.5633898000015,None,862.5633898000015,None,862.5633898000015,None,862.5633898000015,None,862.5633898000015,None,35,53,31,56,56,65,865.0869124000019,None,3.0,0.6562021999998251,865.0869124000019,None,865.0869124000019,None,865.0869124000019,None,865.0869124000019,None,None,None,865.7622257000039,None,,,,,,,107,M,22,2022_Nov_25_1515,RL,2021.2.3,59.865040251822066,
1,95,0,95,0,,,,,,,,,,,,,,,None,None,None,None,None,867.7122327000034,None,867.7122327000034,None,867.7122327000034,None,867.7122327000034,None,j,0.2596585999999661,867.7122327000034,None,867.7122327000034,None,868.0147845000029,None,868.0147845000029,None,868.0147845000029,None,868.0147845000029,None,868.0147845000029,None,868.0147845000029,None,868.3085399000047,None,868.3085399000047,None,870.1655337000047,None,870.1655337000047,None,870.1655337000047,None,870.1655337000047,None,870.1655337000047,None,870.1655337000047,None,870.1655337000047,None,870.1655337000047,None,870.1655337000047,None,33,51,28,65,65,70,872.6909120000055,None,3.0,0.4236756999962381,872.6909120000055,None,872.6909120000055,None,872.6909120000055,None,872.6909120000055,None,None,None,873.1291840000049,None,,,,,,,107,M,22,2022_Nov_25_1515,RL,2021.2.3,59.865040251822066,
1,96,0,96,0,,,,,,,,,,,,,,,None,None,None,None,None,874.8796360000051,None,874.8796360000051,None,874.8796360000051,None,874.8796360000051,None,j,0.20228710000083083,874.8796360000051,None,874.8796360000051,None,875.1238385000033,None,875.1238385000033,None,875.1238385000033,None,875.1238385000033,None,875.1238385000033,None,875.1238385000033,None,875.413538300003,876.2307428999993,875.413538300003,876.2307428999993,876.2615594000017,None,876.2615594000017,None,876.2615594000017,None,876.2615594000017,None,876.2615594000017,None,876.2615594000017,None,876.2615594000017,None,876.2615594000017,None,876.2615594000017,None,39,46,26,61,61,66,878.7797620999991,None,3.0,0.5726503999976558,878.7797620999991,None,878.7797620999991,None,878.7797620999991,None,878.7797620999991,None,None,None,879.3780779000008,None,,,,,,,107,M,22,2022_Nov_25_1515,RL,2021.2.3,59.865040251822066,
1,97,0,97,0,,,,,,,,,,,,,,,None,None,None,None,None,881.3354011000047,None,881.3354011000047,None,881.3354011000047,None,881.3354011000047,None,j,0.2465823999955319,881.3354011000047,None,881.3354011000047,None,881.6232027000005,None,881.6232027000005,None,881.6232027000005,None,881.6232027000005,None,881.6232027000005,None,881.6232027000005,None,881.9181794000033,883.7526992999992,881.9181794000033,883.7526992999992,883.7818606000001,None,883.7818606000001,None,883.7818606000001,None,883.7818606000001,None,883.7818606000001,None,883.7818606000001,None,883.7818606000001,None,883.7818606000001,None,883.7818606000001,None,39,45,23,59,59,69,886.299257300001,None,3.0,1.6589574000026914,886.299257300001,None,886.299257300001,None,886.299257300001,None,886.299257300001,None,None,None,887.9719489000054,None,,,,,,,107,M,22,2022_Nov_25_1515,RL,2021.2.3,59.865040251822066,
1,98,0,98,0,,,,,,,,,,,,,,,None,None,None,None,None,889.5942826000028,None,889.5942826000028,None,889.5942826000028,None,889.5942826000028,None,j,0.237365699998918,889.5942826000028,None,889.5942826000028,None,889.8793680000017,None,889.8793680000017,None,889.8793680000017,None,889.8793680000017,None,889.8793680000017,None,889.8793680000017,None,890.1739957000027,891.8747762999992,890.1739957000027,891.8747762999992,891.910704300004,None,891.910704300004,None,891.910704300004,None,891.910704300004,None,891.910704300004,None,891.910704300004,None,891.910704300004,None,891.910704300004,None,891.910704300004,None,37,45,24,63,63,79,894.4262910000034,None,3.0,3.3867220999964047,894.4262910000034,None,894.4262910000034,None,894.4262910000034,None,894.4262910000034,None,None,None,897.8342793000047,None,,,,,,,107,M,22,2022_Nov_25_1515,RL,2021.2.3,59.865040251822066,
1,99,0,99,0,,,,,,,,,,,,,,,None,None,None,None,None,899.4488223000008,None,899.4488223000008,None,899.4488223000008,None,899.4488223000008,None,j,0.2930391999980202,899.4488223000008,None,899.4488223000008,None,899.7869799000036,None,899.7869799000036,None,899.7869799000036,None,899.7869799000036,None,899.7869799000036,None,899.7869799000036,None,900.0806289000029,901.898365699999,900.0806289000029,901.898365699999,901.9294045000061,None,901.9294045000061,None,901.9294045000061,None,901.9294045000061,None,901.9294045000061,None,901.9294045000061,None,901.9294045000061,None,901.9294045000061,None,901.9294045000061,None,36,44,31,62,62,71,904.4590950999991,None,3.0,0.6436241999981576,904.4590950999991,None,904.4590950999991,None,904.4590950999991,None,904.4590950999991,None,None,None,905.1170137000008,None,,,,,,,107,M,22,2022_Nov_25_1515,RL,2021.2.3,59.865040251822066,
1,100,0,100,0,,,,,,,,,,,,,,,None,None,None,None,None,907.0046726,None,907.0046726,None,907.0046726,None,907.0046726,None,j,0.2273507999998401,907.0046726,None,907.0046726,None,907.2689702999996,None,907.2689702999996,None,907.2689702999996,None,907.2689702999996,None,907.2689702999996,None,907.2689702999996,None,907.5693453000058,None,907.5693453000058,None,908.5580038000044,None,908.5580038000044,None,908.5580038000044,None,908.5580038000044,None,908.5580038000044,None,908.5580038000044,None,908.5580038000044,None,908.5580038000044,None,908.5580038000044,None,36,42,26,64,64,75,911.0827611000059,None,3.0,0.5600962000025902,911.0827611000059,None,911.0827611000059,None,911.0827611000059,None,911.0827611000059,None,None,None,911.6630169000055,None,,,,,,,107,M,22,2022_Nov_25_1515,RL,2021.2.3,59.865040251822066,
1,101,0,101,0,,,,,,,,,,,,,,,None,None,None,None,None,913.5246555000049,None,913.5246555000049,None,913.5246555000049,None,913.5246555000049,None,j,0.23840869999548886,913.5246555000049,None,913.5246555000049,None,913.8119052000038,None,913.8119052000038,None,913.8119052000038,None,913.8119052000038,None,913.8119052000038,None,913.8119052000038,None,914.1070264000009,None,914.1070264000009,None,915.8344492000033,None,915.8344492000033,None,915.8344492000033,None,915.8344492000033,None,915.8344492000033,None,915.8344492000033,None,915.8344492000033,None,915.8344492000033,None,915.8344492000033,None,35,41,36,71,71,77,918.3487119000056,None,4.0,1.0983716000046115,918.3487119000056,None,918.3487119000056,None,918.3487119000056,None,918.3487119000056,None,None,None,919.4606162000055,None,,,,,,,107,M,22,2022_Nov_25_1515,RL,2021.2.3,59.865040251822066,
1,102,0,102,0,,,,,,,,,,,,,,,None,None,None,None,None,921.0616840000002,None,921.0616840000002,None,921.0616840000002,None,921.0616840000002,None,j,0.24177099999360507,921.0616840000002,None,921.0616840000002,None,921.3541519999999,None,921.3541519999999,None,921.3541519999999,None,921.3541519999999,None,921.3541519999999,None,921.3541519999999,None,921.6457203000027,None,921.6457203000027,None,922.5449898000006,None,922.5449898000006,None,922.5449898000006,None,922.5449898000006,None,922.5449898000006,None,922.5449898000006,None,922.5449898000006,None,922.5449898000006,None,922.5449898000006,None,38,51,30,59,59,74,925.0677027000056,None,3.0,3.2311444000006304,925.0677027000056,None,925.0677027000056,None,925.0677027000056,None,925.0677027000056,None,None,None,928.3165702000042,None,,,,,,,107,M,22,2022_Nov_25_1515,RL,2021.2.3,59.865040251822066,
1,103,0,103,0,,,,,,,,,,,,,,,None,None,None,None,None,929.9513312000054,None,929.9513312000054,None,929.9513312000054,None,929.9513312000054,None,j,0.2918474000034621,929.9513312000054,None,929.9513312000054,None,930.297233199999,None,930.297233199999,None,930.297233199999,None,930.297233199999,None,930.297233199999,None,930.297233199999,None,930.5850672000015,932.3694634999993,930.5850672000015,932.3694634999993,932.4060316000032,None,932.4060316000032,None,932.4060316000032,None,932.4060316000032,None,932.4060316000032,None,932.4060316000032,None,932.4060316000032,None,932.4060316000032,None,932.4060316000032,None,36,48,19,70,70,36,934.9328960999992,None,7.0,1.0916649999999208,934.9328960999992,None,934.9328960999992,None,934.9328960999992,None,934.9328960999992,None,None,None,936.0385576000044,None,,,,,,,107,M,22,2022_Nov_25_1515,RL,2021.2.3,59.865040251822066,
1,104,0,104,0,,,,,,,,,,,,,,,None,None,None,None,None,937.8423230000044,None,937.8423230000044,None,937.8423230000044,None,937.8423230000044,None,j,0.2108314000070095,937.8423230000044,None,937.8423230000044,None,938.095106300003,None,938.095106300003,None,938.095106300003,None,938.095106300003,None,938.095106300003,None,938.095106300003,None,938.3907820000022,None,938.3907820000022,None,940.1548280000061,None,940.1548280000061,None,940.1548280000061,None,940.1548280000061,None,940.1548280000061,None,940.1548280000061,None,940.1548280000061,None,940.1548280000061,None,940.1548280000061,None,30,41,19,71,71,70,942.668756900006,None,5.0,1.3272400999994716,942.668756900006,None,942.668756900006,None,942.668756900006,None,942.668756900006,None,None,None,944.0107543000049,None,,,,,,,107,M,22,2022_Nov_25_1515,RL,2021.2.3,59.865040251822066,
1,105,0,105,0,,,,,,,,,,,,,,,None,None,None,None,None,945.9801874000041,None,945.9801874000041,None,945.9801874000041,None,945.9801874000041,None,j,0.27327949999744305,945.9801874000041,None,945.9801874000041,None,946.2989262000046,None,946.2989262000046,None,946.2989262000046,None,946.2989262000046,None,946.2989262000046,None,946.2989262000046,None,946.5961442000043,948.4307678000041,946.5961442000043,948.4307678000041,948.4678864000016,None,948.4678864000016,None,948.4678864000016,None,948.4678864000016,None,948.4678864000016,None,948.4678864000016,None,948.4678864000016,None,948.4678864000016,None,948.4678864000016,None,37,44,18,73,73,66,950.9866112000018,None,5.0,0.7321421000015107,950.9866112000018,None,950.9866112000018,None,950.9866112000018,None,950.9866112000018,None,None,None,951.7325708999997,None,,,,,,,107,M,22,2022_Nov_25_1515,RL,2021.2.3,59.865040251822066,
1,106,0,106,0,,,,,,,,,,,,,,,None,None,None,None,None,953.3671373000034,None,953.3671373000034,None,953.3671373000034,None,953.3671373000034,None,j,0.30627670000103535,953.3671373000034,None,953.3671373000034,None,953.7313918,None,953.7313918,None,953.7313918,None,953.7313918,None,953.7313918,None,953.7313918,None,954.0179824000006,955.8189705000041,954.0179824000006,955.8189705000041,955.867422700001,None,955.867422700001,None,955.867422700001,None,955.867422700001,None,955.867422700001,None,955.867422700001,None,955.867422700001,None,955.867422700001,None,955.867422700001,None,36,57,16,67,67,73,958.3682374000055,None,3.0,1.4227896000011242,958.3682374000055,None,958.3682374000055,None,958.3682374000055,None,958.3682374000055,None,None,None,959.8055009000018,None,,,,,,,107,M,22,2022_Nov_25_1515,RL,2021.2.3,59.865040251822066,
1,107,0,107,0,,,,,,,,,,,,,,,None,None,None,None,None,961.7085367000036,None,961.7085367000036,None,961.7085367000036,None,961.7085367000036,None,j,0.23434660000202712,961.7085367000036,None,961.7085367000036,None,961.9874014000015,None,961.9874014000015,None,961.9874014000015,None,961.9874014000015,None,961.9874014000015,None,961.9874014000015,None,962.2740040999997,963.907964500002,962.2740040999997,963.907964500002,963.9315268999999,None,963.9315268999999,None,963.9315268999999,None,963.9315268999999,None,963.9315268999999,None,963.9315268999999,None,963.9315268999999,None,963.9315268999999,None,963.9315268999999,None,40,48,23,76,76,58,966.4552028000035,None,6.0,1.1542794999986654,966.4552028000035,None,966.4552028000035,None,966.4552028000035,None,966.4552028000035,None,None,None,967.6270485000059,None,,,,,,,107,M,22,2022_Nov_25_1515,RL,2021.2.3,59.865040251822066,
1,108,0,108,0,,,,,,,,,,,,,,,None,None,None,None,None,969.1811894999992,None,969.1811894999992,None,969.1811894999992,None,969.1811894999992,None,j,0.2515283999964595,969.1811894999992,None,969.1811894999992,None,969.4803243999995,None,969.4803243999995,None,969.4803243999995,None,969.4803243999995,None,969.4803243999995,None,969.4803243999995,None,969.7789422999995,None,969.7789422999995,None,971.381764100006,None,971.381764100006,None,971.381764100006,None,971.381764100006,None,971.381764100006,None,971.381764100006,None,971.381764100006,None,971.381764100006,None,971.381764100006,None,44,51,26,70,70,64,973.8955984999993,None,5.0,3.9086726999958046,973.8955984999993,None,973.8955984999993,None,973.8955984999993,None,973.8955984999993,None,None,None,977.8177887000056,None,,,,,,,107,M,22,2022_Nov_25_1515,RL,2021.2.3,59.865040251822066,
1,109,0,109,0,,,,,,,,,,,,,,,None,None,None,None,None,979.6403111000036,None,979.6403111000036,None,979.6403111000036,None,979.6403111000036,None,j,0.35325079999893205,979.6403111000036,None,979.6403111000036,None,980.0412018999996,None,980.0412018999996,None,980.0412018999996,None,980.0412018999996,None,980.0412018999996,None,980.0412018999996,None,980.336320800001,None,980.336320800001,None,981.9156623000017,None,981.9156623000017,None,981.9156623000017,None,981.9156623000017,None,981.9156623000017,None,981.9156623000017,None,981.9156623000017,None,981.9156623000017,None,981.9156623000017,None,38,58,21,73,73,68,984.4333688000042,None,5.0,3.1601106000016443,984.4333688000042,None,984.4333688000042,None,984.4333688000042,None,984.4333688000042,None,None,None,987.6114400000006,None,,,,,,,107,M,22,2022_Nov_25_1515,RL,2021.2.3,59.865040251822066,
1,110,0,110,0,,,,,,,,,,,,,,,None,None,None,None,None,989.2789673000007,None,989.2789673000007,None,989.2789673000007,None,989.2789673000007,None,j,0.25424099999509053,989.2789673000007,None,989.2789673000007,None,989.5877670000045,None,989.5877670000045,None,989.5877670000045,None,989.5877670000045,None,989.5877670000045,None,989.5877670000045,None,989.8761710000035,990.826645000001,989.8761710000035,990.826645000001,990.8630562000035,None,990.8630562000035,None,990.8630562000035,None,990.8630562000035,None,990.8630562000035,None,990.8630562000035,None,990.8630562000035,None,990.8630562000035,None,990.8630562000035,None,39,50,32,73,73,77,993.3797057000047,None,4.0,1.034818100000848,993.3797057000047,None,993.3797057000047,None,993.3797057000047,None,993.3797057000047,None,None,None,994.4364445000028,None,,,,,,,107,M,22,2022_Nov_25_1515,RL,2021.2.3,59.865040251822066,
1,111,0,111,0,,,,,,,,,,,,,,,None,None,None,None,None,995.9723643000034,None,995.9723643000034,None,995.9723643000034,None,995.9723643000034,None,j,0.2211304000011296,995.9723643000034,None,995.9723643000034,None,996.2391112000041,None,996.2391112000041,None,996.2391112000041,None,996.2391112000041,None,996.2391112000041,None,996.2391112000041,None,996.530780400004,None,996.530780400004,None,998.3925344000018,None,998.3925344000018,None,998.3925344000018,None,998.3925344000018,None,998.3925344000018,None,998.3925344000018,None,998.3925344000018,None,998.3925344000018,None,998.3925344000018,None,39,63,34,73,73,69,1000.9052893000044,None,5.0,1.29876360000344,1000.9052893000044,None,1000.9052893000044,None,1000.9052893000044,None,1000.9052893000044,None,None,None,1002.2318659000011,None,,,,,,,107,M,22,2022_Nov_25_1515,RL,2021.2.3,59.865040251822066,
