bandit,trials.thisRepN,trials.thisTrialN,trials.thisN,trials.thisIndex,instru_img1.started,instru_resp.started,instru_resp.keys,instru_resp.rt,instru_img2.started,instru_resp2.started,instru_resp2.keys,instru_resp2.rt,fixbefore_2.started,rest_response.keys,red.started,green.started,yellow.started,blue.started,choose_bandit.started,Fixation.started,choose_bandit.keys,choose_bandit.rt,black.started,red_2.started,green_2.started,yellow_2.started,blue_2.started,fixation_2.started,docs.started,image_2.started,docs.stopped,image_2.stopped,black.stopped,red_2.stopped,green_2.stopped,yellow_2.stopped,blue_2.stopped,fixation_2.stopped,black_com.started,reward_sub.started,palyerb.started,reward__sub.started,compare.started,red_compare.started,green_com.started,yellow_com.started,blue_com.started,image_3.started,slider.started,text.started,image_4.started,image_5.started,rewardyellow,rewardred,rewardblue,rewardgreen,subchoose,playerb,slider.response,slider.rt,intertrialfix.started,intertrialfix.stopped,rest_image.started,rest_response.started,rest_response.rt,black_com.stopped,reward_sub.stopped,palyerb.stopped,reward__sub.stopped,compare.stopped,red_compare.stopped,green_com.stopped,yellow_com.stopped,blue_com.stopped,image.started,key_resp.started,key_resp.keys,key_resp.rt,participant,Gender,Age,date,expName,psychopyVersion,frameRate,
,,,,,20.379124199971557,20.379124199971557,space,68.12506919982843,,,,,,,,,,,,,,,,,,,,,,,,,,,,,,,,,,,,,,,,,,,,,,,,,,,,,,,,,,,,,,,,,,,,,,,108,f,23,2022-11-25_15h14.30.650,RL,2022.2.4,60.31293972873755,
,,,,,,,,,88.54572329996154,88.54572329996154,space,11.655153200030327,,,,,,,,,,,,,,,,,,,,,,,,,,,,,,,,,,,,,,,,,,,,,,,,,,,,,,,,,,,,,,,,,,,108,f,23,2022-11-25_15h14.30.650,RL,2022.2.4,60.31293972873755,
1,0,0,0,0,,,,,,,,,100.21839959989302,None,101.23341750004329,101.23341750004329,101.23341750004329,101.23341750004329,101.23341750004329,101.23341750004329,i,0.5615021998528391,101.87994909984991,101.87994909984991,101.87994909984991,101.87994909984991,101.87994909984991,101.87994909984991,102.11490829987451,102.11490829987451,103.84308200003579,103.84308200003579,103.89601100003347,103.89601100003347,103.89601100003347,103.89601100003347,103.89601100003347,103.89601100003347,103.89601100003347,103.89601100003347,103.89601100003347,103.89601100003347,103.89601100003347,103.89601100003347,103.89601100003347,103.89601100003347,103.89601100003347,106.4020382000599,106.4020382000599,106.4020382000599,106.4020382000599,106.4020382000599,27,58,63,42,63,49,5.0,1.7300704999361187,108.21322959987447,110.20925389998592,,,,,,,,,,,,,,,,,108,f,23,2022-11-25_15h14.30.650,RL,2022.2.4,60.31293972873755,
1,1,0,1,0,,,,,,,,,,None,110.20925389998592,110.20925389998592,110.20925389998592,110.20925389998592,110.20925389998592,110.20925389998592,f,0.4458083000499755,110.67469869996421,110.67469869996421,110.67469869996421,110.67469869996421,110.67469869996421,110.67469869996421,110.97336820000783,110.97336820000783,111.87080839998089,111.87080839998089,111.87080839998089,111.87080839998089,111.87080839998089,111.87080839998089,111.87080839998089,111.87080839998089,111.87080839998089,111.87080839998089,111.87080839998089,111.87080839998089,111.87080839998089,111.87080839998089,111.87080839998089,111.87080839998089,111.87080839998089,114.38018069998361,114.38018069998361,114.38018069998361,114.38018069998361,114.38018069998361,25,64,59,45,64,54,5.0,2.2928861000109464,116.6912016000133,118.48575380002148,,,,,,,,,,,,,,,,,108,f,23,2022-11-25_15h14.30.650,RL,2022.2.4,60.31293972873755,
1,2,0,2,0,,,,,,,,,,None,118.48575380002148,118.48575380002148,118.48575380002148,118.48575380002148,118.48575380002148,118.48575380002148,i,0.5574039001949131,119.06858620001003,119.06858620001003,119.06858620001003,119.06858620001003,119.06858620001003,119.06858620001003,119.36710939998738,119.36710939998738,120.38180019985884,120.38180019985884,120.38180019985884,120.38180019985884,120.38180019985884,120.38180019985884,120.38180019985884,120.38180019985884,120.38180019985884,120.38180019985884,120.38180019985884,120.38180019985884,120.38180019985884,120.38180019985884,120.38180019985884,120.38180019985884,120.38180019985884,122.89008549996652,122.89008549996652,122.89008549996652,122.89008549996652,122.89008549996652,34,56,46,40,46,28,4.0,1.4621443999931216,124.36915969988331,126.36426079994999,,,,,,,,,,,,,,,,,108,f,23,2022-11-25_15h14.30.650,RL,2022.2.4,60.31293972873755,
1,3,0,3,0,,,,,,,,,,None,126.36426079994999,126.36426079994999,126.36426079994999,126.36426079994999,126.36426079994999,126.36426079994999,f,0.3570743999443948,126.74810540000908,126.74810540000908,126.74810540000908,126.74810540000908,126.74810540000908,126.74810540000908,127.04684119997546,127.04684119997546,129.057195100002,129.057195100002,129.057195100002,129.057195100002,129.057195100002,129.057195100002,129.057195100002,129.057195100002,129.057195100002,129.057195100002,129.057195100002,129.057195100002,129.057195100002,129.057195100002,129.057195100002,129.057195100002,129.057195100002,131.5667202998884,131.5667202998884,131.5667202998884,131.5667202998884,131.5667202998884,19,56,52,33,56,50,4.0,2.342141200089827,133.92660829983652,135.70553869986907,,,,,,,,,,,,,,,,,108,f,23,2022-11-25_15h14.30.650,RL,2022.2.4,60.31293972873755,
1,4,0,4,0,,,,,,,,,,None,135.70553869986907,135.70553869986907,135.70553869986907,135.70553869986907,135.70553869986907,135.70553869986907,i,0.42985510011203587,136.15486539993435,136.15486539993435,136.15486539993435,136.15486539993435,136.15486539993435,136.15486539993435,136.4539334999863,136.4539334999863,138.46478479984216,138.46478479984216,138.46478479984216,138.46478479984216,138.46478479984216,138.46478479984216,138.46478479984216,138.46478479984216,138.46478479984216,138.46478479984216,138.46478479984216,138.46478479984216,138.46478479984216,138.46478479984216,138.46478479984216,138.46478479984216,138.46478479984216,140.97410989995115,140.97410989995115,140.97410989995115,140.97410989995115,140.97410989995115,27,65,48,40,48,66,4.0,1.5779066001996398,142.5696979998611,144.3487112999428,,,,,,,,,,,,,,,,,108,f,23,2022-11-25_15h14.30.650,RL,2022.2.4,60.31293972873755,
1,5,0,5,0,,,,,,,,,,None,144.3487112999428,144.3487112999428,144.3487112999428,144.3487112999428,144.3487112999428,144.3487112999428,f,0.37561669992282987,144.74873879994266,144.74873879994266,144.74873879994266,144.74873879994266,144.74873879994266,144.74873879994266,145.04708469985053,145.04708469985053,146.2770483000204,146.2770483000204,146.2770483000204,146.2770483000204,146.2770483000204,146.2770483000204,146.2770483000204,146.2770483000204,146.2770483000204,146.2770483000204,146.2770483000204,146.2770483000204,146.2770483000204,146.2770483000204,146.2770483000204,146.2770483000204,146.2770483000204,148.78634519991465,148.78634519991465,148.78634519991465,148.78634519991465,148.78634519991465,20,66,54,41,66,60,5.0,1.6951518999412656,150.49809510004707,152.29374139988795,,,,,,,,,,,,,,,,,108,f,23,2022-11-25_15h14.30.650,RL,2022.2.4,60.31293972873755,
1,6,0,6,0,,,,,,,,,,None,152.29374139988795,152.29374139988795,152.29374139988795,152.29374139988795,152.29374139988795,152.29374139988795,i,0.424806599970907,152.75060749985278,152.75060749985278,152.75060749985278,152.75060749985278,152.75060749985278,152.75060749985278,153.0418318999,153.0418318999,155.0031240999233,155.0031240999233,155.0031240999233,155.0031240999233,155.0031240999233,155.0031240999233,155.0031240999233,155.0031240999233,155.0031240999233,155.0031240999233,155.0031240999233,155.0031240999233,155.0031240999233,155.0031240999233,155.0031240999233,155.0031240999233,155.0031240999233,157.51251129992306,157.51251129992306,157.51251129992306,157.51251129992306,157.51251129992306,23,66,53,32,53,74,3.0,0.8294852001126856,158.35978799988516,160.2555734999478,,,,,,,,,,,,,,,,,108,f,23,2022-11-25_15h14.30.650,RL,2022.2.4,60.31293972873755,
1,7,0,7,0,,,,,,,,,,None,160.2555734999478,160.2555734999478,160.2555734999478,160.2555734999478,160.2555734999478,160.2555734999478,i,0.49301060009747744,160.77110580005683,160.77110580005683,160.77110580005683,160.77110580005683,160.77110580005683,160.77110580005683,161.07014620001428,161.07014620001428,162.33318059984595,162.33318059984595,162.33318059984595,162.33318059984595,162.33318059984595,162.33318059984595,162.33318059984595,162.33318059984595,162.33318059984595,162.33318059984595,162.33318059984595,162.33318059984595,162.33318059984595,162.33318059984595,162.33318059984595,162.33318059984595,162.33318059984595,164.84227139991708,164.84227139991708,164.84227139991708,164.84227139991708,164.84227139991708,28,63,58,43,58,48,4.0,1.7277148999273777,166.58763529988937,168.26666249986738,,,,,,,,,,,,,,,,,108,f,23,2022-11-25_15h14.30.650,RL,2022.2.4,60.31293972873755,
1,8,0,8,0,,,,,,,,,,None,168.26666249986738,168.26666249986738,168.26666249986738,168.26666249986738,168.26666249986738,168.26666249986738,i,0.4853665998671204,168.78434549993835,168.78434549993835,168.78434549993835,168.78434549993835,168.78434549993835,168.78434549993835,169.08176860003732,169.08176860003732,170.52746549993753,170.52746549993753,170.52746549993753,170.52746549993753,170.52746549993753,170.52746549993753,170.52746549993753,170.52746549993753,170.52746549993753,170.52746549993753,170.52746549993753,170.52746549993753,170.52746549993753,170.52746549993753,170.52746549993753,170.52746549993753,170.52746549993753,173.03643249999732,173.03643249999732,173.03643249999732,173.03643249999732,173.03643249999732,20,63,58,32,58,47,4.0,2.0255422999616712,175.08091939985752,176.61083629983477,,,,,,,,,,,,,,,,,108,f,23,2022-11-25_15h14.30.650,RL,2022.2.4,60.31293972873755,
1,9,0,9,0,,,,,,,,,,None,176.61083629983477,176.61083629983477,176.61083629983477,176.61083629983477,176.61083629983477,176.61083629983477,f,0.449773000087589,177.09767169994302,177.09767169994302,177.09767169994302,177.09767169994302,177.09767169994302,177.09767169994302,177.392857800005,177.392857800005,178.25634650001302,178.25634650001302,178.25634650001302,178.25634650001302,178.25634650001302,178.25634650001302,178.25634650001302,178.25634650001302,178.25634650001302,178.25634650001302,178.25634650001302,178.25634650001302,178.25634650001302,178.25634650001302,178.25634650001302,178.25634650001302,178.25634650001302,180.76540749985725,180.76540749985725,180.76540749985725,180.76540749985725,180.76540749985725,10,62,59,34,62,69,3.0,1.0116902000736445,181.7959059998393,183.6080898998771,,,,,,,,,,,,,,,,,108,f,23,2022-11-25_15h14.30.650,RL,2022.2.4,60.31293972873755,
1,10,0,10,0,,,,,,,,,,None,183.6080898998771,183.6080898998771,183.6080898998771,183.6080898998771,183.6080898998771,183.6080898998771,i,0.6937476000748575,184.32344680000097,184.32344680000097,184.32344680000097,184.32344680000097,184.32344680000097,184.32344680000097,184.62279969989322,184.62279969989322,186.06840249989182,186.06840249989182,186.06840249989182,186.06840249989182,186.06840249989182,186.06840249989182,186.06840249989182,186.06840249989182,186.06840249989182,186.06840249989182,186.06840249989182,186.06840249989182,186.06840249989182,186.06840249989182,186.06840249989182,186.06840249989182,186.06840249989182,188.5775370998308,188.5775370998308,188.5775370998308,188.5775370998308,188.5775370998308,20,62,61,45,61,64,4.0,0.8307483999524266,189.4255806999281,191.13770179986022,,,,,,,,,,,,,,,,,108,f,23,2022-11-25_15h14.30.650,RL,2022.2.4,60.31293972873755,
1,11,0,11,0,,,,,,,,,,None,191.13770179986022,191.13770179986022,191.13770179986022,191.13770179986022,191.13770179986022,191.13770179986022,r,0.3679924998432398,191.53719850000925,191.53719850000925,191.53719850000925,191.53719850000925,191.53719850000925,191.53719850000925,191.8365354000125,191.8365354000125,193.28209750005044,193.28209750005044,193.28209750005044,193.28209750005044,193.28209750005044,193.28209750005044,193.28209750005044,193.28209750005044,193.28209750005044,193.28209750005044,193.28209750005044,193.28209750005044,193.28209750005044,193.28209750005044,193.28209750005044,193.28209750005044,193.28209750005044,195.79132890002802,195.79132890002802,195.79132890002802,195.79132890002802,195.79132890002802,15,63,60,24,15,67,2.0,1.6282827001996338,197.43717569997534,199.3487877000589,,,,,,,,,,,,,,,,,108,f,23,2022-11-25_15h14.30.650,RL,2022.2.4,60.31293972873755,
1,12,0,12,0,,,,,,,,,,None,199.3487877000589,199.3487877000589,199.3487877000589,199.3487877000589,199.3487877000589,199.3487877000589,f,0.47646220005117357,199.85726239997894,199.85726239997894,199.85726239997894,199.85726239997894,199.85726239997894,199.85726239997894,200.14676019991748,200.14676019991748,201.32728149998002,201.32728149998002,201.32728149998002,201.32728149998002,201.32728149998002,201.32728149998002,201.32728149998002,201.32728149998002,201.32728149998002,201.32728149998002,201.32728149998002,201.32728149998002,201.32728149998002,201.32728149998002,201.32728149998002,201.32728149998002,201.32728149998002,203.8359111000318,203.8359111000318,203.8359111000318,203.8359111000318,203.8359111000318,17,58,66,36,58,76,2.0,0.9635116998106241,204.81672589993104,206.67882709996775,,,,,,,,,,,,,,,,,108,f,23,2022-11-25_15h14.30.650,RL,2022.2.4,60.31293972873755,
1,13,0,13,0,,,,,,,,,,None,206.67882709996775,206.67882709996775,206.67882709996775,206.67882709996775,206.67882709996775,206.67882709996775,f,0.7808673998806626,207.47732930001803,207.47732930001803,207.47732930001803,207.47732930001803,207.47732930001803,207.47732930001803,207.77642739983276,207.77642739983276,208.60711520002224,208.60711520002224,208.60711520002224,208.60711520002224,208.60711520002224,208.60711520002224,208.60711520002224,208.60711520002224,208.60711520002224,208.60711520002224,208.60711520002224,208.60711520002224,208.60711520002224,208.60711520002224,208.60711520002224,208.60711520002224,208.60711520002224,211.11627989984117,211.11627989984117,211.11627989984117,211.11627989984117,211.11627989984117,12,59,66,27,59,72,3.0,0.8641276999842376,211.99678349983878,213.99221139983274,,,,,,,,,,,,,,,,,108,f,23,2022-11-25_15h14.30.650,RL,2022.2.4,60.31293972873755,
1,14,0,14,0,,,,,,,,,,None,213.99221139983274,213.99221139983274,213.99221139983274,213.99221139983274,213.99221139983274,213.99221139983274,i,0.4475781999062747,214.47977759991772,214.47977759991772,214.47977759991772,214.47977759991772,214.47977759991772,214.47977759991772,214.7569816999603,214.7569816999603,216.61849719984457,216.61849719984457,216.65167369996198,216.65167369996198,216.65167369996198,216.65167369996198,216.65167369996198,216.65167369996198,216.65167369996198,216.65167369996198,216.65167369996198,216.65167369996198,216.65167369996198,216.65167369996198,216.65167369996198,216.65167369996198,216.65167369996198,219.16065329988487,219.16065329988487,219.16065329988487,219.16065329988487,219.16065329988487,19,63,66,41,66,79,3.0,0.8962048999965191,220.07548889983445,221.70423679985106,,,,,,,,,,,,,,,,,108,f,23,2022-11-25_15h14.30.650,RL,2022.2.4,60.31293972873755,
1,15,0,15,0,,,,,,,,,,None,221.70423679985106,221.70423679985106,221.70423679985106,221.70423679985106,221.70423679985106,221.70423679985106,j,0.5448970999568701,222.27340790000744,222.27340790000744,222.27340790000744,222.27340790000744,222.27340790000744,222.27340790000744,222.56874429993331,222.56874429993331,223.4995952998288,223.4995952998288,223.4995952998288,223.4995952998288,223.4995952998288,223.4995952998288,223.4995952998288,223.4995952998288,223.4995952998288,223.4995952998288,223.4995952998288,223.4995952998288,223.4995952998288,223.4995952998288,223.4995952998288,223.4995952998288,223.4995952998288,226.00881699984893,226.00881699984893,226.00881699984893,226.00881699984893,226.00881699984893,6,60,65,31,31,71,3.0,1.3794758000876755,227.40481989993714,229.01826589996926,,,,,,,,,,,,,,,,,108,f,23,2022-11-25_15h14.30.650,RL,2022.2.4,60.31293972873755,
1,16,0,16,0,,,,,,,,,,None,229.01826589996926,229.01826589996926,229.01826589996926,229.01826589996926,229.01826589996926,229.01826589996926,f,0.3162520998157561,229.37517729983665,229.37517729983665,229.37517729983665,229.37517729983665,229.37517729983665,229.37517729983665,229.6662178998813,229.6662178998813,231.2948586998973,231.2948586998973,231.31162359984592,231.31162359984592,231.31162359984592,231.31162359984592,231.31162359984592,231.31162359984592,231.31162359984592,231.31162359984592,231.31162359984592,231.31162359984592,231.31162359984592,231.31162359984592,231.31162359984592,231.31162359984592,231.31162359984592,233.8210046000313,233.8210046000313,233.8210046000313,233.8210046000313,233.8210046000313,6,61,59,40,61,75,3.0,1.2632033000700176,235.10043770004995,237.02913919999264,,,,,,,,,,,,,,,,,108,f,23,2022-11-25_15h14.30.650,RL,2022.2.4,60.31293972873755,
1,17,0,17,0,,,,,,,,,,None,237.02913919999264,237.02913919999264,237.02913919999264,237.02913919999264,237.02913919999264,237.02913919999264,i,0.28936839988455176,237.35120250005275,237.35120250005275,237.35120250005275,237.35120250005275,237.35120250005275,237.35120250005275,237.64551639999263,237.64551639999263,238.82429589983076,238.82429589983076,238.8415204999037,238.8415204999037,238.8415204999037,238.8415204999037,238.8415204999037,238.8415204999037,238.8415204999037,238.8415204999037,238.8415204999037,238.8415204999037,238.8415204999037,238.8415204999037,238.8415204999037,238.8415204999037,238.8415204999037,241.35022889985703,241.35022889985703,241.35022889985703,241.35022889985703,241.35022889985703,10,66,54,35,54,55,4.0,0.6794080000836402,242.04840129986405,243.67785590002313,,,,,,,,,,,,,,,,,108,f,23,2022-11-25_15h14.30.650,RL,2022.2.4,60.31293972873755,
1,18,0,18,0,,,,,,,,,,None,243.67785590002313,243.67785590002313,243.67785590002313,243.67785590002313,243.67785590002313,243.67785590002313,f,0.8554378999397159,244.56079799984582,244.56079799984582,244.56079799984582,244.56079799984582,244.56079799984582,244.56079799984582,244.85832110000774,244.85832110000774,246.40375810000114,246.40375810000114,246.4203101999592,246.4203101999592,246.4203101999592,246.4203101999592,246.4203101999592,246.4203101999592,246.4203101999592,246.4203101999592,246.4203101999592,246.4203101999592,246.4203101999592,246.4203101999592,246.4203101999592,246.4203101999592,246.4203101999592,248.92968079983257,248.92968079983257,248.92968079983257,248.92968079983257,248.92968079983257,9,61,62,41,61,55,3.0,0.9310443999711424,249.87713429983705,251.5562726999633,,,,,,,,,,,,,,,,,108,f,23,2022-11-25_15h14.30.650,RL,2022.2.4,60.31293972873755,
1,19,0,19,0,,,,,,,,,,None,251.5562726999633,251.5562726999633,251.5562726999633,251.5562726999633,251.5562726999633,251.5562726999633,f,0.38309000013396144,251.97596229985356,251.97596229985356,251.97596229985356,251.97596229985356,251.97596229985356,251.97596229985356,252.27167879999615,252.27167879999615,254.16659499984235,254.16659499984235,254.16659499984235,254.16659499984235,254.16659499984235,254.16659499984235,254.16659499984235,254.16659499984235,254.16659499984235,254.16659499984235,254.16659499984235,254.16659499984235,254.16659499984235,254.16659499984235,254.16659499984235,254.16659499984235,254.16659499984235,256.67511049984023,256.67511049984023,256.67511049984023,256.67511049984023,256.67511049984023,21,63,53,42,63,74,4.0,1.595098900143057,258.2870481000282,260.0331228999421,,,,,,,,,,,,,,,,,108,f,23,2022-11-25_15h14.30.650,RL,2022.2.4,60.31293972873755,
1,20,0,20,0,,,,,,,,,,None,260.0331228999421,260.0331228999421,260.0331228999421,260.0331228999421,260.0331228999421,260.0331228999421,j,0.3447608998976648,260.39937500003725,260.39937500003725,260.39937500003725,260.39937500003725,260.39937500003725,260.39937500003725,260.69870419986546,260.69870419986546,261.97841280000284,261.97841280000284,261.97841280000284,261.97841280000284,261.97841280000284,261.97841280000284,261.97841280000284,261.97841280000284,261.97841280000284,261.97841280000284,261.97841280000284,261.97841280000284,261.97841280000284,261.97841280000284,261.97841280000284,261.97841280000284,261.97841280000284,264.48737220000476,264.48737220000476,264.48737220000476,264.48737220000476,264.48737220000476,27,60,56,35,35,40,4.0,1.8442220999859273,266.34854609984905,268.27784079988487,,,,,,,,,,,,,,,,,108,f,23,2022-11-25_15h14.30.650,RL,2022.2.4,60.31293972873755,
1,21,0,21,0,,,,,,,,,,None,268.27784079988487,268.27784079988487,268.27784079988487,268.27784079988487,268.27784079988487,268.27784079988487,i,0.39884859998710454,268.7098685000092,268.7098685000092,268.7098685000092,268.7098685000092,268.7098685000092,268.7098685000092,269.00887000001967,269.00887000001967,270.13901769998483,270.13901769998483,270.156309499871,270.156309499871,270.156309499871,270.156309499871,270.156309499871,270.156309499871,270.156309499871,270.156309499871,270.156309499871,270.156309499871,270.156309499871,270.156309499871,270.156309499871,270.156309499871,270.156309499871,272.6647948999889,272.6647948999889,272.6647948999889,272.6647948999889,272.6647948999889,18,61,50,38,50,67,4.0,1.0640874998643994,273.74499479983933,275.27468799985945,,,,,,,,,,,,,,,,,108,f,23,2022-11-25_15h14.30.650,RL,2022.2.4,60.31293972873755,
1,22,0,22,0,,,,,,,,,,None,275.27468799985945,275.27468799985945,275.27468799985945,275.27468799985945,275.27468799985945,275.27468799985945,r,0.3265982000157237,275.62491400004365,275.62491400004365,275.62491400004365,275.62491400004365,275.62491400004365,275.62491400004365,275.9234754999634,275.9234754999634,277.8015385000035,277.8015385000035,277.8015385000035,277.8015385000035,277.8015385000035,277.8015385000035,277.8015385000035,277.8015385000035,277.8015385000035,277.8015385000035,277.8015385000035,277.8015385000035,277.8015385000035,277.8015385000035,277.8015385000035,277.8015385000035,277.8015385000035,280.31074879993685,280.31074879993685,280.31074879993685,280.31074879993685,280.31074879993685,20,60,61,45,20,45,3.0,0.9793930999003351,281.307942799991,283.1532916999422,,,,,,,,,,,,,,,,,108,f,23,2022-11-25_15h14.30.650,RL,2022.2.4,60.31293972873755,
1,23,0,23,0,,,,,,,,,,None,283.1532916999422,283.1532916999422,283.1532916999422,283.1532916999422,283.1532916999422,283.1532916999422,f,0.28774880012497306,283.47589219990186,283.47589219990186,283.47589219990186,283.47589219990186,283.47589219990186,283.47589219990186,283.76921459985897,283.76921459985897,285.015468099853,285.015468099853,285.015468099853,285.015468099853,285.015468099853,285.015468099853,285.015468099853,285.015468099853,285.015468099853,285.015468099853,285.015468099853,285.015468099853,285.015468099853,285.015468099853,285.015468099853,285.015468099853,285.015468099853,287.52420779992826,287.52420779992826,287.52420779992826,287.52420779992826,287.52420779992826,14,67,51,40,67,47,5.0,1.7125164999160916,289.2526727998629,290.81607099995017,,,,,,,,,,,,,,,,,108,f,23,2022-11-25_15h14.30.650,RL,2022.2.4,60.31293972873755,
1,24,0,24,0,,,,,,,,,,None,290.81607099995017,290.81607099995017,290.81607099995017,290.81607099995017,290.81607099995017,290.81607099995017,i,0.4183004000224173,291.26551229995675,291.26551229995675,291.26551229995675,291.26551229995675,291.26551229995675,291.26551229995675,291.5641284000594,291.5641284000594,292.6774212999735,292.6774212999735,292.6774212999735,292.6774212999735,292.6774212999735,292.6774212999735,292.6774212999735,292.6774212999735,292.6774212999735,292.6774212999735,292.6774212999735,292.6774212999735,292.6774212999735,292.6774212999735,292.6774212999735,292.6774212999735,292.6774212999735,295.18661629990675,295.18661629990675,295.18661629990675,295.18661629990675,295.18661629990675,14,61,48,34,48,70,4.0,0.9133903000038117,296.1177296000533,297.8133389998693,,,,,,,,,,,,,,,,,108,f,23,2022-11-25_15h14.30.650,RL,2022.2.4,60.31293972873755,
1,25,0,25,0,,,,,,,,,,None,297.8133389998693,297.8133389998693,297.8133389998693,297.8133389998693,297.8133389998693,297.8133389998693,j,0.8809883000794798,298.7285615999717,298.7285615999717,298.7285615999717,298.7285615999717,298.7285615999717,298.7285615999717,299.0268619998824,299.0268619998824,300.22389769996516,300.22389769996516,300.22389769996516,300.22389769996516,300.22389769996516,300.22389769996516,300.22389769996516,300.22389769996516,300.22389769996516,300.22389769996516,300.22389769996516,300.22389769996516,300.22389769996516,300.22389769996516,300.22389769996516,300.22389769996516,300.22389769996516,302.732735699974,302.732735699974,302.732735699974,302.732735699974,302.732735699974,25,68,59,30,30,68,4.0,1.2632297000382096,304.0123370999936,305.9577265998814,,,,,,,,,,,,,,,,,108,f,23,2022-11-25_15h14.30.650,RL,2022.2.4,60.31293972873755,
1,26,0,26,0,,,,,,,,,,None,305.9577265998814,305.9577265998814,305.9577265998814,305.9577265998814,305.9577265998814,305.9577265998814,f,0.30584569997154176,306.2942723999731,306.2942723999731,306.2942723999731,306.2942723999731,306.2942723999731,306.2942723999731,306.5899230998475,306.5899230998475,307.81999389990233,307.81999389990233,307.81999389990233,307.81999389990233,307.81999389990233,307.81999389990233,307.81999389990233,307.81999389990233,307.81999389990233,307.81999389990233,307.81999389990233,307.81999389990233,307.81999389990233,307.81999389990233,307.81999389990233,307.81999389990233,307.81999389990233,310.3286071999464,310.3286071999464,310.3286071999464,310.3286071999464,310.3286071999464,16,58,58,23,58,52,4.0,1.2141256001777947,311.55882030003704,313.221846899949,,,,,,,,,,,,,,,,,108,f,23,2022-11-25_15h14.30.650,RL,2022.2.4,60.31293972873755,
1,27,0,27,0,,,,,,,,,,None,313.221846899949,313.221846899949,313.221846899949,313.221846899949,313.221846899949,313.221846899949,f,0.30157870007678866,313.5639925999567,313.5639925999567,313.5639925999567,313.5639925999567,313.5639925999567,313.5639925999567,313.85342990001664,313.85342990001664,314.8836858998984,314.8836858998984,314.9003526000306,314.9003526000306,314.9003526000306,314.9003526000306,314.9003526000306,314.9003526000306,314.9003526000306,314.9003526000306,314.9003526000306,314.9003526000306,314.9003526000306,314.9003526000306,314.9003526000306,314.9003526000306,314.9003526000306,317.4094135998748,317.4094135998748,317.4094135998748,317.4094135998748,317.4094135998748,20,53,55,39,53,57,4.0,1.029350999975577,318.45632070000283,320.3850389998406,,,,,,,,,,,,,,,,,108,f,23,2022-11-25_15h14.30.650,RL,2022.2.4,60.31293972873755,
1,28,0,28,0,,,,,,,,,,None,320.3850389998406,320.3850389998406,320.3850389998406,320.3850389998406,320.3850389998406,320.3850389998406,i,0.45863549993373454,320.86777290003374,320.86777290003374,320.86777290003374,320.86777290003374,320.86777290003374,320.86777290003374,321.16642789985053,321.16642789985053,322.3809390999377,322.3809390999377,322.3809390999377,322.3809390999377,322.3809390999377,322.3809390999377,322.3809390999377,322.3809390999377,322.3809390999377,322.3809390999377,322.3809390999377,322.3809390999377,322.3809390999377,322.3809390999377,322.3809390999377,322.3809390999377,322.3809390999377,324.88919509993866,324.88919509993866,324.88919509993866,324.88919509993866,324.88919509993866,18,60,53,37,53,51,4.0,1.1296153999865055,326.03553689992987,327.78273859992623,,,,,,,,,,,,,,,,,108,f,23,2022-11-25_15h14.30.650,RL,2022.2.4,60.31293972873755,
1,29,0,29,0,,,,,,,,,,None,327.78273859992623,327.78273859992623,327.78273859992623,327.78273859992623,327.78273859992623,327.78273859992623,i,0.3888338999822736,328.20079939998686,328.20079939998686,328.20079939998686,328.20079939998686,328.20079939998686,328.20079939998686,328.4965021999087,328.4965021999087,330.12545960000716,330.12545960000716,330.12545960000716,330.12545960000716,330.12545960000716,330.12545960000716,330.12545960000716,330.12545960000716,330.12545960000716,330.12545960000716,330.12545960000716,330.12545960000716,330.12545960000716,330.12545960000716,330.12545960000716,330.12545960000716,330.12545960000716,332.6343721000012,332.6343721000012,332.6343721000012,332.6343721000012,332.6343721000012,23,60,48,33,48,56,4.0,1.64595519984141,334.2964280999731,335.8261979999952,,,,,,,,,,,,,,,,,108,f,23,2022-11-25_15h14.30.650,RL,2022.2.4,60.31293972873755,
1,30,0,30,0,,,,,,,,,,None,335.8261979999952,335.8261979999952,335.8261979999952,335.8261979999952,335.8261979999952,335.8261979999952,f,0.4144072998315096,336.2597230998799,336.2597230998799,336.2597230998799,336.2597230998799,336.2597230998799,336.2597230998799,336.55849989992566,336.55849989992566,337.5219176998362,337.5219176998362,337.5219176998362,337.5219176998362,337.5219176998362,337.5219176998362,337.5219176998362,337.5219176998362,337.5219176998362,337.5219176998362,337.5219176998362,337.5219176998362,337.5219176998362,337.5219176998362,337.5219176998362,337.5219176998362,337.5219176998362,340.0310592998285,340.0310592998285,340.0310592998285,340.0310592998285,340.0310592998285,15,63,48,26,63,60,5.0,1.093398299999535,341.14436189993285,342.65783659997396,,,,,,,,,,,,,,,,,108,f,23,2022-11-25_15h14.30.650,RL,2022.2.4,60.31293972873755,
1,31,0,31,0,,,,,,,,,,None,342.65783659997396,342.65783659997396,342.65783659997396,342.65783659997396,342.65783659997396,342.65783659997396,f,0.29309099982492626,342.97410449991,342.97410449991,342.97410449991,342.97410449991,342.97410449991,342.97410449991,343.27289230003953,343.27289230003953,344.0881357998587,344.0881357998587,344.0881357998587,344.0881357998587,344.0881357998587,344.0881357998587,344.0881357998587,344.0881357998587,344.0881357998587,344.0881357998587,344.0881357998587,344.0881357998587,344.0881357998587,344.0881357998587,344.0881357998587,344.0881357998587,344.0881357998587,346.5967765999958,346.5967765999958,346.5967765999958,346.5967765999958,346.5967765999958,16,52,51,24,52,51,4.0,1.6433443001005799,348.25888479989953,350.103920500027,,,,,,,,,,,,,,,,,108,f,23,2022-11-25_15h14.30.650,RL,2022.2.4,60.31293972873755,
1,32,0,32,0,,,,,,,,,,None,350.103920500027,350.103920500027,350.103920500027,350.103920500027,350.103920500027,350.103920500027,i,0.3165078000165522,350.4562454998959,350.4562454998959,350.4562454998959,350.4562454998959,350.4562454998959,350.4562454998959,350.7640382000245,350.7640382000245,352.76361579983495,352.76361579983495,352.76361579983495,352.76361579983495,352.76361579983495,352.76361579983495,352.76361579983495,352.76361579983495,352.76361579983495,352.76361579983495,352.76361579983495,352.76361579983495,352.76361579983495,352.76361579983495,352.76361579983495,352.76361579983495,352.76361579983495,355.2725738999434,355.2725738999434,355.2725738999434,355.2725738999434,355.2725738999434,24,47,48,35,48,64,4.0,0.11500350013375282,355.40545709989965,357.18500309996307,,,,,,,,,,,,,,,,,108,f,23,2022-11-25_15h14.30.650,RL,2022.2.4,60.31293972873755,
1,33,0,33,0,,,,,,,,,,None,357.18500309996307,357.18500309996307,357.18500309996307,357.18500309996307,357.18500309996307,357.18500309996307,i,0.2944919001311064,357.5019423000049,357.5019423000049,357.5019423000049,357.5019423000049,357.5019423000049,357.5019423000049,357.80038749985397,357.80038749985397,359.6946880000178,359.6946880000178,359.6946880000178,359.6946880000178,359.6946880000178,359.6946880000178,359.6946880000178,359.6946880000178,359.6946880000178,359.6946880000178,359.6946880000178,359.6946880000178,359.6946880000178,359.6946880000178,359.6946880000178,359.6946880000178,359.6946880000178,362.2038002999034,362.2038002999034,362.2038002999034,362.2038002999034,362.2038002999034,26,47,46,45,46,66,3.0,1.7943301000632346,364.01538089988753,365.9278398999013,,,,,,,,,,,,,,,,,108,f,23,2022-11-25_15h14.30.650,RL,2022.2.4,60.31293972873755,
1,34,0,34,0,,,,,,,,,,None,365.9278398999013,365.9278398999013,365.9278398999013,365.9278398999013,365.9278398999013,365.9278398999013,i,0.2794961000327021,366.23501049983315,366.23501049983315,366.23501049983315,366.23501049983315,366.23501049983315,366.23501049983315,366.51002229982987,366.51002229982987,367.40725339995697,367.40725339995697,367.44030649983324,367.44030649983324,367.44030649983324,367.44030649983324,367.44030649983324,367.44030649983324,367.44030649983324,367.44030649983324,367.44030649983324,367.44030649983324,367.44030649983324,367.44030649983324,367.44030649983324,367.44030649983324,367.44030649983324,369.94939840002917,369.94939840002917,369.94939840002917,369.94939840002917,369.94939840002917,31,43,45,29,45,59,3.0,2.060625300044194,372.0267709000036,374.02196309994906,,,,,,,,,,,,,,,,,108,f,23,2022-11-25_15h14.30.650,RL,2022.2.4,60.31293972873755,
1,35,0,35,0,,,,,,,,,,None,374.02196309994906,374.02196309994906,374.02196309994906,374.02196309994906,374.02196309994906,374.02196309994906,i,0.4839747999794781,374.5490780000109,374.5490780000109,374.5490780000109,374.5490780000109,374.5490780000109,374.5490780000109,374.8371751999948,374.8371751999948,376.0005121000577,376.0005121000577,376.01716839987785,376.01716839987785,376.01716839987785,376.01716839987785,376.01716839987785,376.01716839987785,376.01716839987785,376.01716839987785,376.01716839987785,376.01716839987785,376.01716839987785,376.01716839987785,376.01716839987785,376.01716839987785,376.01716839987785,378.52604399994016,378.52604399994016,378.52604399994016,378.52604399994016,378.52604399994016,34,41,44,40,44,57,3.0,1.513279400067404,380.0549706998281,381.75133719993755,,,,,,,,,,,,,,,,,108,f,23,2022-11-25_15h14.30.650,RL,2022.2.4,60.31293972873755,
1,36,0,36,0,,,,,,,,,,None,381.75133719993755,381.75133719993755,381.75133719993755,381.75133719993755,381.75133719993755,381.75133719993755,i,0.6884258999489248,382.4727886999026,382.4727886999026,382.4727886999026,382.4727886999026,382.4727886999026,382.4727886999026,382.7653812998906,382.7653812998906,384.6600623000413,384.6600623000413,384.6600623000413,384.6600623000413,384.6600623000413,384.6600623000413,384.6600623000413,384.6600623000413,384.6600623000413,384.6600623000413,384.6600623000413,384.6600623000413,384.6600623000413,384.6600623000413,384.6600623000413,384.6600623000413,384.6600623000413,387.16912440001033,387.16912440001033,387.16912440001033,387.16912440001033,387.16912440001033,36,50,49,37,49,50,3.0,1.4627619001548737,388.6481310999952,390.5110656998586,,,,,,,,,,,,,,,,,108,f,23,2022-11-25_15h14.30.650,RL,2022.2.4,60.31293972873755,
1,37,0,37,0,,,,,,,,,,None,390.5110656998586,390.5110656998586,390.5110656998586,390.5110656998586,390.5110656998586,390.5110656998586,f,0.4122860999777913,390.9435999998823,390.9435999998823,390.9435999998823,390.9435999998823,390.9435999998823,390.9435999998823,391.24226029985584,391.24226029985584,392.40547909983434,392.40547909983434,392.40547909983434,392.40547909983434,392.40547909983434,392.40547909983434,392.40547909983434,392.40547909983434,392.40547909983434,392.40547909983434,392.40547909983434,392.40547909983434,392.40547909983434,392.40547909983434,392.40547909983434,392.40547909983434,392.40547909983434,394.9149070000276,394.9149070000276,394.9149070000276,394.9149070000276,394.9149070000276,31,50,48,35,50,63,4.0,1.4952453000005335,396.4272401998751,398.3228577999398,,,,,,,,,,,,,,,,,108,f,23,2022-11-25_15h14.30.650,RL,2022.2.4,60.31293972873755,
1,38,0,38,0,,,,,,,,,,None,398.3228577999398,398.3228577999398,398.3228577999398,398.3228577999398,398.3228577999398,398.3228577999398,j,0.6587573001161218,399.0044549999293,399.0044549999293,399.0044549999293,399.0044549999293,399.0044549999293,399.0044549999293,399.3033075998537,399.3033075998537,401.16489259991795,401.16489259991795,401.16489259991795,401.16489259991795,401.16489259991795,401.16489259991795,401.16489259991795,401.16489259991795,401.16489259991795,401.16489259991795,401.16489259991795,401.16489259991795,401.16489259991795,401.16489259991795,401.16489259991795,401.16489259991795,401.16489259991795,403.674075699877,403.674075699877,403.674075699877,403.674075699877,403.674075699877,27,51,58,30,30,55,4.0,1.212951400084421,404.903810699936,406.8163244999014,,,,,,,,,,,,,,,,,108,f,23,2022-11-25_15h14.30.650,RL,2022.2.4,60.31293972873755,
1,39,0,39,0,,,,,,,,,,None,406.8163244999014,406.8163244999014,406.8163244999014,406.8163244999014,406.8163244999014,406.8163244999014,i,0.5035437000915408,407.34907649992965,407.34907649992965,407.34907649992965,407.34907649992965,407.34907649992965,407.34907649992965,407.6473034999799,407.6473034999799,409.3426477999892,409.3426477999892,409.3426477999892,409.3426477999892,409.3426477999892,409.3426477999892,409.3426477999892,409.3426477999892,409.3426477999892,409.3426477999892,409.3426477999892,409.3426477999892,409.3426477999892,409.3426477999892,409.3426477999892,409.3426477999892,409.3426477999892,411.8520108999219,411.8520108999219,411.8520108999219,411.8520108999219,411.8520108999219,39,48,53,34,53,54,4.0,1.509234600001946,413.38079759990796,414.89411540003493,,,,,,,,,,,,,,,,,108,f,23,2022-11-25_15h14.30.650,RL,2022.2.4,60.31293972873755,
1,40,0,40,0,,,,,,,,,,None,414.89411540003493,414.89411540003493,414.89411540003493,414.89411540003493,414.89411540003493,414.89411540003493,f,0.8553581999149173,415.7756384999957,415.7756384999957,415.7756384999957,415.7756384999957,415.7756384999957,415.7756384999957,416.0743743998464,416.0743743998464,417.6876095999032,417.6876095999032,417.6876095999032,417.6876095999032,417.6876095999032,417.6876095999032,417.6876095999032,417.6876095999032,417.6876095999032,417.6876095999032,417.6876095999032,417.6876095999032,417.6876095999032,417.6876095999032,417.6876095999032,417.6876095999032,417.6876095999032,420.1959126999136,420.1959126999136,420.1959126999136,420.1959126999136,420.1959126999136,36,43,57,38,43,51,4.0,1.511404399992898,421.724770499859,423.63666679989547,,,,,,,,,,,,,,,,,108,f,23,2022-11-25_15h14.30.650,RL,2022.2.4,60.31293972873755,
1,41,0,41,0,,,,,,,,,,None,423.63666679989547,423.63666679989547,423.63666679989547,423.63666679989547,423.63666679989547,423.63666679989547,f,0.2953400001861155,423.95327050006017,423.95327050006017,423.95327050006017,423.95327050006017,423.95327050006017,423.95327050006017,424.252017499879,424.252017499879,425.6157519000117,425.6157519000117,425.6157519000117,425.6157519000117,425.6157519000117,425.6157519000117,425.6157519000117,425.6157519000117,425.6157519000117,425.6157519000117,425.6157519000117,425.6157519000117,425.6157519000117,425.6157519000117,425.6157519000117,425.6157519000117,425.6157519000117,428.12375849997625,428.12375849997625,428.12375849997625,428.12375849997625,428.12375849997625,48,47,52,40,47,60,4.0,1.3633238000329584,429.50367400003597,431.39918109984137,,,,,,,,,,,,,,,,,108,f,23,2022-11-25_15h14.30.650,RL,2022.2.4,60.31293972873755,
1,42,0,42,0,,,,,,,,,,None,431.39918109984137,431.39918109984137,431.39918109984137,431.39918109984137,431.39918109984137,431.39918109984137,f,0.398411100031808,431.82539179991,431.82539179991,431.82539179991,431.82539179991,431.82539179991,431.82539179991,432.11408749991097,432.11408749991097,433.24412829987705,433.24412829987705,433.2616546000354,433.2616546000354,433.2616546000354,433.2616546000354,433.2616546000354,433.2616546000354,433.2616546000354,433.2616546000354,433.2616546000354,433.2616546000354,433.2616546000354,433.2616546000354,433.2616546000354,433.2616546000354,433.2616546000354,435.7701197999995,435.7701197999995,435.7701197999995,435.7701197999995,435.7701197999995,48,54,47,35,54,64,4.0,1.1478274001274258,436.93318050005473,438.57954599987715,,,,,,,,,,,,,,,,,108,f,23,2022-11-25_15h14.30.650,RL,2022.2.4,60.31293972873755,
1,43,0,43,0,,,,,,,,,,None,438.57954599987715,438.57954599987715,438.57954599987715,438.57954599987715,438.57954599987715,438.57954599987715,r,0.7308592998888344,439.3466086999979,439.3466086999979,439.3466086999979,439.3466086999979,439.3466086999979,439.3466086999979,439.64257019991055,439.64257019991055,440.64059149986133,440.64059149986133,440.64059149986133,440.64059149986133,440.64059149986133,440.64059149986133,440.64059149986133,440.64059149986133,440.64059149986133,440.64059149986133,440.64059149986133,440.64059149986133,440.64059149986133,440.64059149986133,440.64059149986133,440.64059149986133,440.64059149986133,443.14989780006,443.14989780006,443.14989780006,443.14989780006,443.14989780006,38,50,61,40,38,70,2.0,1.6784461000934243,444.84555420000106,446.60766059998423,,,,,,,,,,,,,,,,,108,f,23,2022-11-25_15h14.30.650,RL,2022.2.4,60.31293972873755,
1,44,0,44,0,,,,,,,,,,None,446.60766059998423,446.60766059998423,446.60766059998423,446.60766059998423,446.60766059998423,446.60766059998423,f,0.4723227999638766,447.10841290000826,447.10841290000826,447.10841290000826,447.10841290000826,447.10841290000826,447.10841290000826,447.40581010002643,447.40581010002643,448.36949519999325,448.36949519999325,448.36949519999325,448.36949519999325,448.36949519999325,448.36949519999325,448.36949519999325,448.36949519999325,448.36949519999325,448.36949519999325,448.36949519999325,448.36949519999325,448.36949519999325,448.36949519999325,448.36949519999325,448.36949519999325,448.36949519999325,450.8785558999516,450.8785558999516,450.8785558999516,450.8785558999516,450.8785558999516,43,56,45,44,56,63,2.0,0.06372609990648925,450.9616033998318,452.8407558000181,,,,,,,,,,,,,,,,,108,f,23,2022-11-25_15h14.30.650,RL,2022.2.4,60.31293972873755,
1,45,0,45,0,,,,,,,,,,None,452.8407558000181,452.8407558000181,452.8407558000181,452.8407558000181,452.8407558000181,452.8407558000181,i,0.2746592001058161,453.1416865000501,453.1416865000501,453.1416865000501,453.1416865000501,453.1416865000501,453.1416865000501,453.43900460004807,453.43900460004807,454.9186680999119,454.9186680999119,454.9186680999119,454.9186680999119,454.9186680999119,454.9186680999119,454.9186680999119,454.9186680999119,454.9186680999119,454.9186680999119,454.9186680999119,454.9186680999119,454.9186680999119,454.9186680999119,454.9186680999119,454.9186680999119,454.9186680999119,457.4271787998732,457.4271787998732,457.4271787998732,457.4271787998732,457.4271787998732,42,45,51,45,51,65,3.0,1.1128668999299407,458.55743349995464,460.3366201999597,,,,,,,,,,,,,,,,,108,f,23,2022-11-25_15h14.30.650,RL,2022.2.4,60.31293972873755,
1,46,0,46,0,,,,,,,,,,None,460.3366201999597,460.3366201999597,460.3366201999597,460.3366201999597,460.3366201999597,460.3366201999597,i,0.32841319986619055,460.6865677998867,460.6865677998867,460.6865677998867,460.6865677998867,460.6865677998867,460.6865677998867,460.9852950000204,460.9852950000204,462.28142110002227,462.28142110002227,462.28142110002227,462.28142110002227,462.28142110002227,462.28142110002227,462.28142110002227,462.28142110002227,462.28142110002227,462.28142110002227,462.28142110002227,462.28142110002227,462.28142110002227,462.28142110002227,462.28142110002227,462.28142110002227,462.28142110002227,464.79097440000623,464.79097440000623,464.79097440000623,464.79097440000623,464.79097440000623,34,42,47,45,47,71,3.0,1.5780788001138717,466.3861420999747,468.1486196999904,,,,,,,,,,,,,,,,,108,f,23,2022-11-25_15h14.30.650,RL,2022.2.4,60.31293972873755,
1,47,0,47,0,,,,,,,,,,None,468.1486196999904,468.1486196999904,468.1486196999904,468.1486196999904,468.1486196999904,468.1486196999904,j,0.5456453999504447,468.7146286999341,468.7146286999341,468.7146286999341,468.7146286999341,468.7146286999341,468.7146286999341,469.0132516999729,469.0132516999729,470.2762537000235,470.2762537000235,470.2762537000235,470.2762537000235,470.2762537000235,470.2762537000235,470.2762537000235,470.2762537000235,470.2762537000235,470.2762537000235,470.2762537000235,470.2762537000235,470.2762537000235,470.2762537000235,470.2762537000235,470.2762537000235,470.2762537000235,472.7854778999463,472.7854778999463,472.7854778999463,472.7854778999463,472.7854778999463,41,49,46,44,44,73,3.0,1.162735999794677,473.96548889996484,475.84431409998797,,,,,,,,,,,,,,,,,108,f,23,2022-11-25_15h14.30.650,RL,2022.2.4,60.31293972873755,
1,48,0,48,0,,,,,,,,,,None,475.84431409998797,475.84431409998797,475.84431409998797,475.84431409998797,475.84431409998797,475.84431409998797,i,0.3396121000405401,476.21125019993633,476.21125019993633,476.21125019993633,476.21125019993633,476.21125019993633,476.21125019993633,476.5098268999718,476.5098268999718,478.3544485999737,478.3544485999737,478.3544485999737,478.3544485999737,478.3544485999737,478.3544485999737,478.3544485999737,478.3544485999737,478.3544485999737,478.3544485999737,478.3544485999737,478.3544485999737,478.3544485999737,478.3544485999737,478.3544485999737,478.3544485999737,478.3544485999737,480.8635448999703,480.8635448999703,480.8635448999703,480.8635448999703,480.8635448999703,44,51,53,44,53,21,4.0,1.479376900009811,482.35919369990006,484.27149069984443,,,,,,,,,,,,,,,,,108,f,23,2022-11-25_15h14.30.650,RL,2022.2.4,60.31293972873755,
1,49,0,49,0,,,,,,,,,,None,484.27149069984443,484.27149069984443,484.27149069984443,484.27149069984443,484.27149069984443,484.27149069984443,i,0.6492631998844445,484.95512139983475,484.95512139983475,484.95512139983475,484.95512139983475,484.95512139983475,484.95512139983475,485.25211640005,485.25211640005,486.2660433999263,486.2660433999263,486.282914099982,486.282914099982,486.282914099982,486.282914099982,486.282914099982,486.282914099982,486.282914099982,486.282914099982,486.282914099982,486.282914099982,486.282914099982,486.282914099982,486.282914099982,486.282914099982,486.282914099982,488.79186309990473,488.79186309990473,488.79186309990473,488.79186309990473,488.79186309990473,42,52,52,42,52,73,4.0,1.9433789001777768,490.75304770004004,492.59863899997436,,,,,,,,,,,,,,,,,108,f,23,2022-11-25_15h14.30.650,RL,2022.2.4,60.31293972873755,
1,50,0,50,0,,,,,,,,,,None,492.59863899997436,492.59863899997436,492.59863899997436,492.59863899997436,492.59863899997436,492.59863899997436,f,0.3366678000893444,492.9648183998652,492.9648183998652,492.9648183998652,492.9648183998652,492.9648183998652,492.9648183998652,493.2637449000031,493.2637449000031,494.99218609998934,494.99218609998934,494.99218609998934,494.99218609998934,494.99218609998934,494.99218609998934,494.99218609998934,494.99218609998934,494.99218609998934,494.99218609998934,494.99218609998934,494.99218609998934,494.99218609998934,494.99218609998934,494.99218609998934,494.99218609998934,494.99218609998934,497.5014388000127,497.5014388000127,497.5014388000127,497.5014388000127,497.5014388000127,39,43,61,40,43,73,4.0,1.2297587001230568,498.7480242999736,500.65990719990805,,,,,,,,,,,,,,,,,108,f,23,2022-11-25_15h14.30.650,RL,2022.2.4,60.31293972873755,
1,51,0,51,0,,,,,,,,,,None,500.65990719990805,500.65990719990805,500.65990719990805,500.65990719990805,500.65990719990805,500.65990719990805,r,0.41825290000997484,501.10925400000997,501.10925400000997,501.10925400000997,501.10925400000997,501.10925400000997,501.10925400000997,501.40861100004986,501.40861100004986,502.6215202000458,502.6215202000458,502.6215202000458,502.6215202000458,502.6215202000458,502.6215202000458,502.6215202000458,502.6215202000458,502.6215202000458,502.6215202000458,502.6215202000458,502.6215202000458,502.6215202000458,502.6215202000458,502.6215202000458,502.6215202000458,502.6215202000458,505.1307019998785,505.1307019998785,505.1307019998785,505.1307019998785,505.1307019998785,43,55,64,47,43,78,3.0,1.6112899000290781,506.7592958000023,508.7048177998513,,,,,,,,,,,,,,,,,108,f,23,2022-11-25_15h14.30.650,RL,2022.2.4,60.31293972873755,
1,52,0,52,0,,,,,,,,,,None,508.7048177998513,508.7048177998513,508.7048177998513,508.7048177998513,508.7048177998513,508.7048177998513,f,0.4080408001318574,509.14281619992107,509.14281619992107,509.14281619992107,509.14281619992107,509.14281619992107,509.14281619992107,509.4367654998787,509.4367654998787,511.09850790002383,511.09850790002383,511.116045899922,511.116045899922,511.116045899922,511.116045899922,511.116045899922,511.116045899922,511.116045899922,511.116045899922,511.116045899922,511.116045899922,511.116045899922,511.116045899922,511.116045899922,511.116045899922,511.116045899922,513.6244377999101,513.6244377999101,513.6244377999101,513.6244377999101,513.6244377999101,41,50,65,47,50,81,3.0,1.1456395001150668,514.7874626999255,516.7163764999714,,,,,,,,,,,,,,,,,108,f,23,2022-11-25_15h14.30.650,RL,2022.2.4,60.31293972873755,
1,53,0,53,0,,,,,,,,,,None,516.7163764999714,516.7163764999714,516.7163764999714,516.7163764999714,516.7163764999714,516.7163764999714,i,0.695326000219211,517.431704999879,517.431704999879,517.431704999879,517.431704999879,517.431704999879,517.431704999879,517.7304996999446,517.7304996999446,518.6611397999804,518.6611397999804,518.6611397999804,518.6611397999804,518.6611397999804,518.6611397999804,518.6611397999804,518.6611397999804,518.6611397999804,518.6611397999804,518.6611397999804,518.6611397999804,518.6611397999804,518.6611397999804,518.6611397999804,518.6611397999804,518.6611397999804,521.1704050998669,521.1704050998669,521.1704050998669,521.1704050998669,521.1704050998669,37,63,39,42,39,78,3.0,1.5623077999334782,522.7492032998707,524.6113449998666,,,,,,,,,,,,,,,,,108,f,23,2022-11-25_15h14.30.650,RL,2022.2.4,60.31293972873755,
1,54,0,54,0,,,,,,,,,,None,524.6113449998666,524.6113449998666,524.6113449998666,524.6113449998666,524.6113449998666,524.6113449998666,f,1.0903332000598311,525.7275787000544,525.7275787000544,525.7275787000544,525.7275787000544,525.7275787000544,525.7275787000544,526.0247756999452,526.0247756999452,527.4040375999175,527.4040375999175,527.4040375999175,527.4040375999175,527.4040375999175,527.4040375999175,527.4040375999175,527.4040375999175,527.4040375999175,527.4040375999175,527.4040375999175,527.4040375999175,527.4040375999175,527.4040375999175,527.4040375999175,527.4040375999175,527.4040375999175,529.9128600999247,529.9128600999247,529.9128600999247,529.9128600999247,529.9128600999247,44,62,51,48,62,76,3.0,1.6448662001639605,531.5749786000233,533.5371216000058,,,,,,,,,,,,,,,,,108,f,23,2022-11-25_15h14.30.650,RL,2022.2.4,60.31293972873755,
1,55,0,55,0,,,,,,,,,,None,533.5371216000058,533.5371216000058,533.5371216000058,533.5371216000058,533.5371216000058,533.5371216000058,i,0.4670764000620693,534.0360707999207,534.0360707999207,534.0360707999207,534.0360707999207,534.0360707999207,534.0360707999207,534.3351346000563,534.3351346000563,535.6984345999081,535.6984345999081,535.6984345999081,535.6984345999081,535.6984345999081,535.6984345999081,535.6984345999081,535.6984345999081,535.6984345999081,535.6984345999081,535.6984345999081,535.6984345999081,535.6984345999081,535.6984345999081,535.6984345999081,535.6984345999081,535.6984345999081,538.2072584000416,538.2072584000416,538.2072584000416,538.2072584000416,538.2072584000416,33,66,44,32,44,55,3.0,1.9424280999228358,540.1680370999966,541.9142310998868,,,,,,,,,,,,,,,,,108,f,23,2022-11-25_15h14.30.650,RL,2022.2.4,60.31293972873755,
1,56,0,56,0,,,,,,,,,,None,541.9142310998868,541.9142310998868,541.9142310998868,541.9142310998868,541.9142310998868,541.9142310998868,i,0.5285290000028908,542.4631888000295,542.4631888000295,542.4631888000295,542.4631888000295,542.4631888000295,542.4631888000295,542.7620959000196,542.7620959000196,544.1083879999351,544.1083879999351,544.1083879999351,544.1083879999351,544.1083879999351,544.1083879999351,544.1083879999351,544.1083879999351,544.1083879999351,544.1083879999351,544.1083879999351,544.1083879999351,544.1083879999351,544.1083879999351,544.1083879999351,544.1083879999351,544.1083879999351,546.6172620998695,546.6172620998695,546.6172620998695,546.6172620998695,546.6172620998695,40,61,37,37,37,83,3.0,1.9777982998639345,548.612385599874,550.557635899866,,,,,,,,,,,,,,,,,108,f,23,2022-11-25_15h14.30.650,RL,2022.2.4,60.31293972873755,
1,57,0,57,0,,,,,,,,,,None,550.557635899866,550.557635899866,550.557635899866,550.557635899866,550.557635899866,550.557635899866,i,0.7036276999861002,551.2910849000327,551.2910849000327,551.2910849000327,551.2910849000327,551.2910849000327,551.2910849000327,551.5887380000204,551.5887380000204,553.5825310000218,553.5825310000218,553.5825310000218,553.5825310000218,553.5825310000218,553.5825310000218,553.5825310000218,553.5825310000218,553.5825310000218,553.5825310000218,553.5825310000218,553.5825310000218,553.5825310000218,553.5825310000218,553.5825310000218,553.5825310000218,553.5825310000218,556.0917519000359,556.0917519000359,556.0917519000359,556.0917519000359,556.0917519000359,34,67,36,36,36,55,3.0,1.2125083999708295,557.321447199909,558.9179628998972,,,,,,,,,,,,,,,,,108,f,23,2022-11-25_15h14.30.650,RL,2022.2.4,60.31293972873755,
1,58,0,58,0,,,,,,,,,,None,558.9179628998972,558.9179628998972,558.9179628998972,558.9179628998972,558.9179628998972,558.9179628998972,i,0.3474847001489252,559.2847806999926,559.2847806999926,559.2847806999926,559.2847806999926,559.2847806999926,559.2847806999926,559.582967299968,559.582967299968,561.1953734999988,561.1953734999988,561.1953734999988,561.1953734999988,561.1953734999988,561.1953734999988,561.1953734999988,561.1953734999988,561.1953734999988,561.1953734999988,561.1953734999988,561.1953734999988,561.1953734999988,561.1953734999988,561.1953734999988,561.1953734999988,561.1953734999988,563.7042035998311,563.7042035998311,563.7042035998311,563.7042035998311,563.7042035998311,41,63,36,36,36,56,3.0,0.5979661999735981,564.3189554999117,565.848713999847,,,,,,,,,,,,,,,,,108,f,23,2022-11-25_15h14.30.650,RL,2022.2.4,60.31293972873755,
1,59,0,59,0,,,,,,,,,,None,565.848713999847,565.848713999847,565.848713999847,565.848713999847,565.848713999847,565.848713999847,i,0.3165090000256896,566.2016038000584,566.2016038000584,566.2016038000584,566.2016038000584,566.2016038000584,566.2016038000584,566.4974056999199,566.4974056999199,567.6772119998932,567.6772119998932,567.6772119998932,567.6772119998932,567.6772119998932,567.6772119998932,567.6772119998932,567.6772119998932,567.6772119998932,567.6772119998932,567.6772119998932,567.6772119998932,567.6772119998932,567.6772119998932,567.6772119998932,567.6772119998932,567.6772119998932,570.1865771999583,570.1865771999583,570.1865771999583,570.1865771999583,570.1865771999583,45,55,39,41,39,93,3.0,1.1795971000101417,571.3832388999872,573.2620854000561,,,,,,,,,,,,,,,,,108,f,23,2022-11-25_15h14.30.650,RL,2022.2.4,60.31293972873755,
1,60,0,60,0,,,,,,,,,,None,573.2620854000561,573.2620854000561,573.2620854000561,573.2620854000561,573.2620854000561,573.2620854000561,f,0.32308679982088506,573.6118552000262,573.6118552000262,573.6118552000262,573.6118552000262,573.6118552000262,573.6118552000262,573.9105909999926,573.9105909999926,575.090759200044,575.090759200044,575.090759200044,575.090759200044,575.090759200044,575.090759200044,575.090759200044,575.090759200044,575.090759200044,575.090759200044,575.090759200044,575.090759200044,575.090759200044,575.090759200044,575.090759200044,575.090759200044,575.090759200044,577.5995032999199,577.5995032999199,577.5995032999199,577.5995032999199,577.5995032999199,37,55,45,44,55,93,2.0,1.3457007000688463,578.9623298000079,580.8585735999513,,,,,,,,,,,,,,,,,108,f,23,2022-11-25_15h14.30.650,RL,2022.2.4,60.31293972873755,
1,61,0,61,0,,,,,,,,,,None,580.8585735999513,580.8585735999513,580.8585735999513,580.8585735999513,580.8585735999513,580.8585735999513,r,0.2958783998619765,581.1745096000377,581.1745096000377,581.1745096000377,581.1745096000377,581.1745096000377,581.1745096000377,581.4732262999751,581.4732262999751,582.6033926999662,582.6033926999662,582.6033926999662,582.6033926999662,582.6033926999662,582.6033926999662,582.6033926999662,582.6033926999662,582.6033926999662,582.6033926999662,582.6033926999662,582.6033926999662,582.6033926999662,582.6033926999662,582.6033926999662,582.6033926999662,582.6033926999662,585.1123162999284,585.1123162999284,585.1123162999284,585.1123162999284,585.1123162999284,42,52,38,36,42,84,3.0,1.9267285999376327,587.0575023998972,588.7362565998919,,,,,,,,,,,,,,,,,108,f,23,2022-11-25_15h14.30.650,RL,2022.2.4,60.31293972873755,
1,62,0,62,0,,,,,,,,,,None,588.7362565998919,588.7362565998919,588.7362565998919,588.7362565998919,588.7362565998919,588.7362565998919,i,0.3728481999132782,589.1362725999206,589.1362725999206,589.1362725999206,589.1362725999206,589.1362725999206,589.1362725999206,589.4347321998794,589.4347321998794,590.5485318999272,590.5485318999272,590.5485318999272,590.5485318999272,590.5485318999272,590.5485318999272,590.5485318999272,590.5485318999272,590.5485318999272,590.5485318999272,590.5485318999272,590.5485318999272,590.5485318999272,590.5485318999272,590.5485318999272,590.5485318999272,590.5485318999272,593.0573483000044,593.0573483000044,593.0573483000044,593.0573483000044,593.0573483000044,43,53,46,43,46,85,3.0,2.291347000049427,595.367738999892,596.9144897998776,,,,,,,,,,,,,,,,,108,f,23,2022-11-25_15h14.30.650,RL,2022.2.4,60.31293972873755,
1,63,0,63,0,,,,,,,,,,None,596.9144897998776,596.9144897998776,596.9144897998776,596.9144897998776,596.9144897998776,596.9144897998776,i,0.6479064000304788,597.5808375000488,597.5808375000488,597.5808375000488,597.5808375000488,597.5808375000488,597.5808375000488,597.8782206999604,597.8782206999604,598.7425607999321,598.7425607999321,598.7425607999321,598.7425607999321,598.7425607999321,598.7425607999321,598.7425607999321,598.7425607999321,598.7425607999321,598.7425607999321,598.7425607999321,598.7425607999321,598.7425607999321,598.7425607999321,598.7425607999321,598.7425607999321,598.7425607999321,601.2520268999506,601.2520268999506,601.2520268999506,601.2520268999506,601.2520268999506,37,53,35,52,35,84,3.0,1.57873720000498,602.8471825998276,604.3606113998685,,,,,,,,,,,,,,,,,108,f,23,2022-11-25_15h14.30.650,RL,2022.2.4,60.31293972873755,
1,64,0,64,0,,,,,,,,,,None,604.3606113998685,604.3606113998685,604.3606113998685,604.3606113998685,604.3606113998685,604.3606113998685,j,0.4522931999526918,604.8451024999376,604.8451024999376,604.8451024999376,604.8451024999376,604.8451024999376,604.8451024999376,605.1419983999804,605.1419983999804,606.6215152000077,606.6215152000077,606.6215152000077,606.6215152000077,606.6215152000077,606.6215152000077,606.6215152000077,606.6215152000077,606.6215152000077,606.6215152000077,606.6215152000077,606.6215152000077,606.6215152000077,606.6215152000077,606.6215152000077,606.6215152000077,606.6215152000077,609.1305350998882,609.1305350998882,609.1305350998882,609.1305350998882,609.1305350998882,46,55,42,44,44,90,3.0,1.146133700152859,610.2934270000551,612.155777500011,,,,,,,,,,,,,,,,,108,f,23,2022-11-25_15h14.30.650,RL,2022.2.4,60.31293972873755,
1,65,0,65,0,,,,,,,,,,None,612.155777500011,612.155777500011,612.155777500011,612.155777500011,612.155777500011,612.155777500011,i,0.9275786001235247,613.1064030998386,613.1064030998386,613.1064030998386,613.1064030998386,613.1064030998386,613.1064030998386,613.4030319000594,613.4030319000594,615.0985341998748,615.0985341998748,615.0985341998748,615.0985341998748,615.0985341998748,615.0985341998748,615.0985341998748,615.0985341998748,615.0985341998748,615.0985341998748,615.0985341998748,615.0985341998748,615.0985341998748,615.0985341998748,615.0985341998748,615.0985341998748,615.0985341998748,617.6074920999818,617.6074920999818,617.6074920999818,617.6074920999818,617.6074920999818,51,49,48,48,48,49,4.0,1.6947031000163406,619.3194339999463,620.9317977000028,,,,,,,,,,,,,,,,,108,f,23,2022-11-25_15h14.30.650,RL,2022.2.4,60.31293972873755,
1,66,0,66,0,,,,,,,,,,None,620.9317977000028,620.9317977000028,620.9317977000028,620.9317977000028,620.9317977000028,620.9317977000028,j,0.5837324000895023,621.5474262998905,621.5474262998905,621.5474262998905,621.5474262998905,621.5474262998905,621.5474262998905,621.8466676999815,621.8466676999815,623.6417984999716,623.6417984999716,623.6417984999716,623.6417984999716,623.6417984999716,623.6417984999716,623.6417984999716,623.6417984999716,623.6417984999716,623.6417984999716,623.6417984999716,623.6417984999716,623.6417984999716,623.6417984999716,623.6417984999716,623.6417984999716,623.6417984999716,626.1503977000248,626.1503977000248,626.1503977000248,626.1503977000248,626.1503977000248,44,47,46,50,50,89,4.0,1.0968704998958856,627.2642214000225,628.9605568998959,,,,,,,,,,,,,,,,,108,f,23,2022-11-25_15h14.30.650,RL,2022.2.4,60.31293972873755,
1,67,0,67,0,,,,,,,,,,None,628.9605568998959,628.9605568998959,628.9605568998959,628.9605568998959,628.9605568998959,628.9605568998959,j,0.5192076999228448,629.5094783999957,629.5094783999957,629.5094783999957,629.5094783999957,629.5094783999957,629.5094783999957,629.8083947999403,629.8083947999403,631.3368818999734,631.3368818999734,631.3368818999734,631.3368818999734,631.3368818999734,631.3368818999734,631.3368818999734,631.3368818999734,631.3368818999734,631.3368818999734,631.3368818999734,631.3368818999734,631.3368818999734,631.3368818999734,631.3368818999734,631.3368818999734,631.3368818999734,633.8460254999809,633.8460254999809,633.8460254999809,633.8460254999809,633.8460254999809,41,53,44,45,45,83,3.0,1.2291693999432027,635.0925688999705,636.9382362999022,,,,,,,,,,,,,,,,,108,f,23,2022-11-25_15h14.30.650,RL,2022.2.4,60.31293972873755,
1,68,0,68,0,,,,,,,,,,None,636.9382362999022,636.9382362999022,636.9382362999022,636.9382362999022,636.9382362999022,636.9382362999022,f,0.4114707000553608,637.3710264998954,637.3710264998954,637.3710264998954,637.3710264998954,637.3710264998954,637.3710264998954,637.6703457999974,637.6703457999974,639.0824686000124,639.0824686000124,639.0824686000124,639.0824686000124,639.0824686000124,639.0824686000124,639.0824686000124,639.0824686000124,639.0824686000124,639.0824686000124,639.0824686000124,639.0824686000124,639.0824686000124,639.0824686000124,639.0824686000124,639.0824686000124,639.0824686000124,641.5917264998425,641.5917264998425,641.5917264998425,641.5917264998425,641.5917264998425,40,56,46,45,56,89,3.0,1.2787296001333743,642.8879223999102,644.5508830000181,,,,,,,,,,,,,,,,,108,f,23,2022-11-25_15h14.30.650,RL,2022.2.4,60.31293972873755,
1,69,0,69,0,,,,,,,,,,None,644.5508830000181,644.5508830000181,644.5508830000181,644.5508830000181,644.5508830000181,644.5508830000181,f,0.3975016998592764,644.9675809999462,644.9675809999462,644.9675809999462,644.9675809999462,644.9675809999462,644.9675809999462,645.2656707998831,645.2656707998831,646.5954779000022,646.5954779000022,646.5954779000022,646.5954779000022,646.5954779000022,646.5954779000022,646.5954779000022,646.5954779000022,646.5954779000022,646.5954779000022,646.5954779000022,646.5954779000022,646.5954779000022,646.5954779000022,646.5954779000022,646.5954779000022,646.5954779000022,649.1048034999985,649.1048034999985,649.1048034999985,649.1048034999985,649.1048034999985,45,53,47,38,53,64,3.0,0.6808409001678228,649.8025002998766,651.5981008999515,,,,,,,,,,,,,,,,,108,f,23,2022-11-25_15h14.30.650,RL,2022.2.4,60.31293972873755,
1,70,0,70,0,,,,,,,,,,None,651.5981008999515,651.5981008999515,651.5981008999515,651.5981008999515,651.5981008999515,651.5981008999515,i,0.3110811000224203,651.9319647999946,651.9319647999946,651.9319647999946,651.9319647999946,651.9319647999946,651.9319647999946,652.2299812999554,652.2299812999554,654.0748139000498,654.0748139000498,654.0921118999831,654.0921118999831,654.0921118999831,654.0921118999831,654.0921118999831,654.0921118999831,654.0921118999831,654.0921118999831,654.0921118999831,654.0921118999831,654.0921118999831,654.0921118999831,654.0921118999831,654.0921118999831,654.0921118999831,656.6007792998571,656.6007792998571,656.6007792998571,656.6007792998571,656.6007792998571,43,48,45,49,45,104,3.0,1.2124696001410484,657.8307851999998,659.5273742000572,,,,,,,,,,,,,,,,,108,f,23,2022-11-25_15h14.30.650,RL,2022.2.4,60.31293972873755,
1,71,0,71,0,,,,,,,,,,None,659.5273742000572,659.5273742000572,659.5273742000572,659.5273742000572,659.5273742000572,659.5273742000572,r,0.3606652000453323,659.9094119998626,659.9094119998626,659.9094119998626,659.9094119998626,659.9094119998626,659.9094119998626,660.20823749993,660.20823749993,661.122198899975,661.122198899975,661.122198899975,661.122198899975,661.122198899975,661.122198899975,661.122198899975,661.122198899975,661.122198899975,661.122198899975,661.122198899975,661.122198899975,661.122198899975,661.122198899975,661.122198899975,661.122198899975,661.122198899975,663.6315863998607,663.6315863998607,663.6315863998607,663.6315863998607,663.6315863998607,46,46,53,49,46,27,4.0,1.646088199922815,665.293503300054,666.8732257999945,,,,,,,,,,,,,,,,,108,f,23,2022-11-25_15h14.30.650,RL,2022.2.4,60.31293972873755,
1,72,0,72,0,,,,,,,,,,None,666.8732257999945,666.8732257999945,666.8732257999945,666.8732257999945,666.8732257999945,666.8732257999945,r,0.6143831999506801,667.5053544000257,667.5053544000257,667.5053544000257,667.5053544000257,667.5053544000257,667.5053544000257,667.8060438998509,667.8060438998509,669.0341751999222,669.0341751999222,669.0341751999222,669.0341751999222,669.0341751999222,669.0341751999222,669.0341751999222,669.0341751999222,669.0341751999222,669.0341751999222,669.0341751999222,669.0341751999222,669.0341751999222,669.0341751999222,669.0341751999222,669.0341751999222,669.0341751999222,671.5432382000145,671.5432382000145,671.5432382000145,671.5432382000145,671.5432382000145,50,61,48,48,50,91,4.0,0.6142223998904228,672.1752595000435,673.7211257999297,,,,,,,,,,,,,,,,,108,f,23,2022-11-25_15h14.30.650,RL,2022.2.4,60.31293972873755,
1,73,0,73,0,,,,,,,,,,None,673.7211257999297,673.7211257999297,673.7211257999297,673.7211257999297,673.7211257999297,673.7211257999297,i,0.44093769998289645,674.1871910998598,674.1871910998598,674.1871910998598,674.1871910998598,674.1871910998598,674.1871910998598,674.4693588998634,674.4693588998634,675.7490159999579,675.7490159999579,675.7656965998467,675.7656965998467,675.7656965998467,675.7656965998467,675.7656965998467,675.7656965998467,675.7656965998467,675.7656965998467,675.7656965998467,675.7656965998467,675.7656965998467,675.7656965998467,675.7656965998467,675.7656965998467,675.7656965998467,678.2869724999182,678.2869724999182,678.2869724999182,678.2869724999182,678.2869724999182,44,54,46,52,46,91,3.0,2.2762887999415398,680.5685757000465,682.5310068998951,,,,,,,,,,,,,,,,,108,f,23,2022-11-25_15h14.30.650,RL,2022.2.4,60.31293972873755,
1,74,0,74,0,,,,,,,,,,None,682.5310068998951,682.5310068998951,682.5310068998951,682.5310068998951,682.5310068998951,682.5310068998951,f,0.41486250003799796,682.9800704000518,682.9800704000518,682.9800704000518,682.9800704000518,682.9800704000518,682.9800704000518,683.2788124999497,683.2788124999497,685.0239373999648,685.0239373999648,685.0414996000472,685.0414996000472,685.0414996000472,685.0414996000472,685.0414996000472,685.0414996000472,685.0414996000472,685.0414996000472,685.0414996000472,685.0414996000472,685.0414996000472,685.0414996000472,685.0414996000472,685.0414996000472,685.0414996000472,687.5495090999175,687.5495090999175,687.5495090999175,687.5495090999175,687.5495090999175,48,55,47,44,55,99,3.0,2.094073300017044,689.6602535999846,691.3394823998678,,,,,,,,,,,,,,,,,108,f,23,2022-11-25_15h14.30.650,RL,2022.2.4,60.31293972873755,
1,75,0,75,0,,,,,,,,,,q,772.2026821998879,772.2026821998879,772.2026821998879,772.2026821998879,772.2026821998879,772.2026821998879,r,0.6695154001936316,772.9010701999068,772.9010701999068,772.9010701999068,772.9010701999068,772.9010701999068,772.9010701999068,773.2002193999942,773.2002193999942,774.447211700026,774.447211700026,774.447211700026,774.447211700026,774.447211700026,774.447211700026,774.447211700026,774.447211700026,774.447211700026,774.447211700026,774.447211700026,774.447211700026,774.447211700026,774.447211700026,774.447211700026,774.447211700026,774.447211700026,776.9561185999773,776.9561185999773,776.9561185999773,776.9561185999773,776.9561185999773,45,49,47,56,45,101,3.0,1.761083000106737,778.7340547000058,780.6625037000049,691.3394823998678,691.3394823998678,80.84353459998965,,,,,,,,,,,,,,108,f,23,2022-11-25_15h14.30.650,RL,2022.2.4,60.31293972873755,
1,76,0,76,0,,,,,,,,,,None,780.6625037000049,780.6625037000049,780.6625037000049,780.6625037000049,780.6625037000049,780.6625037000049,f,0.5388338000047952,781.230492600007,781.230492600007,781.230492600007,781.230492600007,781.230492600007,781.230492600007,781.5275909998454,781.5275909998454,782.9897491000593,782.9897491000593,782.9897491000593,782.9897491000593,782.9897491000593,782.9897491000593,782.9897491000593,782.9897491000593,782.9897491000593,782.9897491000593,782.9897491000593,782.9897491000593,782.9897491000593,782.9897491000593,782.9897491000593,782.9897491000593,782.9897491000593,785.4990059998818,785.4990059998818,785.4990059998818,785.4990059998818,785.4990059998818,45,44,47,50,44,89,3.0,1.5450844999868423,787.0612701999489,788.6079211998731,,,,,,,,,,,,,,,,,108,f,23,2022-11-25_15h14.30.650,RL,2022.2.4,60.31293972873755,
1,77,0,77,0,,,,,,,,,,None,788.6079211998731,788.6079211998731,788.6079211998731,788.6079211998731,788.6079211998731,788.6079211998731,i,0.41694580018520355,789.0570894998964,789.0570894998964,789.0570894998964,789.0570894998964,789.0570894998964,789.0570894998964,789.3565004998818,789.3565004998818,790.1703152998816,790.1703152998816,790.1703152998816,790.1703152998816,790.1703152998816,790.1703152998816,790.1703152998816,790.1703152998816,790.1703152998816,790.1703152998816,790.1703152998816,790.1703152998816,790.1703152998816,790.1703152998816,790.1703152998816,790.1703152998816,790.1703152998816,792.6798447999172,792.6798447999172,792.6798447999172,792.6798447999172,792.6798447999172,46,45,49,48,49,46,4.0,1.411092400085181,794.108753999928,795.6718188000377,,,,,,,,,,,,,,,,,108,f,23,2022-11-25_15h14.30.650,RL,2022.2.4,60.31293972873755,
1,78,0,78,0,,,,,,,,,,None,795.6718188000377,795.6718188000377,795.6718188000377,795.6718188000377,795.6718188000377,795.6718188000377,r,0.42842829995788634,796.1210133000277,796.1210133000277,796.1210133000277,796.1210133000277,796.1210133000277,796.1210133000277,796.4211480999365,796.4211480999365,798.3978701999877,798.3978701999877,798.3978701999877,798.3978701999877,798.3978701999877,798.3978701999877,798.3978701999877,798.3978701999877,798.3978701999877,798.3978701999877,798.3978701999877,798.3978701999877,798.3978701999877,798.3978701999877,798.3978701999877,798.3978701999877,798.3978701999877,800.9071344998665,800.9071344998665,800.9071344998665,800.9071344998665,800.9071344998665,50,50,49,45,50,98,3.0,0.7309002999681979,801.6553470999934,803.2012622000184,,,,,,,,,,,,,,,,,108,f,23,2022-11-25_15h14.30.650,RL,2022.2.4,60.31293972873755,
1,79,0,79,0,,,,,,,,,,None,803.2012622000184,803.2012622000184,803.2012622000184,803.2012622000184,803.2012622000184,803.2012622000184,f,0.36798160010948777,803.600917099975,803.600917099975,803.600917099975,803.600917099975,803.600917099975,803.600917099975,803.8997754999436,803.8997754999436,805.1295421000104,805.1295421000104,805.1295421000104,805.1295421000104,805.1295421000104,805.1295421000104,805.1295421000104,805.1295421000104,805.1295421000104,805.1295421000104,805.1295421000104,805.1295421000104,805.1295421000104,805.1295421000104,805.1295421000104,805.1295421000104,805.1295421000104,807.6389283000026,807.6389283000026,807.6389283000026,807.6389283000026,807.6389283000026,46,41,55,46,41,89,4.0,1.8280954000074416,809.4835411999375,811.3964422999416,,,,,,,,,,,,,,,,,108,f,23,2022-11-25_15h14.30.650,RL,2022.2.4,60.31293972873755,
1,80,0,80,0,,,,,,,,,,None,811.3964422999416,811.3964422999416,811.3964422999416,811.3964422999416,811.3964422999416,811.3964422999416,i,0.26786660007201135,811.6953066999558,811.6953066999558,811.6953066999558,811.6953066999558,811.6953066999558,811.6953066999558,811.9942139999475,811.9942139999475,813.672704400029,813.672704400029,813.672704400029,813.672704400029,813.672704400029,813.672704400029,813.672704400029,813.672704400029,813.672704400029,813.672704400029,813.672704400029,813.672704400029,813.672704400029,813.672704400029,813.672704400029,813.672704400029,813.672704400029,816.1820733998902,816.1820733998902,816.1820733998902,816.1820733998902,816.1820733998902,51,44,57,51,57,97,3.0,1.3930301999207586,817.5948471999727,819.3579537000041,,,,,,,,,,,,,,,,,108,f,23,2022-11-25_15h14.30.650,RL,2022.2.4,60.31293972873755,
1,81,0,81,0,,,,,,,,,,None,819.3579537000041,819.3579537000041,819.3579537000041,819.3579537000041,819.3579537000041,819.3579537000041,j,0.4749104999937117,819.8634957999457,819.8634957999457,819.8634957999457,819.8634957999457,819.8634957999457,819.8634957999457,820.1554282999132,820.1554282999132,821.9003320999909,821.9003320999909,821.9170380998403,821.9170380998403,821.9170380998403,821.9170380998403,821.9170380998403,821.9170380998403,821.9170380998403,821.9170380998403,821.9170380998403,821.9170380998403,821.9170380998403,821.9170380998403,821.9170380998403,821.9170380998403,821.9170380998403,824.4263050998561,824.4263050998561,824.4263050998561,824.4263050998561,824.4263050998561,47,41,50,48,48,90,4.0,1.910868200007826,826.3540900000371,828.2328208999243,,,,,,,,,,,,,,,,,108,f,23,2022-11-25_15h14.30.650,RL,2022.2.4,60.31293972873755,
1,82,0,82,0,,,,,,,,,,None,828.2328208999243,828.2328208999243,828.2328208999243,828.2328208999243,828.2328208999243,828.2328208999243,i,0.41408620006404817,828.666141099995,828.666141099995,828.666141099995,828.666141099995,828.666141099995,828.666141099995,828.9645750999916,828.9645750999916,830.3772578998469,830.3772578998469,830.3772578998469,830.3772578998469,830.3772578998469,830.3772578998469,830.3772578998469,830.3772578998469,830.3772578998469,830.3772578998469,830.3772578998469,830.3772578998469,830.3772578998469,830.3772578998469,830.3772578998469,830.3772578998469,830.3772578998469,832.8865254998673,832.8865254998673,832.8865254998673,832.8865254998673,832.8865254998673,49,38,48,48,48,87,4.0,1.746128800092265,834.6483110999689,836.1612743998412,,,,,,,,,,,,,,,,,108,f,23,2022-11-25_15h14.30.650,RL,2022.2.4,60.31293972873755,
1,83,0,83,0,,,,,,,,,,None,836.1612743998412,836.1612743998412,836.1612743998412,836.1612743998412,836.1612743998412,836.1612743998412,r,0.4149259999394417,836.6154036000371,836.6154036000371,836.6154036000371,836.6154036000371,836.6154036000371,836.6154036000371,836.909669799963,836.909669799963,837.9401320999023,837.9401320999023,837.9401320999023,837.9401320999023,837.9401320999023,837.9401320999023,837.9401320999023,837.9401320999023,837.9401320999023,837.9401320999023,837.9401320999023,837.9401320999023,837.9401320999023,837.9401320999023,837.9401320999023,837.9401320999023,837.9401320999023,840.4492075999733,840.4492075999733,840.4492075999733,840.4492075999733,840.4492075999733,53,45,44,56,53,79,4.0,0.6809380000922829,841.147096300032,842.8596504000016,,,,,,,,,,,,,,,,,108,f,23,2022-11-25_15h14.30.650,RL,2022.2.4,60.31293972873755,
1,84,0,84,0,,,,,,,,,,None,842.8596504000016,842.8596504000016,842.8596504000016,842.8596504000016,842.8596504000016,842.8596504000016,f,0.3255096999928355,843.210216099862,843.210216099862,843.210216099862,843.210216099862,843.210216099862,843.210216099862,843.5088247999083,843.5088247999083,845.1204885998741,845.1204885998741,845.1204885998741,845.1204885998741,845.1204885998741,845.1204885998741,845.1204885998741,845.1204885998741,845.1204885998741,845.1204885998741,845.1204885998741,845.1204885998741,845.1204885998741,845.1204885998741,845.1204885998741,845.1204885998741,845.1204885998741,847.6301700000186,847.6301700000186,847.6301700000186,847.6301700000186,847.6301700000186,43,45,53,56,45,92,3.0,1.2282525999471545,848.8759377999231,850.6885565998964,,,,,,,,,,,,,,,,,108,f,23,2022-11-25_15h14.30.650,RL,2022.2.4,60.31293972873755,
1,85,0,85,0,,,,,,,,,,None,850.6885565998964,850.6885565998964,850.6885565998964,850.6885565998964,850.6885565998964,850.6885565998964,f,0.37144110002554953,851.0896620999556,851.0896620999556,851.0896620999556,851.0896620999556,851.0896620999556,851.0896620999556,851.386769299861,851.386769299861,852.2510565998964,852.2510565998964,852.2510565998964,852.2510565998964,852.2510565998964,852.2510565998964,852.2510565998964,852.2510565998964,852.2510565998964,852.2510565998964,852.2510565998964,852.2510565998964,852.2510565998964,852.2510565998964,852.2510565998964,852.2510565998964,852.2510565998964,854.7604514998384,854.7604514998384,854.7604514998384,854.7604514998384,854.7604514998384,48,41,46,59,41,52,4.0,1.1621346999891102,855.9402236999013,857.5363721998874,,,,,,,,,,,,,,,,,108,f,23,2022-11-25_15h14.30.650,RL,2022.2.4,60.31293972873755,
1,86,0,86,0,,,,,,,,,,None,857.5363721998874,857.5363721998874,857.5363721998874,857.5363721998874,857.5363721998874,857.5363721998874,i,0.4041563000064343,857.971459900029,857.971459900029,857.971459900029,857.971459900029,857.971459900029,857.971459900029,858.2681735998485,858.2681735998485,859.8302831999026,859.8302831999026,859.8302831999026,859.8302831999026,859.8302831999026,859.8302831999026,859.8302831999026,859.8302831999026,859.8302831999026,859.8302831999026,859.8302831999026,859.8302831999026,859.8302831999026,859.8302831999026,859.8302831999026,859.8302831999026,859.8302831999026,862.3395756999962,862.3395756999962,862.3395756999962,862.3395756999962,862.3395756999962,41,47,38,60,38,67,4.0,0.8304721999447793,863.1869351998903,864.7667632999364,,,,,,,,,,,,,,,,,108,f,23,2022-11-25_15h14.30.650,RL,2022.2.4,60.31293972873755,
1,87,0,87,0,,,,,,,,,,None,864.7667632999364,864.7667632999364,864.7667632999364,864.7667632999364,864.7667632999364,864.7667632999364,i,0.47750960011035204,865.2672698998358,865.2672698998358,865.2672698998358,865.2672698998358,865.2672698998358,865.2672698998358,865.5489133999217,865.5489133999217,866.6616703998297,866.6616703998297,866.6783074999694,866.6783074999694,866.6783074999694,866.6783074999694,866.6783074999694,866.6783074999694,866.6783074999694,866.6783074999694,866.6783074999694,866.6783074999694,866.6783074999694,866.6783074999694,866.6783074999694,866.6783074999694,866.6783074999694,869.1873166998848,869.1873166998848,869.1873166998848,869.1873166998848,869.1873166998848,42,45,54,55,54,81,3.0,1.227439400041476,870.4338328999002,872.4291499999817,,,,,,,,,,,,,,,,,108,f,23,2022-11-25_15h14.30.650,RL,2022.2.4,60.31293972873755,
1,88,0,88,0,,,,,,,,,,None,872.4291499999817,872.4291499999817,872.4291499999817,872.4291499999817,872.4291499999817,872.4291499999817,f,0.3009218000806868,872.7641489000525,872.7641489000525,872.7641489000525,872.7641489000525,872.7641489000525,872.7641489000525,873.0613204999827,873.0613204999827,874.2075755998958,874.2075755998958,874.2242978999857,874.2242978999857,874.2242978999857,874.2242978999857,874.2242978999857,874.2242978999857,874.2242978999857,874.2242978999857,874.2242978999857,874.2242978999857,874.2242978999857,874.2242978999857,874.2242978999857,874.2242978999857,874.2242978999857,876.7335483999923,876.7335483999923,876.7335483999923,876.7335483999923,876.7335483999923,47,40,44,50,40,79,3.0,1.3868501000106335,878.1295326999389,880.0419103999157,,,,,,,,,,,,,,,,,108,f,23,2022-11-25_15h14.30.650,RL,2022.2.4,60.31293972873755,
1,89,0,89,0,,,,,,,,,,None,880.0419103999157,880.0419103999157,880.0419103999157,880.0419103999157,880.0419103999157,880.0419103999157,r,0.5571751000825316,880.6272750999779,880.6272750999779,880.6272750999779,880.6272750999779,880.6272750999779,880.6272750999779,880.9227930998895,880.9227930998895,881.9035930999089,881.9035930999089,881.9035930999089,881.9035930999089,881.9035930999089,881.9035930999089,881.9035930999089,881.9035930999089,881.9035930999089,881.9035930999089,881.9035930999089,881.9035930999089,881.9035930999089,881.9035930999089,881.9035930999089,881.9035930999089,881.9035930999089,884.4124940999318,884.4124940999318,884.4124940999318,884.4124940999318,884.4124940999318,37,41,41,48,37,73,3.0,1.5452334000729024,885.9749342999421,887.7216210998595,,,,,,,,,,,,,,,,,108,f,23,2022-11-25_15h14.30.650,RL,2022.2.4,60.31293972873755,
1,90,0,90,0,,,,,,,,,,None,887.7216210998595,887.7216210998595,887.7216210998595,887.7216210998595,887.7216210998595,887.7216210998595,j,0.37300050002522767,888.1218796998728,888.1218796998728,888.1218796998728,888.1218796998728,888.1218796998728,888.1218796998728,888.4192188000306,888.4192188000306,889.532801900059,889.532801900059,889.532801900059,889.532801900059,889.532801900059,889.532801900059,889.532801900059,889.532801900059,889.532801900059,889.532801900059,889.532801900059,889.532801900059,889.532801900059,889.532801900059,889.532801900059,889.532801900059,889.532801900059,892.042313199956,892.042313199956,892.042313199956,892.042313199956,892.042313199956,48,37,45,58,58,51,4.0,2.176703999983147,894.2358360998333,896.0488229000475,,,,,,,,,,,,,,,,,108,f,23,2022-11-25_15h14.30.650,RL,2022.2.4,60.31293972873755,
1,91,0,91,0,,,,,,,,,,None,896.0488229000475,896.0488229000475,896.0488229000475,896.0488229000475,896.0488229000475,896.0488229000475,j,0.3706133998930454,896.4474644998554,896.4474644998554,896.4474644998554,896.4474644998554,896.4474644998554,896.4474644998554,896.7467135000043,896.7467135000043,897.8603916999418,897.8603916999418,897.8603916999418,897.8603916999418,897.8603916999418,897.8603916999418,897.8603916999418,897.8603916999418,897.8603916999418,897.8603916999418,897.8603916999418,897.8603916999418,897.8603916999418,897.8603916999418,897.8603916999418,897.8603916999418,897.8603916999418,900.3689653000329,900.3689653000329,900.3689653000329,900.3689653000329,900.3689653000329,48,45,46,56,56,77,4.0,1.1300069000571966,901.5160902999341,903.2784710000269,,,,,,,,,,,,,,,,,108,f,23,2022-11-25_15h14.30.650,RL,2022.2.4,60.31293972873755,
1,92,0,92,0,,,,,,,,,,None,903.2784710000269,903.2784710000269,903.2784710000269,903.2784710000269,903.2784710000269,903.2784710000269,j,0.5196860998403281,903.8273211999331,903.8273211999331,903.8273211999331,903.8273211999331,903.8273211999331,903.8273211999331,904.1263500999194,904.1263500999194,905.2729505999014,905.2729505999014,905.2729505999014,905.2729505999014,905.2729505999014,905.2729505999014,905.2729505999014,905.2729505999014,905.2729505999014,905.2729505999014,905.2729505999014,905.2729505999014,905.2729505999014,905.2729505999014,905.2729505999014,905.2729505999014,905.2729505999014,907.7820146000013,907.7820146000013,907.7820146000013,907.7820146000013,907.7820146000013,49,44,47,55,55,76,4.0,0.6460241000168025,908.446875799913,910.1100012999959,,,,,,,,,,,,,,,,,108,f,23,2022-11-25_15h14.30.650,RL,2022.2.4,60.31293972873755,
1,93,0,93,0,,,,,,,,,,None,910.1100012999959,910.1100012999959,910.1100012999959,910.1100012999959,910.1100012999959,910.1100012999959,j,0.5279861998278648,910.6590702999383,910.6590702999383,910.6590702999383,910.6590702999383,910.6590702999383,910.6590702999383,910.9580918999854,910.9580918999854,911.7720137999859,911.7720137999859,911.7720137999859,911.7720137999859,911.7720137999859,911.7720137999859,911.7720137999859,911.7720137999859,911.7720137999859,911.7720137999859,911.7720137999859,911.7720137999859,911.7720137999859,911.7720137999859,911.7720137999859,911.7720137999859,911.7720137999859,914.2810907999519,914.2810907999519,914.2810907999519,914.2810907999519,914.2810907999519,48,45,46,63,63,64,4.0,1.0299399001523852,915.3281111998949,916.9910005999263,,,,,,,,,,,,,,,,,108,f,23,2022-11-25_15h14.30.650,RL,2022.2.4,60.31293972873755,
1,94,0,94,0,,,,,,,,,,None,916.9910005999263,916.9910005999263,916.9910005999263,916.9910005999263,916.9910005999263,916.9910005999263,j,0.3775893000420183,917.3902090999763,917.3902090999763,917.3902090999763,917.3902090999763,917.3902090999763,917.3902090999763,917.6891524000093,917.6891524000093,918.8363526000176,918.8363526000176,918.8363526000176,918.8363526000176,918.8363526000176,918.8363526000176,918.8363526000176,918.8363526000176,918.8363526000176,918.8363526000176,918.8363526000176,918.8363526000176,918.8363526000176,918.8363526000176,918.8363526000176,918.8363526000176,918.8363526000176,921.3450344998855,921.3450344998855,921.3450344998855,921.3450344998855,921.3450344998855,57,40,55,60,60,79,4.0,1.0965110999532044,922.4586346999276,924.3549386998639,,,,,,,,,,,,,,,,,108,f,23,2022-11-25_15h14.30.650,RL,2022.2.4,60.31293972873755,
1,95,0,95,0,,,,,,,,,,None,924.3549386998639,924.3549386998639,924.3549386998639,924.3549386998639,924.3549386998639,924.3549386998639,f,0.35778830014169216,924.7369341000449,924.7369341000449,924.7369341000449,924.7369341000449,924.7369341000449,924.7369341000449,925.0358782999683,925.0358782999683,926.9638751000166,926.9638751000166,926.9638751000166,926.9638751000166,926.9638751000166,926.9638751000166,926.9638751000166,926.9638751000166,926.9638751000166,926.9638751000166,926.9638751000166,926.9638751000166,926.9638751000166,926.9638751000166,926.9638751000166,926.9638751000166,926.9638751000166,929.4728111999575,929.4728111999575,929.4728111999575,929.4728111999575,929.4728111999575,59,40,62,51,40,81,3.0,1.7213407999370247,931.2017137999646,932.7155448000412,,,,,,,,,,,,,,,,,108,f,23,2022-11-25_15h14.30.650,RL,2022.2.4,60.31293972873755,
1,96,0,96,0,,,,,,,,,,None,932.7155448000412,932.7155448000412,932.7155448000412,932.7155448000412,932.7155448000412,932.7155448000412,i,0.2868707999587059,933.0309554999694,933.0309554999694,933.0309554999694,933.0309554999694,933.0309554999694,933.0309554999694,933.3299901999999,933.3299901999999,935.3251928000245,935.3251928000245,935.3251928000245,935.3251928000245,935.3251928000245,935.3251928000245,935.3251928000245,935.3251928000245,935.3251928000245,935.3251928000245,935.3251928000245,935.3251928000245,935.3251928000245,935.3251928000245,935.3251928000245,935.3251928000245,935.3251928000245,937.833667299943,937.833667299943,937.833667299943,937.833667299943,937.833667299943,52,42,59,59,59,74,3.0,1.8775722000282258,939.7281144999433,941.5907620999496,,,,,,,,,,,,,,,,,108,f,23,2022-11-25_15h14.30.650,RL,2022.2.4,60.31293972873755,
1,97,0,97,0,,,,,,,,,,None,941.5907620999496,941.5907620999496,941.5907620999496,941.5907620999496,941.5907620999496,941.5907620999496,j,0.45939230010844767,942.0739219000097,942.0739219000097,942.0739219000097,942.0739219000097,942.0739219000097,942.0739219000097,942.371966799954,942.371966799954,944.2500922998879,944.2500922998879,944.2500922998879,944.2500922998879,944.2500922998879,944.2500922998879,944.2500922998879,944.2500922998879,944.2500922998879,944.2500922998879,944.2500922998879,944.2500922998879,944.2500922998879,944.2500922998879,944.2500922998879,944.2500922998879,944.2500922998879,946.7598045000341,946.7598045000341,946.7598045000341,946.7598045000341,946.7598045000341,41,41,55,61,61,65,3.0,1.4782199999317527,948.2548940998968,950.1337355000433,,,,,,,,,,,,,,,,,108,f,23,2022-11-25_15h14.30.650,RL,2022.2.4,60.31293972873755,
1,98,0,98,0,,,,,,,,,,None,950.1337355000433,950.1337355000433,950.1337355000433,950.1337355000433,950.1337355000433,950.1337355000433,r,0.4513164998497814,950.6164642998483,950.6164642998483,950.6164642998483,950.6164642998483,950.6164642998483,950.6164642998483,950.9151001998689,950.9151001998689,951.9457352999598,951.9457352999598,951.9457352999598,951.9457352999598,951.9457352999598,951.9457352999598,951.9457352999598,951.9457352999598,951.9457352999598,951.9457352999598,951.9457352999598,951.9457352999598,951.9457352999598,951.9457352999598,951.9457352999598,951.9457352999598,951.9457352999598,954.4548444000538,954.4548444000538,954.4548444000538,954.4548444000538,954.4548444000538,55,40,63,67,55,41,3.0,1.7283954001031816,956.1998501999769,957.8793511998374,,,,,,,,,,,,,,,,,108,f,23,2022-11-25_15h14.30.650,RL,2022.2.4,60.31293972873755,
1,99,0,99,0,,,,,,,,,,None,957.8793511998374,957.8793511998374,957.8793511998374,957.8793511998374,957.8793511998374,957.8793511998374,r,0.6048415000550449,958.5118116999511,958.5118116999511,958.5118116999511,958.5118116999511,958.5118116999511,958.5118116999511,958.8122777000535,958.8122777000535,959.8244264998939,959.8244264998939,959.8244264998939,959.8244264998939,959.8244264998939,959.8244264998939,959.8244264998939,959.8244264998939,959.8244264998939,959.8244264998939,959.8244264998939,959.8244264998939,959.8244264998939,959.8244264998939,959.8244264998939,959.8244264998939,959.8244264998939,962.333327600034,962.333327600034,962.333327600034,962.333327600034,962.333327600034,54,44,58,66,54,79,3.0,1.978720299899578,964.3279438000172,966.107166999951,,,,,,,,,,,,,,,,,108,f,23,2022-11-25_15h14.30.650,RL,2022.2.4,60.31293972873755,
1,100,0,100,0,,,,,,,,,,None,966.107166999951,966.107166999951,966.107166999951,966.107166999951,966.107166999951,966.107166999951,f,0.4007999999448657,966.5411310000345,966.5411310000345,966.5411310000345,966.5411310000345,966.5411310000345,966.5411310000345,966.8385244999081,966.8385244999081,967.9029480000027,967.9029480000027,967.9029480000027,967.9029480000027,967.9029480000027,967.9029480000027,967.9029480000027,967.9029480000027,967.9029480000027,967.9029480000027,967.9029480000027,967.9029480000027,967.9029480000027,967.9029480000027,967.9029480000027,967.9029480000027,967.9029480000027,970.4113107998855,970.4113107998855,970.4113107998855,970.4113107998855,970.4113107998855,48,42,54,66,42,75,3.0,0.7143574999645352,971.1423867000267,972.7222318998538,,,,,,,,,,,,,,,,,108,f,23,2022-11-25_15h14.30.650,RL,2022.2.4,60.31293972873755,
1,101,0,101,0,,,,,,,,,,None,972.7222318998538,972.7222318998538,972.7222318998538,972.7222318998538,972.7222318998538,972.7222318998538,f,0.30244329990819097,973.0559838998597,973.0559838998597,973.0559838998597,973.0559838998597,973.0559838998597,973.0559838998597,973.3546649999917,973.3546649999917,974.5341745000333,974.5341745000333,974.5341745000333,974.5341745000333,974.5341745000333,974.5341745000333,974.5341745000333,974.5341745000333,974.5341745000333,974.5341745000333,974.5341745000333,974.5341745000333,974.5341745000333,974.5341745000333,974.5341745000333,974.5341745000333,974.5341745000333,977.0435152000282,977.0435152000282,977.0435152000282,977.0435152000282,977.0435152000282,46,42,59,61,42,75,3.0,1.6109007999766618,978.6721564000472,980.2025504999328,,,,,,,,,,,,,,,,,108,f,23,2022-11-25_15h14.30.650,RL,2022.2.4,60.31293972873755,
1,102,0,102,0,,,,,,,,,,None,980.2025504999328,980.2025504999328,980.2025504999328,980.2025504999328,980.2025504999328,980.2025504999328,i,0.395778700010851,980.6187146999873,980.6187146999873,980.6187146999873,980.6187146999873,980.6187146999873,980.6187146999873,980.9181133999955,980.9181133999955,982.3694066999014,982.3694066999014,982.3694066999014,982.3694066999014,982.3694066999014,982.3694066999014,982.3694066999014,982.3694066999014,982.3694066999014,982.3694066999014,982.3694066999014,982.3694066999014,982.3694066999014,982.3694066999014,982.3694066999014,982.3694066999014,982.3694066999014,984.8717731998768,984.8717731998768,984.8717731998768,984.8717731998768,984.8717731998768,35,39,57,66,57,63,3.0,1.2121485001407564,986.1018314999528,987.7314792999532,,,,984.8717731998768,984.8717731998768,984.8717731998768,984.8717731998768,984.8717731998768,984.8717731998768,984.8717731998768,984.8717731998768,984.8717731998768,,,,,108,f,23,2022-11-25_15h14.30.650,RL,2022.2.4,60.31293972873755,
1,103,0,103,0,,,,,,,,,,None,987.7314792999532,987.7314792999532,987.7314792999532,987.7314792999532,987.7314792999532,987.7314792999532,f,0.4407349000684917,988.1975288998801,988.1975288998801,988.1975288998801,988.1975288998801,988.1975288998801,988.1975288998801,988.4962214999832,988.4962214999832,990.0920795998536,990.0920795998536,990.1081564000342,990.1081564000342,990.1081564000342,990.1081564000342,990.1081564000342,990.1081564000342,990.1081564000342,990.1081564000342,990.1081564000342,990.1081564000342,990.1081564000342,990.1081564000342,990.1081564000342,990.1081564000342,990.1081564000342,992.6177055998705,992.6177055998705,992.6177055998705,992.6177055998705,992.6177055998705,36,45,59,68,45,74,3.0,1.1817042999900877,993.8140072999522,995.6262005998287,,,,,,,,,,,,,,,,,108,f,23,2022-11-25_15h14.30.650,RL,2022.2.4,60.31293972873755,
1,104,0,104,0,,,,,,,,,,None,995.6262005998287,995.6262005998287,995.6262005998287,995.6262005998287,995.6262005998287,995.6262005998287,j,0.5448900999035686,996.194079299923,996.194079299923,996.194079299923,996.194079299923,996.194079299923,996.194079299923,996.4911340998951,996.4911340998951,998.2859413998667,998.2859413998667,998.3024317000527,998.3024317000527,998.3024317000527,998.3024317000527,998.3024317000527,998.3024317000527,998.3024317000527,998.3024317000527,998.3024317000527,998.3024317000527,998.3024317000527,998.3024317000527,998.3024317000527,998.3024317000527,998.3024317000527,1000.8116822999436,1000.8116822999436,1000.8116822999436,1000.8116822999436,1000.8116822999436,35,52,51,66,66,63,4.0,1.0473450000863522,1001.8753607999533,1003.5716377999634,,,,,,,,,,,,,,,,,108,f,23,2022-11-25_15h14.30.650,RL,2022.2.4,60.31293972873755,
1,105,0,105,0,,,,,,,,,,None,1003.5716377999634,1003.5716377999634,1003.5716377999634,1003.5716377999634,1003.5716377999634,1003.5716377999634,i,0.4042450999841094,1004.0095351999626,1004.0095351999626,1004.0095351999626,1004.0095351999626,1004.0095351999626,1004.0095351999626,1004.2863230998628,1004.2863230998628,1005.9818467998412,1005.9818467998412,1005.9982063998468,1005.9982063998468,1005.9982063998468,1005.9982063998468,1005.9982063998468,1005.9982063998468,1005.9982063998468,1005.9982063998468,1005.9982063998468,1005.9982063998468,1005.9982063998468,1005.9982063998468,1005.9982063998468,1005.9982063998468,1005.9982063998468,1008.5072264999617,1008.5072264999617,1008.5072264999617,1008.5072264999617,1008.5072264999617,32,58,55,68,55,64,4.0,0.795986199984327,1009.3219671000261,1010.8853513000067,,,,,,,,,,,,,,,,,108,f,23,2022-11-25_15h14.30.650,RL,2022.2.4,60.31293972873755,
1,106,0,106,0,,,,,,,,,,None,1010.8853513000067,1010.8853513000067,1010.8853513000067,1010.8853513000067,1010.8853513000067,1010.8853513000067,f,0.38127360004000366,1011.2850386998616,1011.2850386998616,1011.2850386998616,1011.2850386998616,1011.2850386998616,1011.2850386998616,1011.583296299912,1011.583296299912,1012.7963475000579,1012.7963475000579,1012.7963475000579,1012.7963475000579,1012.7963475000579,1012.7963475000579,1012.7963475000579,1012.7963475000579,1012.7963475000579,1012.7963475000579,1012.7963475000579,1012.7963475000579,1012.7963475000579,1012.7963475000579,1012.7963475000579,1012.7963475000579,1012.7963475000579,1015.3057524999604,1015.3057524999604,1015.3057524999604,1015.3057524999604,1015.3057524999604,26,56,44,60,56,69,4.0,1.2641917001456022,1016.5854786999989,1018.3807906999718,,,,,,,,,,,,,,,,,108,f,23,2022-11-25_15h14.30.650,RL,2022.2.4,60.31293972873755,
1,107,0,107,0,,,,,,,,,,None,1018.3807906999718,1018.3807906999718,1018.3807906999718,1018.3807906999718,1018.3807906999718,1018.3807906999718,r,0.43069520010612905,1018.8311985000037,1018.8311985000037,1018.8311985000037,1018.8311985000037,1018.8311985000037,1018.8311985000037,1019.1291082999669,1019.1291082999669,1020.3924221999478,1020.3924221999478,1020.3924221999478,1020.3924221999478,1020.3924221999478,1020.3924221999478,1020.3924221999478,1020.3924221999478,1020.3924221999478,1020.3924221999478,1020.3924221999478,1020.3924221999478,1020.3924221999478,1020.3924221999478,1020.3924221999478,1020.3924221999478,1020.3924221999478,1022.9012587999459,1022.9012587999459,1022.9012587999459,1022.9012587999459,1022.9012587999459,31,47,44,77,31,59,3.0,0.6137264999561012,1023.5328931999393,1025.4118025000207,,,,,,,,,,,,,,,,,108,f,23,2022-11-25_15h14.30.650,RL,2022.2.4,60.31293972873755,
1,108,0,108,0,,,,,,,,,,None,1025.4118025000207,1025.4118025000207,1025.4118025000207,1025.4118025000207,1025.4118025000207,1025.4118025000207,f,0.34018010017462075,1025.7807058999315,1025.7807058999315,1025.7807058999315,1025.7807058999315,1025.7807058999315,1025.7807058999315,1026.077337200055,1026.077337200055,1027.4562432998791,1027.4562432998791,1027.4562432998791,1027.4562432998791,1027.4562432998791,1027.4562432998791,1027.4562432998791,1027.4562432998791,1027.4562432998791,1027.4562432998791,1027.4562432998791,1027.4562432998791,1027.4562432998791,1027.4562432998791,1027.4562432998791,1027.4562432998791,1027.4562432998791,1029.9654512999114,1029.9654512999114,1029.9654512999114,1029.9654512999114,1029.9654512999114,26,43,48,76,43,52,4.0,1.5942702000029385,1031.5777469000313,1033.2236984998453,,,,,,,,,,,,,,,,,108,f,23,2022-11-25_15h14.30.650,RL,2022.2.4,60.31293972873755,
1,109,0,109,0,,,,,,,,,,None,1033.2236984998453,1033.2236984998453,1033.2236984998453,1033.2236984998453,1033.2236984998453,1033.2236984998453,i,0.27332030003890395,1033.5255332000088,1033.5255332000088,1033.5255332000088,1033.5255332000088,1033.5255332000088,1033.5255332000088,1033.8225122999866,1033.8225122999866,1035.8002663999796,1035.8002663999796,1035.8173052000348,1035.8173052000348,1035.8173052000348,1035.8173052000348,1035.8173052000348,1035.8173052000348,1035.8173052000348,1035.8173052000348,1035.8173052000348,1035.8173052000348,1035.8173052000348,1035.8173052000348,1035.8173052000348,1035.8173052000348,1035.8173052000348,1038.3258424999658,1038.3258424999658,1038.3258424999658,1038.3258424999658,1038.3258424999658,24,52,55,79,55,63,3.0,1.7281365999951959,1040.0710399998352,1042.0003601999488,,,,,,,,,,,,,,,,,108,f,23,2022-11-25_15h14.30.650,RL,2022.2.4,60.31293972873755,
1,110,0,110,0,,,,,,,,,,None,1042.0003601999488,1042.0003601999488,1042.0003601999488,1042.0003601999488,1042.0003601999488,1042.0003601999488,j,0.38640839979052544,1042.4158431999385,1042.4158431999385,1042.4158431999385,1042.4158431999385,1042.4158431999385,1042.4158431999385,1042.71485270001,1042.71485270001,1044.3104099000338,1044.3104099000338,1044.3104099000338,1044.3104099000338,1044.3104099000338,1044.3104099000338,1044.3104099000338,1044.3104099000338,1044.3104099000338,1044.3104099000338,1044.3104099000338,1044.3104099000338,1044.3104099000338,1044.3104099000338,1044.3104099000338,1044.3104099000338,1044.3104099000338,1046.8195382000413,1046.8195382000413,1046.8195382000413,1046.8195382000413,1046.8195382000413,34,56,53,81,81,56,3.0,1.1127599000465125,1047.94958460005,1049.546321599977,,,,,,,,,,,,,,,,,108,f,23,2022-11-25_15h14.30.650,RL,2022.2.4,60.31293972873755,
1,111,0,111,0,,,,,,,,,,None,1049.546321599977,1049.546321599977,1049.546321599977,1049.546321599977,1049.546321599977,1049.546321599977,j,0.37008120003156364,1049.946267399937,1049.946267399937,1049.946267399937,1049.946267399937,1049.946267399937,1049.946267399937,1050.2443613000214,1050.2443613000214,1051.2418490999844,1051.2418490999844,1051.2418490999844,1051.2418490999844,1051.2418490999844,1051.2418490999844,1051.2418490999844,1051.2418490999844,1051.2418490999844,1051.2418490999844,1051.2418490999844,1051.2418490999844,1051.2418490999844,1051.2418490999844,1051.2418490999844,1051.2418490999844,1051.2418490999844,1053.7507424999494,1053.7507424999494,1053.7507424999494,1053.7507424999494,1053.7507424999494,26,49,59,80,80,68,4.0,1.3796542999334633,1055.1470278999768,1057.0090176998638,,,,,,,,,,,,,,,,,108,f,23,2022-11-25_15h14.30.650,RL,2022.2.4,60.31293972873755,
1,112,0,112,0,,,,,,,,,,None,1057.0090176998638,1057.0090176998638,1057.0090176998638,1057.0090176998638,1057.0090176998638,1057.0090176998638,j,0.39221229986287653,1057.4266309000086,1057.4266309000086,1057.4266309000086,1057.4266309000086,1057.4266309000086,1057.4266309000086,1057.723850299837,1057.723850299837,1059.718263299903,1059.718263299903,1059.7354144998826,1059.7354144998826,1059.7354144998826,1059.7354144998826,1059.7354144998826,1059.7354144998826,1059.7354144998826,1059.7354144998826,1059.7354144998826,1059.7354144998826,1059.7354144998826,1059.7354144998826,1059.7354144998826,1059.7354144998826,1059.7354144998826,1062.2439899998717,1062.2439899998717,1062.2439899998717,1062.2439899998717,1062.2439899998717,25,56,52,79,79,58,4.0,1.6947485997807235,1063.956005899934,1065.884878499899,,,,,,,,,,,,,,,,,108,f,23,2022-11-25_15h14.30.650,RL,2022.2.4,60.31293972873755,
