bandit,trials.thisRepN,trials.thisTrialN,trials.thisN,trials.thisIndex,instru_img1.started,instru_img1.stopped,instru_resp.keys,instru_resp.rt,instru_resp.started,instru_resp.stopped,instru_img2.started,instru_img2.stopped,instru_resp2.keys,instru_resp2.rt,instru_resp2.started,instru_resp2.stopped,fixbefore_2.started,fixbefore_2.stopped,rest_image.started,rest_image.stopped,rest_response.keys,rest_response.started,rest_response.stopped,red.started,red.stopped,green.started,green.stopped,yellow.started,yellow.stopped,blue.started,blue.stopped,choose_bandit.keys,choose_bandit.rt,choose_bandit.started,choose_bandit.stopped,Fixation.started,Fixation.stopped,black.started,black.stopped,red_2.started,red_2.stopped,green_2.started,green_2.stopped,yellow_2.started,yellow_2.stopped,blue_2.started,blue_2.stopped,fixation_2.started,fixation_2.stopped,docs.started,docs.stopped,image_2.started,image_2.stopped,black_com.started,black_com.stopped,reward_sub.started,reward_sub.stopped,palyerb.started,palyerb.stopped,reward__sub.started,reward__sub.stopped,compare.started,compare.stopped,red_compare.started,red_compare.stopped,green_com.started,green_com.stopped,yellow_com.started,yellow_com.stopped,blue_com.started,blue_com.stopped,rewardyellow,rewardred,rewardblue,rewardgreen,subchoose,playerb,image_3.started,image_3.stopped,slider.response,slider.rt,slider.started,slider.stopped,text.started,text.stopped,image_4.started,image_4.stopped,image_5.started,image_5.stopped,bigx.started,bigx.stopped,intertrialfix.started,intertrialfix.stopped,rest_response.rt,image.started,image.stopped,key_resp.keys,key_resp.rt,key_resp.started,key_resp.stopped,participant,Gender,Age,date,expName,psychopyVersion,frameRate,
,,,,,659.2417981000035,None,space,45.901920100004645,659.2417981000035,None,,,,,,,,,,,,,,,,,,,,,,,,,,,,,,,,,,,,,,,,,,,,,,,,,,,,,,,,,,,,,,,,,,,,,,,,,,,,,,,,,,,,,,,,,,,110,M,22,2022_Nov_25_1705,RL,2021.2.3,59.907143927732164,
,,,,,,,,,,,705.1752571999968,None,space,72.21780389999913,705.1752571999968,None,,,,,,,,,,,,,,,,,,,,,,,,,,,,,,,,,,,,,,,,,,,,,,,,,,,,,,,,,,,,,,,,,,,,,,,,,,,,,,,,,,,,,110,M,22,2022_Nov_25_1705,RL,2021.2.3,59.907143927732164,
1,0,0,0,0,,,,,,,,,,,,,777.4271193000022,None,None,None,None,None,None,778.4483059999984,None,778.4483059999984,None,778.4483059999984,None,778.4483059999984,None,f,0.7324482000040007,778.4483059999984,None,778.4483059999984,None,779.2222895000014,None,779.2222895000014,None,779.2222895000014,None,779.2222895000014,None,779.2222895000014,None,779.2222895000014,None,779.5175514000002,None,779.5175514000002,None,781.3188912999976,None,781.3188912999976,None,781.3188912999976,None,781.3188912999976,None,781.3188912999976,None,781.3188912999976,None,781.3188912999976,None,781.3188912999976,None,781.3188912999976,None,70,42,27,41,42,40,783.8465424000024,None,5.0,4.336889599995629,783.8465424000024,None,783.8465424000024,None,783.8465424000024,None,783.8465424000024,None,None,None,788.2343965999971,None,,,,,,,,110,M,22,2022_Nov_25_1705,RL,2021.2.3,59.907143927732164,
1,1,0,1,0,,,,,,,,,,,,,,,None,None,None,None,None,789.9426887000009,None,789.9426887000009,None,789.9426887000009,None,789.9426887000009,None,j,0.9184119999990799,789.9426887000009,None,789.9426887000009,None,790.9026623000027,None,790.9026623000027,None,790.9026623000027,None,790.9026623000027,None,790.9026623000027,None,790.9026623000027,None,791.1922773999977,792.1927326000005,791.1922773999977,792.1927326000005,792.2482571,None,792.2482571,None,792.2482571,None,792.2482571,None,792.2482571,None,792.2482571,None,792.2482571,None,792.2482571,None,792.2482571,None,70,45,35,34,34,62,794.7422991999993,None,2.0,2.54155890000402,794.7422991999993,None,794.7422991999993,None,794.7422991999993,None,794.7422991999993,None,None,None,797.2968860999972,None,,,,,,,,110,M,22,2022_Nov_25_1705,RL,2021.2.3,59.907143927732164,
1,2,0,2,0,,,,,,,,,,,,,,,None,None,None,None,None,798.8999034000008,None,798.8999034000008,None,798.8999034000008,None,798.8999034000008,None,None,,798.8999034000008,None,798.8999034000008,None,None,None,None,None,None,None,None,None,None,None,None,None,None,None,None,None,None,None,None,None,None,None,None,None,None,None,None,None,None,None,None,None,None,None,69,51,36,37,0,**,None,None,None,None,None,None,None,None,None,None,None,None,800.4697796999972,None,804.9847636999984,None,,,,,,,,110,M,22,2022_Nov_25_1705,RL,2021.2.3,59.907143927732164,
1,3,0,3,0,,,,,,,,,,,,,,,None,None,None,None,None,806.7037332000036,None,806.7037332000036,None,806.7037332000036,None,806.7037332000036,None,i,0.8375146999969729,806.7037332000036,None,806.7037332000036,None,807.5948942000032,None,807.5948942000032,None,807.5948942000032,None,807.5948942000032,None,807.5948942000032,None,807.5948942000032,None,807.8875429000036,808.7541389999969,807.8875429000036,808.7541389999969,808.7946328000035,None,808.7946328000035,None,808.7946328000035,None,808.7946328000035,None,808.7946328000035,None,808.7946328000035,None,808.7946328000035,None,808.7946328000035,None,808.7946328000035,None,66,52,30,44,30,71,811.3007246999987,None,1.0,2.1735814999992726,811.3007246999987,None,811.3007246999987,None,811.3007246999987,None,811.3007246999987,None,None,None,813.5003771999982,None,,,,,,,,110,M,22,2022_Nov_25_1705,RL,2021.2.3,59.907143927732164,
1,4,0,4,0,,,,,,,,,,,,,,,None,None,None,None,None,815.0634322999977,None,815.0634322999977,None,815.0634322999977,None,815.0634322999977,None,r,0.7688944999972591,815.0634322999977,None,815.0634322999977,None,815.8813706000001,None,815.8813706000001,None,815.8813706000001,None,815.8813706000001,None,815.8813706000001,None,815.8813706000001,None,816.1760772999987,None,816.1760772999987,None,818.0242464000039,None,818.0242464000039,None,818.0242464000039,None,818.0242464000039,None,818.0242464000039,None,818.0242464000039,None,818.0242464000039,None,818.0242464000039,None,818.0242464000039,None,69,42,36,42,69,65,820.5420706000004,None,5.0,2.4215377000000444,820.5420706000004,None,820.5420706000004,None,820.5420706000004,None,820.5420706000004,None,None,None,822.9806198000006,None,,,,,,,,110,M,22,2022_Nov_25_1705,RL,2021.2.3,59.907143927732164,
1,5,0,5,0,,,,,,,,,,,,,,,None,None,None,None,None,824.6507358000017,None,824.6507358000017,None,824.6507358000017,None,824.6507358000017,None,f,0.7016603000010946,824.6507358000017,None,824.6507358000017,None,825.3984576000003,None,825.3984576000003,None,825.3984576000003,None,825.3984576000003,None,825.3984576000003,None,825.3984576000003,None,825.6996174000014,None,825.6996174000014,None,827.6483164000019,None,827.6483164000019,None,827.6483164000019,None,827.6483164000019,None,827.6483164000019,None,827.6483164000019,None,827.6483164000019,None,827.6483164000019,None,827.6483164000019,None,64,46,40,42,46,72,830.1665044000038,None,3.0,1.6045306000014534,830.1665044000038,None,830.1665044000038,None,830.1665044000038,None,830.1665044000038,None,None,None,831.8072885000001,None,,,,,,,,110,M,22,2022_Nov_25_1705,RL,2021.2.3,59.907143927732164,
1,6,0,6,0,,,,,,,,,,,,,,,None,None,None,None,None,833.572734100002,None,833.572734100002,None,833.572734100002,None,833.572734100002,None,r,0.7494746000011219,833.572734100002,None,833.572734100002,None,834.362105500004,None,834.362105500004,None,834.362105500004,None,834.362105500004,None,834.362105500004,None,834.362105500004,None,834.6554421999972,836.1734483999971,834.6554421999972,836.1734483999971,836.2026857000019,None,836.2026857000019,None,836.2026857000019,None,836.2026857000019,None,836.2026857000019,None,836.2026857000019,None,836.2026857000019,None,836.2026857000019,None,836.2026857000019,None,64,52,41,33,64,72,838.7135435000018,None,2.0,2.134889100001601,838.7135435000018,None,838.7135435000018,None,838.7135435000018,None,838.7135435000018,None,None,None,840.8609773999997,None,,,,,,,,110,M,22,2022_Nov_25_1705,RL,2021.2.3,59.907143927732164,
1,7,0,7,0,,,,,,,,,,,,,,,None,None,None,None,None,842.646536500004,None,842.646536500004,None,842.646536500004,None,842.646536500004,None,i,0.6857946000018273,842.646536500004,None,842.646536500004,None,843.3872065000032,None,843.3872065000032,None,843.3872065000032,None,843.3872065000032,None,843.3872065000032,None,843.3872065000032,None,843.6791424000039,None,843.6791424000039,None,845.4149133000028,None,845.4149133000028,None,845.4149133000028,None,845.4149133000028,None,845.4149133000028,None,845.4149133000028,None,845.4149133000028,None,845.4149133000028,None,845.4149133000028,None,65,43,52,40,52,61,847.9320092999988,None,1.0,2.01745099999971,847.9320092999988,None,847.9320092999988,None,847.9320092999988,None,847.9320092999988,None,None,None,849.9666116000008,None,,,,,,,,110,M,22,2022_Nov_25_1705,RL,2021.2.3,59.907143927732164,
1,8,0,8,0,,,,,,,,,,,,,,,None,None,None,None,None,851.7195699000004,None,851.7195699000004,None,851.7195699000004,None,851.7195699000004,None,j,0.8224234000008437,851.7195699000004,None,851.7195699000004,None,852.5893416000035,None,852.5893416000035,None,852.5893416000035,None,852.5893416000035,None,852.5893416000035,None,852.5893416000035,None,852.8850097000031,None,852.8850097000031,None,854.5802719999992,None,854.5802719999992,None,854.5802719999992,None,854.5802719999992,None,854.5802719999992,None,854.5802719999992,None,854.5802719999992,None,854.5802719999992,None,854.5802719999992,None,57,45,48,41,41,63,857.0987916000013,None,1.0,1.6905449999976554,857.0987916000013,None,857.0987916000013,None,857.0987916000013,None,857.0987916000013,None,None,None,858.8056819999983,None,,,,,,,,110,M,22,2022_Nov_25_1705,RL,2021.2.3,59.907143927732164,
1,9,0,9,0,,,,,,,,,,,,,,,None,None,None,None,None,860.7468271000034,None,860.7468271000034,None,860.7468271000034,None,860.7468271000034,None,j,0.6354921000020113,860.7468271000034,None,860.7468271000034,None,861.4296134000033,None,861.4296134000033,None,861.4296134000033,None,861.4296134000033,None,861.4296134000033,None,861.4296134000033,None,861.7244331999973,862.8915925999972,861.7244331999973,862.8915925999972,862.9164234999989,None,862.9164234999989,None,862.9164234999989,None,862.9164234999989,None,862.9164234999989,None,862.9164234999989,None,862.9164234999989,None,862.9164234999989,None,862.9164234999989,None,53,38,50,31,31,68,865.4495710999981,None,1.0,1.4538651000038953,865.4495710999981,None,865.4495710999981,None,865.4495710999981,None,865.4495710999981,None,None,None,866.9208719000017,None,,,,,,,,110,M,22,2022_Nov_25_1705,RL,2021.2.3,59.907143927732164,
1,10,0,10,0,,,,,,,,,,,,,,,None,None,None,None,None,868.9376469999988,None,868.9376469999988,None,868.9376469999988,None,868.9376469999988,None,i,0.6751183000014862,868.9376469999988,None,868.9376469999988,None,869.648480099997,None,869.648480099997,None,869.648480099997,None,869.648480099997,None,869.648480099997,None,869.648480099997,None,869.9469883999991,None,869.9469883999991,None,871.5402172000031,None,871.5402172000031,None,871.5402172000031,None,871.5402172000031,None,871.5402172000031,None,871.5402172000031,None,871.5402172000031,None,871.5402172000031,None,871.5402172000031,None,64,39,53,37,53,64,874.0710911999995,None,2.0,2.219492399999581,874.0710911999995,None,874.0710911999995,None,874.0710911999995,None,874.0710911999995,None,None,None,876.3010498000003,None,,,,,,,,110,M,22,2022_Nov_25_1705,RL,2021.2.3,59.907143927732164,
1,11,0,11,0,,,,,,,,,,,,,,,None,None,None,None,None,878.1383649999989,None,878.1383649999989,None,878.1383649999989,None,878.1383649999989,None,f,0.6244865999979083,878.1383649999989,None,878.1383649999989,None,878.8251520999984,None,878.8251520999984,None,878.8251520999984,None,878.8251520999984,None,878.8251520999984,None,878.8251520999984,None,879.1196601999982,None,879.1196601999982,None,880.2433032999979,None,880.2433032999979,None,880.2433032999979,None,880.2433032999979,None,880.2433032999979,None,880.2433032999979,None,880.2433032999979,None,880.2433032999979,None,880.2433032999979,None,63,44,56,38,44,69,882.7690187999979,None,2.0,1.3371689999985392,882.7690187999979,None,882.7690187999979,None,882.7690187999979,None,882.7690187999979,None,None,None,884.1227647999985,None,,,,,,,,110,M,22,2022_Nov_25_1705,RL,2021.2.3,59.907143927732164,
1,12,0,12,0,,,,,,,,,,,,,,,None,None,None,None,None,885.8601334999985,None,885.8601334999985,None,885.8601334999985,None,885.8601334999985,None,r,0.762481800004025,885.8601334999985,None,885.8601334999985,None,886.655030300004,None,886.655030300004,None,886.655030300004,None,886.655030300004,None,886.655030300004,None,886.655030300004,None,886.9420737999972,888.3094102000032,886.9420737999972,888.3094102000032,888.3444604999968,None,888.3444604999968,None,888.3444604999968,None,888.3444604999968,None,888.3444604999968,None,888.3444604999968,None,888.3444604999968,None,888.3444604999968,None,888.3444604999968,None,62,42,53,47,62,48,890.8730166000023,None,6.0,1.0051584000029834,890.8730166000023,None,890.8730166000023,None,890.8730166000023,None,890.8730166000023,None,None,None,891.8953438000026,None,,,,,,,,110,M,22,2022_Nov_25_1705,RL,2021.2.3,59.907143927732164,
1,13,0,13,0,,,,,,,,,,,,,,,None,None,None,None,None,893.6167189999978,None,893.6167189999978,None,893.6167189999978,None,893.6167189999978,None,r,0.6258902000045055,893.6167189999978,None,893.6167189999978,None,894.2900833000022,None,894.2900833000022,None,894.2900833000022,None,894.2900833000022,None,894.2900833000022,None,894.2900833000022,None,894.5806212000025,896.0314025999978,894.5806212000025,896.0314025999978,896.0636483999988,None,896.0636483999988,None,896.0636483999988,None,896.0636483999988,None,896.0636483999988,None,896.0636483999988,None,896.0636483999988,None,896.0636483999988,None,896.0636483999988,None,59,30,50,39,59,62,898.5824262000024,None,5.0,1.5883188000007067,898.5824262000024,None,898.5824262000024,None,898.5824262000024,None,898.5824262000024,None,None,None,900.1857793000017,None,,,,,,,,110,M,22,2022_Nov_25_1705,RL,2021.2.3,59.907143927732164,
1,14,0,14,0,,,,,,,,,,,,,,,None,None,None,None,None,902.0558831000017,None,902.0558831000017,None,902.0558831000017,None,902.0558831000017,None,r,0.7467883000063011,902.0558831000017,None,902.0558831000017,None,902.838391199999,None,902.838391199999,None,902.838391199999,None,902.838391199999,None,902.838391199999,None,902.838391199999,None,903.1365204000031,None,903.1365204000031,None,904.0592923000004,None,904.0592923000004,None,904.0592923000004,None,904.0592923000004,None,904.0592923000004,None,904.0592923000004,None,904.0592923000004,None,904.0592923000004,None,904.0592923000004,None,69,34,53,45,69,68,906.5779906000025,None,7.0,1.4965044999989914,906.5779906000025,None,906.5779906000025,None,906.5779906000025,None,906.5779906000025,None,None,None,908.0896536,None,,,,,,,,110,M,22,2022_Nov_25_1705,RL,2021.2.3,59.907143927732164,
1,15,0,15,0,,,,,,,,,,,,,,,None,None,None,None,None,909.9426718000032,None,909.9426718000032,None,909.9426718000032,None,909.9426718000032,None,r,0.7800872000007075,909.9426718000032,None,909.9426718000032,None,910.7692584999968,None,910.7692584999968,None,910.7692584999968,None,910.7692584999968,None,910.7692584999968,None,910.7692584999968,None,911.0586666000017,None,911.0586666000017,None,912.0161308000024,None,912.0161308000024,None,912.0161308000024,None,912.0161308000024,None,912.0161308000024,None,912.0161308000024,None,912.0161308000024,None,912.0161308000024,None,912.0161308000024,None,68,32,48,49,68,59,914.5364704000021,None,7.0,0.8104881000035675,914.5364704000021,None,914.5364704000021,None,914.5364704000021,None,914.5364704000021,None,None,None,915.3614225999991,None,,,,,,,,110,M,22,2022_Nov_25_1705,RL,2021.2.3,59.907143927732164,
1,16,0,16,0,,,,,,,,,,,,,,,None,None,None,None,None,917.2205493000001,None,917.2205493000001,None,917.2205493000001,None,917.2205493000001,None,r,0.732385899995279,917.2205493000001,None,917.2205493000001,None,918.0052769000031,None,918.0052769000031,None,918.0052769000031,None,918.0052769000031,None,918.0052769000031,None,918.0052769000031,None,918.297132300002,920.1983697000032,918.297132300002,920.1983697000032,920.2349939999986,None,920.2349939999986,None,920.2349939999986,None,920.2349939999986,None,920.2349939999986,None,920.2349939999986,None,920.2349939999986,None,920.2349939999986,None,920.2349939999986,None,58,35,49,54,58,66,922.7495271000007,None,4.0,1.2144518999994034,922.7495271000007,None,922.7495271000007,None,922.7495271000007,None,922.7495271000007,None,None,None,923.9864079000035,None,,,,,,,,110,M,22,2022_Nov_25_1705,RL,2021.2.3,59.907143927732164,
1,17,0,17,0,,,,,,,,,,,,,,,None,None,None,None,None,925.6852221000008,None,925.6852221000008,None,925.6852221000008,None,925.6852221000008,None,f,0.5976530999978422,925.6852221000008,None,925.6852221000008,None,926.332006800003,None,926.332006800003,None,926.332006800003,None,926.332006800003,None,926.332006800003,None,926.332006800003,None,926.6196549000015,None,926.6196549000015,None,927.8166003000006,None,927.8166003000006,None,927.8166003000006,None,927.8166003000006,None,927.8166003000006,None,927.8166003000006,None,927.8166003000006,None,927.8166003000006,None,927.8166003000006,None,52,37,54,51,37,36,930.3318542999987,None,5.0,1.676617699995404,930.3318542999987,None,930.3318542999987,None,930.3318542999987,None,930.3318542999987,None,None,None,932.0380680000017,None,,,,,,,,110,M,22,2022_Nov_25_1705,RL,2021.2.3,59.907143927732164,
1,18,0,18,0,,,,,,,,,,,,,,,None,None,None,None,None,933.862627399998,None,933.862627399998,None,933.862627399998,None,933.862627399998,None,r,0.8003416999999899,933.862627399998,None,933.862627399998,None,934.7074470000007,None,934.7074470000007,None,934.7074470000007,None,934.7074470000007,None,934.7074470000007,None,934.7074470000007,None,935.0087819999972,None,935.0087819999972,None,936.0653248000017,None,936.0653248000017,None,936.0653248000017,None,936.0653248000017,None,936.0653248000017,None,936.0653248000017,None,936.0653248000017,None,936.0653248000017,None,936.0653248000017,None,60,29,52,57,60,50,938.5825066999969,None,7.0,0.933575800001563,938.5825066999969,None,938.5825066999969,None,938.5825066999969,None,938.5825066999969,None,None,None,939.5326523999975,None,,,,,,,,110,M,22,2022_Nov_25_1705,RL,2021.2.3,59.907143927732164,
1,19,0,19,0,,,,,,,,,,,,,,,None,None,None,None,None,941.4693009999974,None,941.4693009999974,None,941.4693009999974,None,941.4693009999974,None,r,0.45362639999802923,941.4693009999974,None,941.4693009999974,None,941.9638267999981,None,941.9638267999981,None,941.9638267999981,None,941.9638267999981,None,941.9638267999981,None,941.9638267999981,None,942.2636932000023,None,942.2636932000023,None,943.8190822000033,None,943.8190822000033,None,943.8190822000033,None,943.8190822000033,None,943.8190822000033,None,943.8190822000033,None,943.8190822000033,None,943.8190822000033,None,943.8190822000033,None,51,30,52,52,51,59,946.348920700002,None,6.0,0.7061866000003647,946.348920700002,None,946.348920700002,None,946.348920700002,None,946.348920700002,None,None,None,947.0685278000019,None,,,,,,,,110,M,22,2022_Nov_25_1705,RL,2021.2.3,59.907143927732164,
1,20,0,20,0,,,,,,,,,,,,,,,None,None,None,None,None,948.7043572000039,None,948.7043572000039,None,948.7043572000039,None,948.7043572000039,None,r,0.6684531999999308,948.7043572000039,None,948.7043572000039,None,949.4274850000002,None,949.4274850000002,None,949.4274850000002,None,949.4274850000002,None,949.4274850000002,None,949.4274850000002,None,949.7185806999987,None,949.7185806999987,None,951.6600701999996,None,951.6600701999996,None,951.6600701999996,None,951.6600701999996,None,951.6600701999996,None,951.6600701999996,None,951.6600701999996,None,951.6600701999996,None,951.6600701999996,None,57,25,55,58,57,59,954.1799696000016,None,6.0,1.643292199994903,954.1799696000016,None,954.1799696000016,None,954.1799696000016,None,954.1799696000016,None,None,None,955.8418173000027,None,,,,,,,,110,M,22,2022_Nov_25_1705,RL,2021.2.3,59.907143927732164,
1,21,0,21,0,,,,,,,,,,,,,,,None,None,None,None,None,957.7935232000018,None,957.7935232000018,None,957.7935232000018,None,957.7935232000018,None,r,0.8893167000060203,957.7935232000018,None,957.7935232000018,None,958.7302066999982,None,958.7302066999982,None,958.7302066999982,None,958.7302066999982,None,958.7302066999982,None,958.7302066999982,None,959.0253885999991,None,959.0253885999991,None,960.534996800001,None,960.534996800001,None,960.534996800001,None,960.534996800001,None,960.534996800001,None,960.534996800001,None,960.534996800001,None,960.534996800001,None,960.534996800001,None,53,29,53,57,53,73,963.054858800002,None,1.0,0.8091915000040899,963.054858800002,None,963.054858800002,None,963.054858800002,None,963.054858800002,None,None,None,963.8778096000024,None,,,,,,,,110,M,22,2022_Nov_25_1705,RL,2021.2.3,59.907143927732164,
1,22,0,22,0,,,,,,,,,,,,,,,None,None,None,None,None,965.6658174999975,None,965.6658174999975,None,965.6658174999975,None,965.6658174999975,None,f,0.6272687000018777,965.6658174999975,None,965.6658174999975,None,966.3370364000002,None,966.3370364000002,None,966.3370364000002,None,966.3370364000002,None,966.3370364000002,None,966.3370364000002,None,966.6138084999984,967.9145684000032,966.6138084999984,967.9145684000032,967.9481496000008,None,967.9481496000008,None,967.9481496000008,None,967.9481496000008,None,967.9481496000008,None,967.9481496000008,None,967.9481496000008,None,967.9481496000008,None,967.9481496000008,None,57,31,60,58,31,68,970.4744748000012,None,1.0,1.1927595000015572,970.4744748000012,None,970.4744748000012,None,970.4744748000012,None,970.4744748000012,None,None,None,971.6899240999992,None,,,,,,,,110,M,22,2022_Nov_25_1705,RL,2021.2.3,59.907143927732164,
1,23,0,23,0,,,,,,,,,,,,,,,None,None,None,None,None,973.2850726000033,None,973.2850726000033,None,973.2850726000033,None,973.2850726000033,None,r,0.6181146000017179,973.2850726000033,None,973.2850726000033,None,973.9407063000035,None,973.9407063000035,None,973.9407063000035,None,973.9407063000035,None,973.9407063000035,None,973.9407063000035,None,974.2360704000021,976.020156300001,974.2360704000021,976.020156300001,976.0485206000012,None,976.0485206000012,None,976.0485206000012,None,976.0485206000012,None,976.0485206000012,None,976.0485206000012,None,976.0485206000012,None,976.0485206000012,None,976.0485206000012,None,52,32,53,63,52,39,978.5697862000015,None,3.0,1.0874945999967167,978.5697862000015,None,978.5697862000015,None,978.5697862000015,None,978.5697862000015,None,None,None,979.6739049000025,None,,,,,,,,110,M,22,2022_Nov_25_1705,RL,2021.2.3,59.907143927732164,
1,24,0,24,0,,,,,,,,,,,,,,,None,None,None,None,None,981.3569889999999,None,981.3569889999999,None,981.3569889999999,None,981.3569889999999,None,r,0.7172831000061706,981.3569889999999,None,981.3569889999999,None,982.1128460999971,None,982.1128460999971,None,982.1128460999971,None,982.1128460999971,None,982.1128460999971,None,982.1128460999971,None,982.4079499,983.8590939999995,982.4079499,983.8590939999995,983.8955780000033,None,983.8955780000033,None,983.8955780000033,None,983.8955780000033,None,983.8955780000033,None,983.8955780000033,None,983.8955780000033,None,983.8955780000033,None,983.8955780000033,None,57,21,53,65,57,68,986.4285645999989,None,2.0,1.3528135000015027,986.4285645999989,None,986.4285645999989,None,986.4285645999989,None,986.4285645999989,None,None,None,987.8027010000005,None,,,,,,,,110,M,22,2022_Nov_25_1705,RL,2021.2.3,59.907143927732164,
1,25,0,25,0,,,,,,,,,,,,,,,None,None,None,None,None,989.5874745999972,None,989.5874745999972,None,989.5874745999972,None,989.5874745999972,None,r,0.5568978000010247,989.5874745999972,None,989.5874745999972,None,990.183772999997,None,990.183772999997,None,990.183772999997,None,990.183772999997,None,990.183772999997,None,990.183772999997,None,990.4802514999974,None,990.4802514999974,None,991.3094911000007,None,991.3094911000007,None,991.3094911000007,None,991.3094911000007,None,991.3094911000007,None,991.3094911000007,None,991.3094911000007,None,991.3094911000007,None,991.3094911000007,None,54,22,53,63,54,71,993.8241033000013,None,1.0,1.2094835999960196,993.8241033000013,None,993.8241033000013,None,993.8241033000013,None,993.8241033000013,None,None,None,995.0497106000039,None,,,,,,,,110,M,22,2022_Nov_25_1705,RL,2021.2.3,59.907143927732164,
1,26,0,26,0,,,,,,,,,,,,,,,None,None,None,None,None,996.8216971000002,None,996.8216971000002,None,996.8216971000002,None,996.8216971000002,None,r,0.6222667999973055,996.8216971000002,None,996.8216971000002,None,997.499270100001,None,997.499270100001,None,997.499270100001,None,997.499270100001,None,997.499270100001,None,997.499270100001,None,997.7856248000026,998.7859686000011,997.7856248000026,998.7859686000011,998.8211606999976,None,998.8211606999976,None,998.8211606999976,None,998.8211606999976,None,998.8211606999976,None,998.8211606999976,None,998.8211606999976,None,998.8211606999976,None,998.8211606999976,None,56,21,64,65,56,72,1001.3356972000038,None,1.0,0.9210210000019288,1001.3356972000038,None,1001.3356972000038,None,1001.3356972000038,None,1001.3356972000038,None,None,None,1002.2769498999987,None,,,,,,,,110,M,22,2022_Nov_25_1705,RL,2021.2.3,59.907143927732164,
1,27,0,27,0,,,,,,,,,,,,,,,None,None,None,None,None,1004.1751880000011,None,1004.1751880000011,None,1004.1751880000011,None,1004.1751880000011,None,f,0.6188070999996853,1004.1751880000011,None,1004.1751880000011,None,1004.8370921000023,None,1004.8370921000023,None,1004.8370921000023,None,1004.8370921000023,None,1004.8370921000023,None,1004.8370921000023,None,1005.1339488000012,1006.0409599999984,1005.1339488000012,1006.0409599999984,1006.0690614999985,None,1006.0690614999985,None,1006.0690614999985,None,1006.0690614999985,None,1006.0690614999985,None,1006.0690614999985,None,1006.0690614999985,None,1006.0690614999985,None,1006.0690614999985,None,56,23,55,58,23,61,1008.5882521000021,None,1.0,0.6885237999958917,1008.5882521000021,None,1008.5882521000021,None,1008.5882521000021,None,1008.5882521000021,None,None,None,1009.2971793000033,None,,,,,,,,110,M,22,2022_Nov_25_1705,RL,2021.2.3,59.907143927732164,
1,28,0,28,0,,,,,,,,,,,,,,,None,None,None,None,None,1011.2277459999968,None,1011.2277459999968,None,1011.2277459999968,None,1011.2277459999968,None,r,0.6766338999950676,1011.2277459999968,None,1011.2277459999968,None,1011.946855000002,None,1011.946855000002,None,1011.946855000002,None,1011.946855000002,None,1011.946855000002,None,1011.946855000002,None,1012.2291404999996,1013.3127611000018,1012.2291404999996,1013.3127611000018,1013.3486663000003,None,1013.3486663000003,None,1013.3486663000003,None,1013.3486663000003,None,1013.3486663000003,None,1013.3486663000003,None,1013.3486663000003,None,1013.3486663000003,None,1013.3486663000003,None,50,26,66,66,50,54,1015.8751486000037,None,4.0,1.0964385000042967,1015.8751486000037,None,1015.8751486000037,None,1015.8751486000037,None,1015.8751486000037,None,None,None,1016.9816097000003,None,,,,,,,,110,M,22,2022_Nov_25_1705,RL,2021.2.3,59.907143927732164,
1,29,0,29,0,,,,,,,,,,,,,,,None,None,None,None,None,1018.7695815999978,None,1018.7695815999978,None,1018.7695815999978,None,1018.7695815999978,None,i,0.6341489000042202,1018.7695815999978,None,1018.7695815999978,None,1019.4497744000037,None,1019.4497744000037,None,1019.4497744000037,None,1019.4497744000037,None,1019.4497744000037,None,1019.4497744000037,None,1019.7509164000003,None,1019.7509164000003,None,1020.8574191000007,None,1020.8574191000007,None,1020.8574191000007,None,1020.8574191000007,None,1020.8574191000007,None,1020.8574191000007,None,1020.8574191000007,None,1020.8574191000007,None,1020.8574191000007,None,55,26,64,61,64,71,1023.3909643000006,None,6.0,1.4483035999946878,1023.3909643000006,None,1023.3909643000006,None,1023.3909643000006,None,1023.3909643000006,None,None,None,1024.8538199000031,None,,,,,,,,110,M,22,2022_Nov_25_1705,RL,2021.2.3,59.907143927732164,
1,30,0,30,0,,,,,,,,,,,,,,,None,None,None,None,None,1026.6233168000035,None,1026.6233168000035,None,1026.6233168000035,None,1026.6233168000035,None,r,0.7811742999983835,1026.6233168000035,None,1026.6233168000035,None,1027.4443163000033,None,1027.4443163000033,None,1027.4443163000033,None,1027.4443163000033,None,1027.4443163000033,None,1027.4443163000033,None,1027.7396668000001,None,1027.7396668000001,None,1028.7919913000005,None,1028.7919913000005,None,1028.7919913000005,None,1028.7919913000005,None,1028.7919913000005,None,1028.7919913000005,None,1028.7919913000005,None,1028.7919913000005,None,1028.7919913000005,None,59,19,61,63,59,63,1031.3037210000039,None,3.0,0.9707854000007501,1031.3037210000039,None,1031.3037210000039,None,1031.3037210000039,None,1031.3037210000039,None,None,None,1032.2975185000032,None,,,,,,,,110,M,22,2022_Nov_25_1705,RL,2021.2.3,59.907143927732164,
1,31,0,31,0,,,,,,,,,,,,,,,None,None,None,None,None,1033.9978951000012,None,1033.9978951000012,None,1033.9978951000012,None,1033.9978951000012,None,r,0.6269313999946462,1033.9978951000012,None,1033.9978951000012,None,1034.6662194000019,None,1034.6662194000019,None,1034.6662194000019,None,1034.6662194000019,None,1034.6662194000019,None,1034.6662194000019,None,1034.971533099997,None,1034.971533099997,None,1036.7849397000027,None,1036.7849397000027,None,1036.7849397000027,None,1036.7849397000027,None,1036.7849397000027,None,1036.7849397000027,None,1036.7849397000027,None,1036.7849397000027,None,1036.7849397000027,None,51,21,62,63,51,69,1039.3080439999976,None,1.0,1.251678599997831,1039.3080439999976,None,1039.3080439999976,None,1039.3080439999976,None,1039.3080439999976,None,None,None,1040.5646478999988,None,,,,,,,,110,M,22,2022_Nov_25_1705,RL,2021.2.3,59.907143927732164,
1,32,0,32,0,,,,,,,,,,,,,,,None,None,None,None,None,1042.4530565000023,None,1042.4530565000023,None,1042.4530565000023,None,1042.4530565000023,None,f,0.7109201999992365,1042.4530565000023,None,1042.4530565000023,None,1043.2079876999996,None,1043.2079876999996,None,1043.2079876999996,None,1043.2079876999996,None,1043.2079876999996,None,1043.2079876999996,None,1043.5005187999996,None,1043.5005187999996,None,1045.4431738999992,None,1045.4431738999992,None,1045.4431738999992,None,1045.4431738999992,None,1045.4431738999992,None,1045.4431738999992,None,1045.4431738999992,None,1045.4431738999992,None,1045.4431738999992,None,44,25,58,56,25,54,1047.9555185999998,None,1.0,1.0619273999982397,1047.9555185999998,None,1047.9555185999998,None,1047.9555185999998,None,1047.9555185999998,None,None,None,1049.039952799998,None,,,,,,,,110,M,22,2022_Nov_25_1705,RL,2021.2.3,59.907143927732164,
1,33,0,33,0,,,,,,,,,,,,,,,None,None,None,None,None,1050.743149300004,None,1050.743149300004,None,1050.743149300004,None,1050.743149300004,None,i,0.3907937000039965,1050.743149300004,None,1050.743149300004,None,1051.1717256999982,None,1051.1717256999982,None,1051.1717256999982,None,1051.1717256999982,None,1051.1717256999982,None,1051.1717256999982,None,1051.4557195000016,1053.2736643000026,1051.4557195000016,1053.2736643000026,1053.3039017999981,None,1053.3039017999981,None,1053.3039017999981,None,1053.3039017999981,None,1053.3039017999981,None,1053.3039017999981,None,1053.3039017999981,None,1053.3039017999981,None,1053.3039017999981,None,46,19,64,63,64,81,1055.8306108000033,None,4.0,0.9972542999967118,1055.8306108000033,None,1055.8306108000033,None,1055.8306108000033,None,1055.8306108000033,None,None,None,1056.8491606000025,None,,,,,,,,110,M,22,2022_Nov_25_1705,RL,2021.2.3,59.907143927732164,
1,34,0,34,0,,,,,,,,,,,,,,,None,None,None,None,None,1058.4940816000017,None,1058.4940816000017,None,1058.4940816000017,None,1058.4940816000017,None,j,0.31050040000263834,1058.4940816000017,None,1058.4940816000017,None,1058.855827600004,None,1058.855827600004,None,1058.855827600004,None,1058.855827600004,None,1058.855827600004,None,1058.855827600004,None,1059.144944599997,1060.7791242000021,1059.144944599997,1060.7791242000021,1060.814164299998,None,1060.814164299998,None,1060.814164299998,None,1060.814164299998,None,1060.814164299998,None,1060.814164299998,None,1060.814164299998,None,1060.814164299998,None,1060.814164299998,None,48,32,58,58,58,63,1063.3245462999985,None,4.0,1.5901270999966073,1063.3245462999985,None,1063.3245462999985,None,1063.3245462999985,None,1063.3245462999985,None,None,None,1064.9316442999989,None,,,,,,,,110,M,22,2022_Nov_25_1705,RL,2021.2.3,59.907143927732164,
1,35,0,35,0,,,,,,,,,,,,,,,None,None,None,None,None,1066.524621800003,None,1066.524621800003,None,1066.524621800003,None,1066.524621800003,None,j,0.5699841000023298,1066.524621800003,None,1066.524621800003,None,1067.1466656999983,None,1067.1466656999983,None,1067.1466656999983,None,1067.1466656999983,None,1067.1466656999983,None,1067.1466656999983,None,1067.4335929000008,1068.9347352999976,1067.4335929000008,1068.9347352999976,1068.9686107000016,None,1068.9686107000016,None,1068.9686107000016,None,1068.9686107000016,None,1068.9686107000016,None,1068.9686107000016,None,1068.9686107000016,None,1068.9686107000016,None,1068.9686107000016,None,47,27,68,62,62,81,1071.497471200004,None,3.0,0.9446812000023783,1071.497471200004,None,1071.497471200004,None,1071.497471200004,None,1071.497471200004,None,None,None,1072.4535271999994,None,,,,,,,,110,M,22,2022_Nov_25_1705,RL,2021.2.3,59.907143927732164,
1,36,0,36,0,,,,,,,,,,,,,,,None,None,None,None,None,1073.9737802000018,None,1073.9737802000018,None,1073.9737802000018,None,1073.9737802000018,None,j,0.8010173000002396,1073.9737802000018,None,1073.9737802000018,None,1074.8256529999999,None,1074.8256529999999,None,1074.8256529999999,None,1074.8256529999999,None,1074.8256529999999,None,1074.8256529999999,None,1075.1223452999984,1076.3063726000037,1075.1223452999984,1076.3063726000037,1076.337797100001,None,1076.337797100001,None,1076.337797100001,None,1076.337797100001,None,1076.337797100001,None,1076.337797100001,None,1076.337797100001,None,1076.337797100001,None,1076.337797100001,None,50,38,61,74,74,78,1078.8482579999982,None,4.0,2.146204900003795,1078.8482579999982,None,1078.8482579999982,None,1078.8482579999982,None,1078.8482579999982,None,None,None,1081.0094898000025,None,,,,,,,,110,M,22,2022_Nov_25_1705,RL,2021.2.3,59.907143927732164,
1,37,0,37,0,,,,,,,,,,,,,,,None,None,None,None,None,1083.0121909000009,None,1083.0121909000009,None,1083.0121909000009,None,1083.0121909000009,None,j,0.6925071000005119,1083.0121909000009,None,1083.0121909000009,None,1083.7434846999968,None,1083.7434846999968,None,1083.7434846999968,None,1083.7434846999968,None,1083.7434846999968,None,1083.7434846999968,None,1084.0285853000023,1085.3961802999984,1084.0285853000023,1085.3961802999984,1085.4314195999978,None,1085.4314195999978,None,1085.4314195999978,None,1085.4314195999978,None,1085.4314195999978,None,1085.4314195999978,None,1085.4314195999978,None,1085.4314195999978,None,1085.4314195999978,None,46,35,58,63,63,75,1087.943927100001,None,4.0,1.7393984000009368,1087.943927100001,None,1087.943927100001,None,1087.943927100001,None,1087.943927100001,None,None,None,1089.7017656000025,None,,,,,,,,110,M,22,2022_Nov_25_1705,RL,2021.2.3,59.907143927732164,
1,38,0,38,0,,,,,,,,,,,,,,,None,None,None,None,None,1091.3867277000027,None,1091.3867277000027,None,1091.3867277000027,None,1091.3867277000027,None,j,0.8180680000004941,1091.3867277000027,None,1091.3867277000027,None,1092.240402800002,None,1092.240402800002,None,1092.240402800002,None,1092.240402800002,None,1092.240402800002,None,1092.240402800002,None,1092.5343464000034,1094.0186659000028,1092.5343464000034,1094.0186659000028,1094.046340300003,None,1094.046340300003,None,1094.046340300003,None,1094.046340300003,None,1094.046340300003,None,1094.046340300003,None,1094.046340300003,None,1094.046340300003,None,1094.046340300003,None,50,31,53,76,76,70,1096.561623200003,None,5.0,1.6259229999996023,1096.561623200003,None,1096.561623200003,None,1096.561623200003,None,1096.561623200003,None,None,None,1098.2050471999974,None,,,,,,,,110,M,22,2022_Nov_25_1705,RL,2021.2.3,59.907143927732164,
1,39,0,39,0,,,,,,,,,,,,,,,None,None,None,None,None,1099.940708000002,None,1099.940708000002,None,1099.940708000002,None,1099.940708000002,None,j,0.6941387000042596,1099.940708000002,None,1099.940708000002,None,1100.6704224999994,None,1100.6704224999994,None,1100.6704224999994,None,1100.6704224999994,None,1100.6704224999994,None,1100.6704224999994,None,1100.956943899997,None,1100.956943899997,None,1101.8888277000005,None,1101.8888277000005,None,1101.8888277000005,None,1101.8888277000005,None,1101.8888277000005,None,1101.8888277000005,None,1101.8888277000005,None,1101.8888277000005,None,1101.8888277000005,None,51,34,65,70,70,68,1104.4062603999992,None,6.0,0.884963800002879,1104.4062603999992,None,1104.4062603999992,None,1104.4062603999992,None,1104.4062603999992,None,None,None,1105.3039723999973,None,,,,,,,,110,M,22,2022_Nov_25_1705,RL,2021.2.3,59.907143927732164,
1,40,0,40,0,,,,,,,,,,,,,,,None,None,None,None,None,1107.0832442000028,None,1107.0832442000028,None,1107.0832442000028,None,1107.0832442000028,None,j,0.6817712999982177,1107.0832442000028,None,1107.0832442000028,None,1107.8193449000028,None,1107.8193449000028,None,1107.8193449000028,None,1107.8193449000028,None,1107.8193449000028,None,1107.8193449000028,None,1108.11204,1109.3794718999998,1108.11204,1109.3794718999998,1109.4081994000007,None,1109.4081994000007,None,1109.4081994000007,None,1109.4081994000007,None,1109.4081994000007,None,1109.4081994000007,None,1109.4081994000007,None,1109.4081994000007,None,1109.4081994000007,None,46,36,68,65,65,58,1111.9208285999994,None,7.0,0.9150187999985064,1111.9208285999994,None,1111.9208285999994,None,1111.9208285999994,None,1111.9208285999994,None,None,None,1112.8488063999976,None,,,,,,,,110,M,22,2022_Nov_25_1705,RL,2021.2.3,59.907143927732164,
1,41,0,41,0,,,,,,,,,,,,,,,None,None,None,None,None,1114.4042215000009,None,1114.4042215000009,None,1114.4042215000009,None,1114.4042215000009,None,j,0.7007507000016631,1114.4042215000009,None,1114.4042215000009,None,1115.1536108,None,1115.1536108,None,1115.1536108,None,1115.1536108,None,1115.1536108,None,1115.1536108,None,1115.4502936999997,1116.6176543000038,1115.4502936999997,1116.6176543000038,1116.6378554999974,None,1116.6378554999974,None,1116.6378554999974,None,1116.6378554999974,None,1116.6378554999974,None,1116.6378554999974,None,1116.6378554999974,None,1116.6378554999974,None,1116.6378554999974,None,45,39,63,66,66,54,1119.1581664999976,None,7.0,1.1257413999992423,1119.1581664999976,None,1119.1581664999976,None,1119.1581664999976,None,1119.1581664999976,None,None,None,1120.3057020999986,None,,,,,,,,110,M,22,2022_Nov_25_1705,RL,2021.2.3,59.907143927732164,
1,42,0,42,0,,,,,,,,,,,,,,,None,None,None,None,None,1121.8267543000038,None,1121.8267543000038,None,1121.8267543000038,None,1121.8267543000038,None,j,0.6884492999961367,1121.8267543000038,None,1121.8267543000038,None,1122.5544599999994,None,1122.5544599999994,None,1122.5544599999994,None,1122.5544599999994,None,1122.5544599999994,None,1122.5544599999994,None,1122.855351099999,None,1122.855351099999,None,1124.8638033000025,None,1124.8638033000025,None,1124.8638033000025,None,1124.8638033000025,None,1124.8638033000025,None,1124.8638033000025,None,1124.8638033000025,None,1124.8638033000025,None,1124.8638033000025,None,43,31,65,71,71,66,1127.3881201999975,None,7.0,2.2086201999991317,1127.3881201999975,None,1127.3881201999975,None,1127.3881201999975,None,1127.3881201999975,None,None,None,1129.6144171999986,None,,,,,,,,110,M,22,2022_Nov_25_1705,RL,2021.2.3,59.907143927732164,
1,43,0,43,0,,,,,,,,,,,,,,,None,None,None,None,None,1131.2613966999998,None,1131.2613966999998,None,1131.2613966999998,None,1131.2613966999998,None,j,0.8437302000020281,1131.2613966999998,None,1131.2613966999998,None,1132.1563169,None,1132.1563169,None,1132.1563169,None,1132.1563169,None,1132.1563169,None,1132.1563169,None,1132.4453147000022,1134.2298843000026,1132.4453147000022,1134.2298843000026,1134.249713600002,None,1134.249713600002,None,1134.249713600002,None,1134.249713600002,None,1134.249713600002,None,1134.249713600002,None,1134.249713600002,None,1134.249713600002,None,1134.249713600002,None,46,36,66,70,70,48,1136.7663964000021,None,7.0,0.649790600000415,1136.7663964000021,None,1136.7663964000021,None,1136.7663964000021,None,1136.7663964000021,None,None,None,1137.436053700003,None,,,,,,,,110,M,22,2022_Nov_25_1705,RL,2021.2.3,59.907143927732164,
1,44,0,44,0,,,,,,,,,,,,,,,None,None,None,None,None,1139.4017564000023,None,1139.4017564000023,None,1139.4017564000023,None,1139.4017564000023,None,j,0.8333339000018896,1139.4017564000023,None,1139.4017564000023,None,1140.269405500003,None,1140.269405500003,None,1140.269405500003,None,1140.269405500003,None,1140.269405500003,None,1140.269405500003,None,1140.567989199997,None,1140.567989199997,None,1142.455527799997,None,1142.455527799997,None,1142.455527799997,None,1142.455527799997,None,1142.455527799997,None,1142.455527799997,None,1142.455527799997,None,1142.455527799997,None,1142.455527799997,None,39,35,65,78,78,62,1144.9890043999985,None,7.0,0.7476246000005631,1144.9890043999985,None,1144.9890043999985,None,1144.9890043999985,None,1144.9890043999985,None,None,None,1145.7541863000006,None,,,,,,,,110,M,22,2022_Nov_25_1705,RL,2021.2.3,59.907143927732164,
1,45,0,45,0,,,,,,,,,,,,,,,None,None,None,None,None,1147.7571964000017,None,1147.7571964000017,None,1147.7571964000017,None,1147.7571964000017,None,j,0.37901249999413267,1147.7571964000017,None,1147.7571964000017,None,1148.1819423999987,None,1148.1819423999987,None,1148.1819423999987,None,1148.1819423999987,None,1148.1819423999987,None,1148.1819423999987,None,1148.472980700004,1149.7739473999973,1148.472980700004,1149.7739473999973,1149.7963279000032,None,1149.7963279000032,None,1149.7963279000032,None,1149.7963279000032,None,1149.7963279000032,None,1149.7963279000032,None,1149.7963279000032,None,1149.7963279000032,None,1149.7963279000032,None,52,39,62,62,62,54,1152.3189913000024,None,6.0,0.6765687000006437,1152.3189913000024,None,1152.3189913000024,None,1152.3189913000024,None,1152.3189913000024,None,None,None,1153.009463399998,None,,,,,,,,110,M,22,2022_Nov_25_1705,RL,2021.2.3,59.907143927732164,
1,46,0,46,0,,,,,,,,,,,,,,,None,None,None,None,None,1154.7963827999993,None,1154.7963827999993,None,1154.7963827999993,None,1154.7963827999993,None,j,0.8191275999997742,1154.7963827999993,None,1154.7963827999993,None,1155.669004700001,None,1155.669004700001,None,1155.669004700001,None,1155.669004700001,None,1155.669004700001,None,1155.669004700001,None,1155.9617760999972,None,1155.9617760999972,None,1157.3615929000007,None,1157.3615929000007,None,1157.3615929000007,None,1157.3615929000007,None,1157.3615929000007,None,1157.3615929000007,None,1157.3615929000007,None,1157.3615929000007,None,1157.3615929000007,None,48,37,55,77,77,48,1159.873837500003,None,7.0,0.9093903000029968,1159.873837500003,None,1159.873837500003,None,1159.873837500003,None,1159.873837500003,None,None,None,1160.8054321000018,None,,,,,,,,110,M,22,2022_Nov_25_1705,RL,2021.2.3,59.907143927732164,
1,47,0,47,0,,,,,,,,,,,,,,,None,None,None,None,None,1162.5358019999985,None,1162.5358019999985,None,1162.5358019999985,None,1162.5358019999985,None,j,0.7303628999943612,1162.5358019999985,None,1162.5358019999985,None,1163.3142807999975,None,1163.3142807999975,None,1163.3142807999975,None,1163.3142807999975,None,1163.3142807999975,None,1163.3142807999975,None,1163.6004694000003,1165.167904599999,1163.6004694000003,1165.167904599999,1165.1926937000026,None,1165.1926937000026,None,1165.1926937000026,None,1165.1926937000026,None,1165.1926937000026,None,1165.1926937000026,None,1165.1926937000026,None,1165.1926937000026,None,1165.1926937000026,None,52,39,60,75,75,73,1167.713844400001,None,7.0,0.691584200001671,1167.713844400001,None,1167.713844400001,None,1167.713844400001,None,1167.713844400001,None,None,None,1168.4202663000033,None,,,,,,,,110,M,22,2022_Nov_25_1705,RL,2021.2.3,59.907143927732164,
1,48,0,48,0,,,,,,,,,,,,,,,None,None,None,None,None,1169.9545460000008,None,1169.9545460000008,None,1169.9545460000008,None,1169.9545460000008,None,j,0.6916656000030343,1169.9545460000008,None,1169.9545460000008,None,1170.6903722999996,None,1170.6903722999996,None,1170.6903722999996,None,1170.6903722999996,None,1170.6903722999996,None,1170.6903722999996,None,1170.9890902999978,None,1170.9890902999978,None,1172.3789600000018,None,1172.3789600000018,None,1172.3789600000018,None,1172.3789600000018,None,1172.3789600000018,None,1172.3789600000018,None,1172.3789600000018,None,1172.3789600000018,None,1172.3789600000018,None,44,35,59,78,78,64,1174.909023500004,None,7.0,0.5344105999975,1174.909023500004,None,1174.909023500004,None,1174.909023500004,None,1174.909023500004,None,None,None,1175.458412400003,None,,,,,,,,110,M,22,2022_Nov_25_1705,RL,2021.2.3,59.907143927732164,
1,49,0,49,0,,,,,,,,,,,,,,,None,None,None,None,None,1177.1611983999974,None,1177.1611983999974,None,1177.1611983999974,None,1177.1611983999974,None,j,0.6550758999946993,1177.1611983999974,None,1177.1611983999974,None,1177.876594100002,None,1177.876594100002,None,1177.876594100002,None,1177.876594100002,None,1177.876594100002,None,1177.876594100002,None,1178.1604057000004,1180.1284154000023,1178.1604057000004,1180.1284154000023,1180.1601917000007,None,1180.1601917000007,None,1180.1601917000007,None,1180.1601917000007,None,1180.1601917000007,None,1180.1601917000007,None,1180.1601917000007,None,1180.1601917000007,None,1180.1601917000007,None,43,35,49,68,68,61,1182.6825506000023,None,6.0,0.8181677000029595,1182.6825506000023,None,1182.6825506000023,None,1182.6825506000023,None,1182.6825506000023,None,None,None,1183.516744499997,None,,,,,,,,110,M,22,2022_Nov_25_1705,RL,2021.2.3,59.907143927732164,
1,50,0,50,0,,,,,,,,,,,,,,,None,None,None,None,None,1185.1889472999974,None,1185.1889472999974,None,1185.1889472999974,None,1185.1889472999974,None,j,0.7775356999991345,1185.1889472999974,None,1185.1889472999974,None,1186.0024639999974,None,1186.0024639999974,None,1186.0024639999974,None,1186.0024639999974,None,1186.0024639999974,None,1186.0024639999974,None,1186.2992599999998,None,1186.2992599999998,None,1187.3785751000032,None,1187.3785751000032,None,1187.3785751000032,None,1187.3785751000032,None,1187.3785751000032,None,1187.3785751000032,None,1187.3785751000032,None,1187.3785751000032,None,1187.3785751000032,None,53,33,50,73,73,46,1189.8905925,None,7.0,0.8808838000040851,1189.8905925,None,1189.8905925,None,1189.8905925,None,1189.8905925,None,None,None,1190.790408300003,None,,,,,,,,110,M,22,2022_Nov_25_1705,RL,2021.2.3,59.907143927732164,
1,51,0,51,0,,,,,,,,,,,,,,,None,None,None,None,None,1192.372586700003,None,1192.372586700003,None,1192.372586700003,None,1192.372586700003,None,j,0.9640025999979116,1192.372586700003,None,1192.372586700003,None,1193.3794218999974,None,1193.3794218999974,None,1193.3794218999974,None,1193.3794218999974,None,1193.3794218999974,None,1193.3794218999974,None,1193.6712479999987,1194.9718560999972,1193.6712479999987,1194.9718560999972,1194.996933100003,None,1194.996933100003,None,1194.996933100003,None,1194.996933100003,None,1194.996933100003,None,1194.996933100003,None,1194.996933100003,None,1194.996933100003,None,1194.996933100003,None,51,43,50,82,82,64,1197.513605,None,7.0,1.2944197000033455,1197.513605,None,1197.513605,None,1197.513605,None,1197.513605,None,None,None,1198.8244758,None,,,,,,,,110,M,22,2022_Nov_25_1705,RL,2021.2.3,59.907143927732164,
1,52,0,52,0,,,,,,,,,,,,,,,None,None,None,None,None,1200.639815399998,None,1200.639815399998,None,1200.639815399998,None,1200.639815399998,None,j,0.6963930999991135,1200.639815399998,None,1200.639815399998,None,1201.380015499999,None,1201.380015499999,None,1201.380015499999,None,1201.380015499999,None,1201.380015499999,None,1201.380015499999,None,1201.6766846000028,None,1201.6766846000028,None,1202.534747400001,None,1202.534747400001,None,1202.534747400001,None,1202.534747400001,None,1202.534747400001,None,1202.534747400001,None,1202.534747400001,None,1202.534747400001,None,1202.534747400001,None,50,48,50,71,71,60,1205.0556037999995,None,7.0,1.2753636999987066,1205.0556037999995,None,1205.0556037999995,None,1205.0556037999995,None,1205.0556037999995,None,None,None,1206.3461935000014,None,,,,,,,,110,M,22,2022_Nov_25_1705,RL,2021.2.3,59.907143927732164,
1,53,0,53,0,,,,,,,,,,,,,,,None,None,None,None,None,1208.3333344999992,None,1208.3333344999992,None,1208.3333344999992,None,1208.3333344999992,None,j,0.5729318000012427,1208.3333344999992,None,1208.3333344999992,None,1208.961944499999,None,1208.961944499999,None,1208.961944499999,None,1208.961944499999,None,1208.961944499999,None,1208.961944499999,None,1209.2487468000036,1210.7662877999974,1209.2487468000036,1210.7662877999974,1210.7976787000007,None,1210.7976787000007,None,1210.7976787000007,None,1210.7976787000007,None,1210.7976787000007,None,1210.7976787000007,None,1210.7976787000007,None,1210.7976787000007,None,1210.7976787000007,None,49,32,61,79,79,76,1213.3150357999984,None,5.0,1.6863269000023138,1213.3150357999984,None,1213.3150357999984,None,1213.3150357999984,None,1213.3150357999984,None,None,None,1215.0191475000029,None,,,,,,,,110,M,22,2022_Nov_25_1705,RL,2021.2.3,59.907143927732164,
1,54,0,54,0,,,,,,,,,,,,,,,None,None,None,None,None,1216.874113400001,None,1216.874113400001,None,1216.874113400001,None,1216.874113400001,None,j,1.0023347000023932,1216.874113400001,None,1216.874113400001,None,1217.9317936000007,None,1217.9317936000007,None,1217.9317936000007,None,1217.9317936000007,None,1217.9317936000007,None,1217.9317936000007,None,1218.2215614000015,None,1218.2215614000015,None,1220.2034609999973,None,1220.2034609999973,None,1220.2034609999973,None,1220.2034609999973,None,1220.2034609999973,None,1220.2034609999973,None,1220.2034609999973,None,1220.2034609999973,None,1220.2034609999973,None,36,32,46,79,79,67,1222.7228808,None,6.0,2.7056152999939513,1222.7228808,None,1222.7228808,None,1222.7228808,None,1222.7228808,None,None,None,1225.4459164,None,,,,,,,,110,M,22,2022_Nov_25_1705,RL,2021.2.3,59.907143927732164,
1,55,0,55,0,,,,,,,,,,,,,,,None,None,None,None,None,1227.0821826000029,None,1227.0821826000029,None,1227.0821826000029,None,1227.0821826000029,None,j,1.1945549999945797,1227.0821826000029,None,1227.0821826000029,None,1228.3195533000035,None,1228.3195533000035,None,1228.3195533000035,None,1228.3195533000035,None,1228.3195533000035,None,1228.3195533000035,None,1228.6121305999986,None,1228.6121305999986,None,1229.803496499997,None,1229.803496499997,None,1229.803496499997,None,1229.803496499997,None,1229.803496499997,None,1229.803496499997,None,1229.803496499997,None,1229.803496499997,None,1229.803496499997,None,53,37,51,65,65,61,1232.3231195999979,None,5.0,1.2993229000057909,1232.3231195999979,None,1232.3231195999979,None,1232.3231195999979,None,1232.3231195999979,None,None,None,1233.6375738999996,None,,,,,,,,110,M,22,2022_Nov_25_1705,RL,2021.2.3,59.907143927732164,
1,56,0,56,0,,,,,,,,,,,,,,,None,None,None,None,None,1235.6378180000029,None,1235.6378180000029,None,1235.6378180000029,None,1235.6378180000029,None,j,0.7786955999981728,1235.6378180000029,None,1235.6378180000029,None,1236.459107900002,None,1236.459107900002,None,1236.459107900002,None,1236.459107900002,None,1236.459107900002,None,1236.459107900002,None,1236.750996900002,None,1236.750996900002,None,1238.0795999999973,None,1238.0795999999973,None,1238.0795999999973,None,1238.0795999999973,None,1238.0795999999973,None,1238.0795999999973,None,1238.0795999999973,None,1238.0795999999973,None,1238.0795999999973,None,43,36,52,64,64,77,1240.6042830000006,None,3.0,0.8796752999987802,1240.6042830000006,None,1240.6042830000006,None,1240.6042830000006,None,1240.6042830000006,None,None,None,1241.5039834999989,None,,,,,,,,110,M,22,2022_Nov_25_1705,RL,2021.2.3,59.907143927732164,
1,57,0,57,0,,,,,,,,,,,,,,,None,None,None,None,None,1243.3086656000014,None,1243.3086656000014,None,1243.3086656000014,None,1243.3086656000014,None,None,,1243.3086656000014,None,1243.3086656000014,None,None,None,None,None,None,None,None,None,None,None,None,None,None,None,None,None,None,None,None,None,None,None,None,None,None,None,None,None,None,None,None,None,None,None,42,41,53,74,0,**,None,None,None,None,None,None,None,None,None,None,None,None,1244.8694325000033,None,1249.3760616,None,,,,,,,,110,M,22,2022_Nov_25_1705,RL,2021.2.3,59.907143927732164,
1,58,0,58,0,,,,,,,,,,,,,,,None,None,None,None,None,1251.3115345999977,None,1251.3115345999977,None,1251.3115345999977,None,1251.3115345999977,None,j,0.524772299999313,1251.3115345999977,None,1251.3115345999977,None,1251.8815034,None,1251.8815034,None,1251.8815034,None,1251.8815034,None,1251.8815034,None,1251.8815034,None,1252.1783037999994,1253.9964997999996,1252.1783037999994,1253.9964997999996,1254.0284584999972,None,1254.0284584999972,None,1254.0284584999972,None,1254.0284584999972,None,1254.0284584999972,None,1254.0284584999972,None,1254.0284584999972,None,1254.0284584999972,None,1254.0284584999972,None,43,42,49,72,72,64,1256.535147399998,None,6.0,1.3330674000026193,1256.535147399998,None,1256.535147399998,None,1256.535147399998,None,1256.535147399998,None,None,None,1257.8869182999988,None,,,,,,,,110,M,22,2022_Nov_25_1705,RL,2021.2.3,59.907143927732164,
1,59,0,59,0,,,,,,,,,,,,,,,None,None,None,None,None,1259.4619843999972,None,1259.4619843999972,None,1259.4619843999972,None,1259.4619843999972,None,j,0.6847984999985783,1259.4619843999972,None,1259.4619843999972,None,1260.1911141000019,None,1260.1911141000019,None,1260.1911141000019,None,1260.1911141000019,None,1260.1911141000019,None,1260.1911141000019,None,1260.484444200003,1261.551626499997,1260.484444200003,1261.551626499997,1261.5862414000003,None,1261.5862414000003,None,1261.5862414000003,None,1261.5862414000003,None,1261.5862414000003,None,1261.5862414000003,None,1261.5862414000003,None,1261.5862414000003,None,1261.5862414000003,None,42,33,46,71,71,59,1264.0981506000026,None,6.0,1.6059782000011182,1264.0981506000026,None,1264.0981506000026,None,1264.0981506000026,None,1264.0981506000026,None,None,None,1265.720866399999,None,,,,,,,,110,M,22,2022_Nov_25_1705,RL,2021.2.3,59.907143927732164,
1,60,0,60,0,,,,,,,,,,,,,,,None,None,None,None,None,1267.4743625999981,None,1267.4743625999981,None,1267.4743625999981,None,1267.4743625999981,None,j,0.712361999998393,1267.4743625999981,None,1267.4743625999981,None,1268.2242847000016,None,1268.2242847000016,None,1268.2242847000016,None,1268.2242847000016,None,1268.2242847000016,None,1268.2242847000016,None,1268.5242198999986,None,1268.5242198999986,None,1269.9717382000017,None,1269.9717382000017,None,1269.9717382000017,None,1269.9717382000017,None,1269.9717382000017,None,1269.9717382000017,None,1269.9717382000017,None,1269.9717382000017,None,1269.9717382000017,None,41,47,45,71,71,76,1272.5052529000022,None,5.0,0.7894436999995378,1272.5052529000022,None,1272.5052529000022,None,1272.5052529000022,None,1272.5052529000022,None,None,None,1273.3027742999984,None,,,,,,,,110,M,22,2022_Nov_25_1705,RL,2021.2.3,59.907143927732164,
1,61,0,61,0,,,,,,,,,,,,,,,None,None,None,None,None,1275.0605082000038,None,1275.0605082000038,None,1275.0605082000038,None,1275.0605082000038,None,j,0.7667397000041092,1275.0605082000038,None,1275.0605082000038,None,1275.866022000002,None,1275.866022000002,None,1275.866022000002,None,1275.866022000002,None,1275.866022000002,None,1275.866022000002,None,1276.1619232000012,1277.8630954000037,1276.1619232000012,1277.8630954000037,1277.8912936999986,None,1277.8912936999986,None,1277.8912936999986,None,1277.8912936999986,None,1277.8912936999986,None,1277.8912936999986,None,1277.8912936999986,None,1277.8912936999986,None,1277.8912936999986,None,48,41,42,73,73,78,1280.4100715000022,None,5.0,0.904283600000781,1280.4100715000022,None,1280.4100715000022,None,1280.4100715000022,None,1280.4100715000022,None,None,None,1281.3412756000034,None,,,,,,,,110,M,22,2022_Nov_25_1705,RL,2021.2.3,59.907143927732164,
1,62,0,62,0,,,,,,,,,,,,,,,None,None,None,None,None,1283.2193270999996,None,1283.2193270999996,None,1283.2193270999996,None,1283.2193270999996,None,j,0.8076046999995015,1283.2193270999996,None,1283.2193270999996,None,1284.0745451999974,None,1284.0745451999974,None,1284.0745451999974,None,1284.0745451999974,None,1284.0745451999974,None,1284.0745451999974,None,1284.3674611000024,None,1284.3674611000024,None,1286.315695199999,None,1286.315695199999,None,1286.315695199999,None,1286.315695199999,None,1286.315695199999,None,1286.315695199999,None,1286.315695199999,None,1286.315695199999,None,1286.315695199999,None,48,37,54,77,77,56,1288.8422493000035,None,7.0,0.8820068999993964,1288.8422493000035,None,1288.8422493000035,None,1288.8422493000035,None,1288.8422493000035,None,None,None,1289.7389328999998,None,,,,,,,,110,M,22,2022_Nov_25_1705,RL,2021.2.3,59.907143927732164,
1,63,0,63,0,,,,,,,,,,,,,,,None,None,None,None,None,1291.7235817999972,None,1291.7235817999972,None,1291.7235817999972,None,1291.7235817999972,None,j,0.6732063999952516,1291.7235817999972,None,1291.7235817999972,None,1292.4395664999975,None,1292.4395664999975,None,1292.4395664999975,None,1292.4395664999975,None,1292.4395664999975,None,1292.4395664999975,None,1292.7397937999995,None,1292.7397937999995,None,1294.4298184,None,1294.4298184,None,1294.4298184,None,1294.4298184,None,1294.4298184,None,1294.4298184,None,1294.4298184,None,1294.4298184,None,1294.4298184,None,37,43,43,84,84,54,1296.957710200004,None,7.0,0.5357292999979109,1296.957710200004,None,1296.957710200004,None,1296.957710200004,None,1296.957710200004,None,None,None,1297.5096865000014,None,,,,,,,,110,M,22,2022_Nov_25_1705,RL,2021.2.3,59.907143927732164,
1,64,0,64,0,,,,,,,,,,,,,,,None,None,None,None,None,1299.1961073999992,None,1299.1961073999992,None,1299.1961073999992,None,1299.1961073999992,None,j,0.7405399999988731,1299.1961073999992,None,1299.1961073999992,None,1299.9835244999995,None,1299.9835244999995,None,1299.9835244999995,None,1299.9835244999995,None,1299.9835244999995,None,1299.9835244999995,None,1300.2824268999975,None,1300.2824268999975,None,1301.9922885999986,None,1301.9922885999986,None,1301.9922885999986,None,1301.9922885999986,None,1301.9922885999986,None,1301.9922885999986,None,1301.9922885999986,None,1301.9922885999986,None,1301.9922885999986,None,37,43,49,86,86,81,1304.5106837999992,None,7.0,1.6516632999991998,1304.5106837999992,None,1304.5106837999992,None,1304.5106837999992,None,1304.5106837999992,None,None,None,1306.170868000001,None,,,,,,,,110,M,22,2022_Nov_25_1705,RL,2021.2.3,59.907143927732164,
1,65,0,65,0,,,,,,,,,,,,,,,None,None,None,None,None,1308.1539446000024,None,1308.1539446000024,None,1308.1539446000024,None,1308.1539446000024,None,j,0.6332993999967584,1308.1539446000024,None,1308.1539446000024,None,1308.8433847999986,None,1308.8433847999986,None,1308.8433847999986,None,1308.8433847999986,None,1308.8433847999986,None,1308.8433847999986,None,1309.1346386000005,1310.2851917000007,1309.1346386000005,1310.2851917000007,1310.3102617999975,None,1310.3102617999975,None,1310.3102617999975,None,1310.3102617999975,None,1310.3102617999975,None,1310.3102617999975,None,1310.3102617999975,None,1310.3102617999975,None,1310.3102617999975,None,42,41,49,80,80,58,1312.8336251,None,7.0,0.9554337000008672,1312.8336251,None,1312.8336251,None,1312.8336251,None,1312.8336251,None,None,None,1313.8040120000005,None,,,,,,,,110,M,22,2022_Nov_25_1705,RL,2021.2.3,59.907143927732164,
1,66,0,66,0,,,,,,,,,,,,,,,None,None,None,None,None,1315.6746983999983,None,1315.6746983999983,None,1315.6746983999983,None,1315.6746983999983,None,j,0.7128857999996399,1315.6746983999983,None,1315.6746983999983,None,1316.4289100000024,None,1316.4289100000024,None,1316.4289100000024,None,1316.4289100000024,None,1316.4289100000024,None,1316.4289100000024,None,1316.7229399999997,None,1316.7229399999997,None,1318.7224435000026,None,1318.7224435000026,None,1318.7224435000026,None,1318.7224435000026,None,1318.7224435000026,None,1318.7224435000026,None,1318.7224435000026,None,1318.7224435000026,None,1318.7224435000026,None,34,47,54,88,88,54,1321.244075900002,None,7.0,0.7695029000024078,1321.244075900002,None,1321.244075900002,None,1321.244075900002,None,1321.244075900002,None,None,None,1322.0265186999968,None,,,,,,,,110,M,22,2022_Nov_25_1705,RL,2021.2.3,59.907143927732164,
1,67,0,67,0,,,,,,,,,,,,,,,None,None,None,None,None,1323.6796152000024,None,1323.6796152000024,None,1323.6796152000024,None,1323.6796152000024,None,j,0.7584922999958508,1323.6796152000024,None,1323.6796152000024,None,1324.4935466000024,None,1324.4935466000024,None,1324.4935466000024,None,1324.4935466000024,None,1324.4935466000024,None,1324.4935466000024,None,1324.778721900002,1326.6464994999988,1324.778721900002,1326.6464994999988,1326.6780966000006,None,1326.6780966000006,None,1326.6780966000006,None,1326.6780966000006,None,1326.6780966000006,None,1326.6780966000006,None,1326.6780966000006,None,1326.6780966000006,None,1326.6780966000006,None,35,42,54,80,80,79,1329.2000393999988,None,7.0,1.1017068000001018,1329.2000393999988,None,1329.2000393999988,None,1329.2000393999988,None,1329.2000393999988,None,None,None,1330.3155323000028,None,,,,,,,,110,M,22,2022_Nov_25_1705,RL,2021.2.3,59.907143927732164,
1,68,0,68,0,,,,,,,,,,,,,,,None,None,None,None,None,1332.0833592999988,None,1332.0833592999988,None,1332.0833592999988,None,1332.0833592999988,None,j,0.5748724000004586,1332.0833592999988,None,1332.0833592999988,None,1332.7062413000021,None,1332.7062413000021,None,1332.7062413000021,None,1332.7062413000021,None,1332.7062413000021,None,1332.7062413000021,None,1333.0011056000003,None,1333.0011056000003,None,1334.4715148000032,None,1334.4715148000032,None,1334.4715148000032,None,1334.4715148000032,None,1334.4715148000032,None,1334.4715148000032,None,1334.4715148000032,None,1334.4715148000032,None,1334.4715148000032,None,29,44,45,89,89,73,1336.9841718000025,None,7.0,2.407036299999163,1336.9841718000025,None,1336.9841718000025,None,1336.9841718000025,None,1336.9841718000025,None,None,None,1339.4051895000011,None,,,,,,,,110,M,22,2022_Nov_25_1705,RL,2021.2.3,59.907143927732164,
1,69,0,69,0,,,,,,,,,,,,,,,None,None,None,None,None,1341.109320100004,None,1341.109320100004,None,1341.109320100004,None,1341.109320100004,None,j,0.6687586999978521,1341.109320100004,None,1341.109320100004,None,1341.8291898000025,None,1341.8291898000025,None,1341.8291898000025,None,1341.8291898000025,None,1341.8291898000025,None,1341.8291898000025,None,1342.1242321000027,1343.691987099999,1342.1242321000027,1343.691987099999,1343.7224038999993,None,1343.7224038999993,None,1343.7224038999993,None,1343.7224038999993,None,1343.7224038999993,None,1343.7224038999993,None,1343.7224038999993,None,1343.7224038999993,None,1343.7224038999993,None,40,41,47,96,96,84,1346.2357039999988,None,7.0,1.62889140000334,1346.2357039999988,None,1346.2357039999988,None,1346.2357039999988,None,1346.2357039999988,None,None,None,1347.8783353000035,None,,,,,,,,110,M,22,2022_Nov_25_1705,RL,2021.2.3,59.907143927732164,
1,70,0,70,0,,,,,,,,,,,,,,,None,None,None,None,None,1349.4090380999987,None,1349.4090380999987,None,1349.4090380999987,None,1349.4090380999987,None,j,1.2289511999988463,1349.4090380999987,None,1349.4090380999987,None,1350.705189100001,None,1350.705189100001,None,1350.705189100001,None,1350.705189100001,None,1350.705189100001,None,1350.705189100001,None,1350.9973500999986,None,1350.9973500999986,None,1352.8468227999983,None,1352.8468227999983,None,1352.8468227999983,None,1352.8468227999983,None,1352.8468227999983,None,1352.8468227999983,None,1352.8468227999983,None,1352.8468227999983,None,1352.8468227999983,None,40,52,44,74,74,52,1355.3630601999976,None,5.0,1.1046692999952938,1355.3630601999976,None,1355.3630601999976,None,1355.3630601999976,None,1355.3630601999976,None,None,None,1356.4837956999982,None,,,,,,,,110,M,22,2022_Nov_25_1705,RL,2021.2.3,59.907143927732164,
1,71,0,71,0,,,,,,,,,,,,,,,None,None,None,None,None,1358.4904050999976,None,1358.4904050999976,None,1358.4904050999976,None,1358.4904050999976,None,j,1.3278266999986954,1358.4904050999976,None,1358.4904050999976,None,1359.8567012999993,None,1359.8567012999993,None,1359.8567012999993,None,1359.8567012999993,None,1359.8567012999993,None,1359.8567012999993,None,1360.153130300001,None,1360.153130300001,None,1361.6669574999978,None,1361.6669574999978,None,1361.6669574999978,None,1361.6669574999978,None,1361.6669574999978,None,1361.6669574999978,None,1361.6669574999978,None,1361.6669574999978,None,1361.6669574999978,None,32,41,47,81,81,78,1364.1769385000007,None,5.0,1.1497670999960974,1364.1769385000007,None,1364.1769385000007,None,1364.1769385000007,None,1364.1769385000007,None,None,None,1365.3458597999997,None,,,,,,,,110,M,22,2022_Nov_25_1705,RL,2021.2.3,59.907143927732164,
1,72,0,72,0,,,,,,,,,,,,,,,None,None,None,None,None,1367.0938137999983,None,1367.0938137999983,None,1367.0938137999983,None,1367.0938137999983,None,j,0.714808600001561,1367.0938137999983,None,1367.0938137999983,None,1367.8581086999984,None,1367.8581086999984,None,1367.8581086999984,None,1367.8581086999984,None,1367.8581086999984,None,1367.8581086999984,None,1368.1422902999984,1368.9927848000007,1368.1422902999984,1368.9927848000007,1369.0266094000035,None,1369.0266094000035,None,1369.0266094000035,None,1369.0266094000035,None,1369.0266094000035,None,1369.0266094000035,None,1369.0266094000035,None,1369.0266094000035,None,1369.0266094000035,None,38,49,53,85,85,79,1371.5459981000022,None,6.0,1.001668000004429,1371.5459981000022,None,1371.5459981000022,None,1371.5459981000022,None,1371.5459981000022,None,None,None,1372.571703900001,None,,,,,,,,110,M,22,2022_Nov_25_1705,RL,2021.2.3,59.907143927732164,
1,73,0,73,0,,,,,,,,,,,,,,,None,None,None,None,None,1374.4681356,None,1374.4681356,None,1374.4681356,None,1374.4681356,None,j,0.770291000000725,1374.4681356,None,1374.4681356,None,1375.2763565999994,None,1375.2763565999994,None,1375.2763565999994,None,1375.2763565999994,None,1375.2763565999994,None,1375.2763565999994,None,1375.5641675000006,1376.4310056000031,1375.5641675000006,1376.4310056000031,1376.464420700002,None,1376.464420700002,None,1376.464420700002,None,1376.464420700002,None,1376.464420700002,None,1376.464420700002,None,1376.464420700002,None,1376.464420700002,None,1376.464420700002,None,34,46,44,82,82,56,1378.9709666999988,None,6.0,0.6486358999973163,1378.9709666999988,None,1378.9709666999988,None,1378.9709666999988,None,1378.9709666999988,None,None,None,1379.6382557000034,None,,,,,,,,110,M,22,2022_Nov_25_1705,RL,2021.2.3,59.907143927732164,
1,74,0,74,0,,,,,,,,,,,,,,,None,None,None,None,None,1381.6158347000019,None,1381.6158347000019,None,1381.6158347000019,None,1381.6158347000019,None,j,0.6624587999976939,1381.6158347000019,None,1381.6158347000019,None,1382.3243635000035,None,1382.3243635000035,None,1382.3243635000035,None,1382.3243635000035,None,1382.3243635000035,None,1382.3243635000035,None,1382.6189958000032,1383.7695391000016,1382.6189958000032,1383.7695391000016,1383.7968664,None,1383.7968664,None,1383.7968664,None,1383.7968664,None,1383.7968664,None,1383.7968664,None,1383.7968664,None,1383.7968664,None,1383.7968664,None,37,48,36,83,83,70,1386.3166259999998,None,6.0,0.5549408000006224,1386.3166259999998,None,1386.3166259999998,None,1386.3166259999998,None,1386.3166259999998,None,None,None,1386.8893180000014,None,,,,,,,,110,M,22,2022_Nov_25_1705,RL,2021.2.3,59.907143927732164,
1,75,0,75,0,,,,,,,,,,,,,,,1388.5393074000021,None,q,1388.5393074000021,None,1473.6030877000012,None,1473.6030877000012,None,1473.6030877000012,None,1473.6030877000012,None,j,1.3101196999996318,1473.6030877000012,None,1473.6030877000012,None,1474.9539568000037,None,1474.9539568000037,None,1474.9539568000037,None,1474.9539568000037,None,1474.9539568000037,None,1474.9539568000037,None,1475.2496573000026,None,1475.2496573000026,None,1476.4809372000018,None,1476.4809372000018,None,1476.4809372000018,None,1476.4809372000018,None,1476.4809372000018,None,1476.4809372000018,None,1476.4809372000018,None,1476.4809372000018,None,1476.4809372000018,None,45,47,39,88,88,81,1479.0093041,None,5.0,1.4296720999991521,1479.0093041,None,1479.0093041,None,1479.0093041,None,1479.0093041,None,None,None,1480.4596323000005,None,85.03575999999885,,,,,,,110,M,22,2022_Nov_25_1705,RL,2021.2.3,59.907143927732164,
1,76,0,76,0,,,,,,,,,,,,,,,None,None,None,None,None,1482.4235791000028,None,1482.4235791000028,None,1482.4235791000028,None,1482.4235791000028,None,j,0.989260700000159,1482.4235791000028,None,1482.4235791000028,None,1483.4616239000025,None,1483.4616239000025,None,1483.4616239000025,None,1483.4616239000025,None,1483.4616239000025,None,1483.4616239000025,None,1483.7556054000015,1485.4900548000005,1483.7556054000015,1485.4900548000005,1485.5223802999972,None,1485.5223802999972,None,1485.5223802999972,None,1485.5223802999972,None,1485.5223802999972,None,1485.5223802999972,None,1485.5223802999972,None,1485.5223802999972,None,1485.5223802999972,None,34,55,42,90,90,48,1488.0459609000027,None,7.0,0.5467338000016753,1488.0459609000027,None,1488.0459609000027,None,1488.0459609000027,None,1488.0459609000027,None,None,None,1488.6122011999978,None,,,,,,,,110,M,22,2022_Nov_25_1705,RL,2021.2.3,59.907143927732164,
1,77,0,77,0,,,,,,,,,,,,,,,None,None,None,None,None,1490.6139263000005,None,1490.6139263000005,None,1490.6139263000005,None,1490.6139263000005,None,j,0.7587963999976637,1490.6139263000005,None,1490.6139263000005,None,1491.4068960000004,None,1491.4068960000004,None,1491.4068960000004,None,1491.4068960000004,None,1491.4068960000004,None,1491.4068960000004,None,1491.6945950000008,1492.6285403000002,1491.6945950000008,1492.6285403000002,1492.6575607999985,None,1492.6575607999985,None,1492.6575607999985,None,1492.6575607999985,None,1492.6575607999985,None,1492.6575607999985,None,1492.6575607999985,None,1492.6575607999985,None,1492.6575607999985,None,38,50,29,87,87,83,1495.1745231000023,None,5.0,1.342959299996437,1495.1745231000023,None,1495.1745231000023,None,1495.1745231000023,None,1495.1745231000023,None,None,None,1496.535636200002,None,,,,,,,,110,M,22,2022_Nov_25_1705,RL,2021.2.3,59.907143927732164,
1,78,0,78,0,,,,,,,,,,,,,,,None,None,None,None,None,1498.3993537999995,None,1498.3993537999995,None,1498.3993537999995,None,1498.3993537999995,None,j,1.0838659000000916,1498.3993537999995,None,1498.3993537999995,None,1499.5298070999997,None,1499.5298070999997,None,1499.5298070999997,None,1499.5298070999997,None,1499.5298070999997,None,1499.5298070999997,None,1499.8166290000008,1500.7838386000003,1499.8166290000008,1500.7838386000003,1500.8059969000024,None,1500.8059969000024,None,1500.8059969000024,None,1500.8059969000024,None,1500.8059969000024,None,1500.8059969000024,None,1500.8059969000024,None,1500.8059969000024,None,1500.8059969000024,None,43,53,34,84,84,77,1503.3216458000024,None,6.0,1.0487782999989577,1503.3216458000024,None,1503.3216458000024,None,1503.3216458000024,None,1503.3216458000024,None,None,None,1504.3870393000034,None,,,,,,,,110,M,22,2022_Nov_25_1705,RL,2021.2.3,59.907143927732164,
1,79,0,79,0,,,,,,,,,,,,,,,None,None,None,None,None,1505.9086257000017,None,1505.9086257000017,None,1505.9086257000017,None,1505.9086257000017,None,j,0.6443624999956228,1505.9086257000017,None,1505.9086257000017,None,1506.594305999999,None,1506.594305999999,None,1506.594305999999,None,1506.594305999999,None,1506.594305999999,None,1506.594305999999,None,1506.8883017999979,None,1506.8883017999979,None,1508.037691999998,None,1508.037691999998,None,1508.037691999998,None,1508.037691999998,None,1508.037691999998,None,1508.037691999998,None,1508.037691999998,None,1508.037691999998,None,1508.037691999998,None,42,45,34,66,66,60,1510.5576994000003,None,3.0,1.0001244000013685,1510.5576994000003,None,1510.5576994000003,None,1510.5576994000003,None,1510.5576994000003,None,None,None,1511.574635500001,None,,,,,,,,110,M,22,2022_Nov_25_1705,RL,2021.2.3,59.907143927732164,
1,80,0,80,0,,,,,,,,,,,,,,,None,None,None,None,None,1513.1257240999985,None,1513.1257240999985,None,1513.1257240999985,None,1513.1257240999985,None,j,0.6273048000002746,1513.1257240999985,None,1513.1257240999985,None,1513.8007657999988,None,1513.8007657999988,None,1513.8007657999988,None,1513.8007657999988,None,1513.8007657999988,None,1513.8007657999988,None,1514.0935709999976,None,1514.0935709999976,None,1515.852379099997,None,1515.852379099997,None,1515.852379099997,None,1515.852379099997,None,1515.852379099997,None,1515.852379099997,None,1515.852379099997,None,1515.852379099997,None,1515.852379099997,None,42,53,30,87,87,72,1518.3692287000013,None,6.0,1.060581400000956,1518.3692287000013,None,1518.3692287000013,None,1518.3692287000013,None,1518.3692287000013,None,None,None,1519.4498450000028,None,,,,,,,,110,M,22,2022_Nov_25_1705,RL,2021.2.3,59.907143927732164,
1,81,0,81,0,,,,,,,,,,,,,,,None,None,None,None,None,1521.3814686999976,None,1521.3814686999976,None,1521.3814686999976,None,1521.3814686999976,None,j,0.6927529000022332,1521.3814686999976,None,1521.3814686999976,None,1522.1305297,None,1522.1305297,None,1522.1305297,None,1522.1305297,None,1522.1305297,None,1522.1305297,None,1522.4157921000005,1524.3168345000013,1522.4157921000005,1524.3168345000013,1524.3381735000003,None,1524.3381735000003,None,1524.3381735000003,None,1524.3381735000003,None,1524.3381735000003,None,1524.3381735000003,None,1524.3381735000003,None,1524.3381735000003,None,1524.3381735000003,None,47,45,32,75,75,78,1526.8588725000009,None,1.0,0.7303376999989268,1526.8588725000009,None,1526.8588725000009,None,1526.8588725000009,None,1526.8588725000009,None,None,None,1527.6047468000033,None,,,,,,,,110,M,22,2022_Nov_25_1705,RL,2021.2.3,59.907143927732164,
1,82,0,82,0,,,,,,,,,,,,,,,None,None,None,None,None,1529.2620721999992,None,1529.2620721999992,None,1529.2620721999992,None,1529.2620721999992,None,j,0.45228200000565266,1529.2620721999992,None,1529.2620721999992,None,1529.768001700002,None,1529.768001700002,None,1529.768001700002,None,1529.768001700002,None,1529.768001700002,None,1529.768001700002,None,1530.0544446999993,1530.9217350000035,1530.0544446999993,1530.9217350000035,1530.9482140000036,None,1530.9482140000036,None,1530.9482140000036,None,1530.9482140000036,None,1530.9482140000036,None,1530.9482140000036,None,1530.9482140000036,None,1530.9482140000036,None,1530.9482140000036,None,42,52,39,78,78,74,1533.4700414000035,None,6.0,1.6710232000041287,1533.4700414000035,None,1533.4700414000035,None,1533.4700414000035,None,1533.4700414000035,None,None,None,1535.161669400004,None,,,,,,,,110,M,22,2022_Nov_25_1705,RL,2021.2.3,59.907143927732164,
1,83,0,83,0,,,,,,,,,,,,,,,None,None,None,None,None,1536.780282300002,None,1536.780282300002,None,1536.780282300002,None,1536.780282300002,None,j,0.7936169000022346,1536.780282300002,None,1536.780282300002,None,1537.605377699998,None,1537.605377699998,None,1537.605377699998,None,1537.605377699998,None,1537.605377699998,None,1537.605377699998,None,1537.8943037999998,None,1537.8943037999998,None,1539.3580445999978,None,1539.3580445999978,None,1539.3580445999978,None,1539.3580445999978,None,1539.3580445999978,None,1539.3580445999978,None,1539.3580445999978,None,1539.3580445999978,None,1539.3580445999978,None,46,39,39,75,75,56,1541.8779036999986,None,7.0,0.5357363000002806,1541.8779036999986,None,1541.8779036999986,None,1541.8779036999986,None,1541.8779036999986,None,None,None,1542.437030000001,None,,,,,,,,110,M,22,2022_Nov_25_1705,RL,2021.2.3,59.907143927732164,
1,84,0,84,0,,,,,,,,,,,,,,,None,None,None,None,None,1544.3509293000025,None,1544.3509293000025,None,1544.3509293000025,None,1544.3509293000025,None,j,0.5228714999975637,1544.3509293000025,None,1544.3509293000025,None,1544.9112690999973,None,1544.9112690999973,None,1544.9112690999973,None,1544.9112690999973,None,1544.9112690999973,None,1544.9112690999973,None,1545.1982321000032,1546.2488398999994,1545.1982321000032,1546.2488398999994,1546.2750792000006,None,1546.2750792000006,None,1546.2750792000006,None,1546.2750792000006,None,1546.2750792000006,None,1546.2750792000006,None,1546.2750792000006,None,1546.2750792000006,None,1546.2750792000006,None,46,43,35,61,61,79,1548.8110805999968,None,2.0,1.1937316999974428,1548.8110805999968,None,1548.8110805999968,None,1548.8110805999968,None,1548.8110805999968,None,None,None,1550.0259136000022,None,,,,,,,,110,M,22,2022_Nov_25_1705,RL,2021.2.3,59.907143927732164,
1,85,0,85,0,,,,,,,,,,,,,,,None,None,None,None,None,1551.6543453999984,None,1551.6543453999984,None,1551.6543453999984,None,1551.6543453999984,None,j,0.4700513999996474,1551.6543453999984,None,1551.6543453999984,None,1552.1785528999972,None,1552.1785528999972,None,1552.1785528999972,None,1552.1785528999972,None,1552.1785528999972,None,1552.1785528999972,None,1552.4530515000006,1553.8205308000033,1552.4530515000006,1553.8205308000033,1553.8656596,None,1553.8656596,None,1553.8656596,None,1553.8656596,None,1553.8656596,None,1553.8656596,None,1553.8656596,None,1553.8656596,None,1553.8656596,None,42,39,38,69,69,79,1556.3873244999995,None,2.0,1.703584499999124,1556.3873244999995,None,1556.3873244999995,None,1556.3873244999995,None,1556.3873244999995,None,None,None,1558.106958999997,None,,,,,,,,110,M,22,2022_Nov_25_1705,RL,2021.2.3,59.907143927732164,
1,86,0,86,0,,,,,,,,,,,,,,,None,None,None,None,None,1559.874780500002,None,1559.874780500002,None,1559.874780500002,None,1559.874780500002,None,j,1.0593666000058874,1559.874780500002,None,1559.874780500002,None,1560.985789899998,None,1560.985789899998,None,1560.985789899998,None,1560.985789899998,None,1560.985789899998,None,1560.985789899998,None,1561.287353599997,None,1561.287353599997,None,1563.2894119999983,None,1563.2894119999983,None,1563.2894119999983,None,1563.2894119999983,None,1563.2894119999983,None,1563.2894119999983,None,1563.2894119999983,None,1563.2894119999983,None,1563.2894119999983,None,39,38,47,67,67,49,1565.8067634000035,None,6.0,1.1749692000012146,1565.8067634000035,None,1565.8067634000035,None,1565.8067634000035,None,1565.8067634000035,None,None,None,1567.0033900999988,None,,,,,,,,110,M,22,2022_Nov_25_1705,RL,2021.2.3,59.907143927732164,
1,87,0,87,0,,,,,,,,,,,,,,,None,None,None,None,None,1568.6979890000002,None,1568.6979890000002,None,1568.6979890000002,None,1568.6979890000002,None,j,0.6662737999940873,1568.6979890000002,None,1568.6979890000002,None,1569.4024302000034,None,1569.4024302000034,None,1569.4024302000034,None,1569.4024302000034,None,1569.4024302000034,None,1569.4024302000034,None,1569.6985163999998,None,1569.6985163999998,None,1571.124778700003,None,1571.124778700003,None,1571.124778700003,None,1571.124778700003,None,1571.124778700003,None,1571.124778700003,None,1571.124778700003,None,1571.124778700003,None,1571.124778700003,None,43,34,52,55,55,81,1573.649027899999,None,1.0,1.8724468000000343,1573.649027899999,None,1573.649027899999,None,1573.649027899999,None,1573.649027899999,None,None,None,1575.539110800004,None,,,,,,,,110,M,22,2022_Nov_25_1705,RL,2021.2.3,59.907143927732164,
1,88,0,88,0,,,,,,,,,,,,,,,None,None,None,None,None,1577.0535165999972,None,1577.0535165999972,None,1577.0535165999972,None,1577.0535165999972,None,j,0.7810463000059826,1577.0535165999972,None,1577.0535165999972,None,1577.8857850999993,None,1577.8857850999993,None,1577.8857850999993,None,1577.8857850999993,None,1577.8857850999993,None,1577.8857850999993,None,1578.1709263000012,1579.3888271000033,1578.1709263000012,1579.3888271000033,1579.4154481000005,None,1579.4154481000005,None,1579.4154481000005,None,1579.4154481000005,None,1579.4154481000005,None,1579.4154481000005,None,1579.4154481000005,None,1579.4154481000005,None,1579.4154481000005,None,41,33,35,62,62,61,1581.9410983999987,None,4.0,2.4512490999986767,1581.9410983999987,None,1581.9410983999987,None,1581.9410983999987,None,1581.9410983999987,None,None,None,1584.408575399997,None,,,,,,,,110,M,22,2022_Nov_25_1705,RL,2021.2.3,59.907143927732164,
1,89,0,89,0,,,,,,,,,,,,,,,None,None,None,None,None,1586.1463043999975,None,1586.1463043999975,None,1586.1463043999975,None,1586.1463043999975,None,j,0.7380734999969718,1586.1463043999975,None,1586.1463043999975,None,1586.9230339999995,None,1586.9230339999995,None,1586.9230339999995,None,1586.9230339999995,None,1586.9230339999995,None,1586.9230339999995,None,1587.2105775000018,1588.2446310000014,1587.2105775000018,1588.2446310000014,1588.2802854000038,None,1588.2802854000038,None,1588.2802854000038,None,1588.2802854000038,None,1588.2802854000038,None,1588.2802854000038,None,1588.2802854000038,None,1588.2802854000038,None,1588.2802854000038,None,48,37,43,60,60,64,1590.7847146999993,None,3.0,1.330604000002495,1590.7847146999993,None,1590.7847146999993,None,1590.7847146999993,None,1590.7847146999993,None,None,None,1592.130626500002,None,,,,,,,,110,M,22,2022_Nov_25_1705,RL,2021.2.3,59.907143927732164,
1,90,0,90,0,,,,,,,,,,,,,,,None,None,None,None,None,1594.001975500003,None,1594.001975500003,None,1594.001975500003,None,1594.001975500003,None,j,0.35239410000212956,1594.001975500003,None,1594.001975500003,None,1594.3991193000038,None,1594.3991193000038,None,1594.3991193000038,None,1594.3991193000038,None,1594.3991193000038,None,1594.3991193000038,None,1594.6839915000019,1596.4167868000004,1594.6839915000019,1596.4167868000004,1596.4387728000002,None,1596.4387728000002,None,1596.4387728000002,None,1596.4387728000002,None,1596.4387728000002,None,1596.4387728000002,None,1596.4387728000002,None,1596.4387728000002,None,1596.4387728000002,None,40,35,46,58,58,58,1598.966835500003,None,2.0,1.071560500000487,1598.966835500003,None,1598.966835500003,None,1598.966835500003,None,1598.966835500003,None,None,None,1600.0566126999984,None,,,,,,,,110,M,22,2022_Nov_25_1705,RL,2021.2.3,59.907143927732164,
1,91,0,91,0,,,,,,,,,,,,,,,None,None,None,None,None,1601.6714315999998,None,1601.6714315999998,None,1601.6714315999998,None,1601.6714315999998,None,j,0.5128826999934972,1601.6714315999998,None,1601.6714315999998,None,1602.2201504999975,None,1602.2201504999975,None,1602.2201504999975,None,1602.2201504999975,None,1602.2201504999975,None,1602.2201504999975,None,1602.5047300000006,1603.738751099998,1602.5047300000006,1603.738751099998,1603.7656348000019,None,1603.7656348000019,None,1603.7656348000019,None,1603.7656348000019,None,1603.7656348000019,None,1603.7656348000019,None,1603.7656348000019,None,1603.7656348000019,None,1603.7656348000019,None,41,32,48,54,54,84,1606.2844975999978,None,1.0,1.4226127000001725,1606.2844975999978,None,1606.2844975999978,None,1606.2844975999978,None,1606.2844975999978,None,None,None,1607.732759300001,None,,,,,,,,110,M,22,2022_Nov_25_1705,RL,2021.2.3,59.907143927732164,
1,92,0,92,0,,,,,,,,,,,,,,,None,None,None,None,None,1609.6620911999998,None,1609.6620911999998,None,1609.6620911999998,None,1609.6620911999998,None,j,0.46252090000052704,1609.6620911999998,None,1609.6620911999998,None,1610.1570843000009,None,1610.1570843000009,None,1610.1570843000009,None,1610.1570843000009,None,1610.1570843000009,None,1610.1570843000009,None,1610.443621899998,1611.477487600001,1610.443621899998,1611.477487600001,1611.506089399998,None,1611.506089399998,None,1611.506089399998,None,1611.506089399998,None,1611.506089399998,None,1611.506089399998,None,1611.506089399998,None,1611.506089399998,None,1611.506089399998,None,47,29,49,57,57,48,1614.0202801999985,None,3.0,1.219421499998134,1614.0202801999985,None,1614.0202801999985,None,1614.0202801999985,None,1614.0202801999985,None,None,None,1615.2666669000027,None,,,,,,,,110,M,22,2022_Nov_25_1705,RL,2021.2.3,59.907143927732164,
1,93,0,93,0,,,,,,,,,,,,,,,None,None,None,None,None,1616.9008925000016,None,1616.9008925000016,None,1616.9008925000016,None,1616.9008925000016,None,j,0.5939321999976528,1616.9008925000016,None,1616.9008925000016,None,1617.533581399999,None,1617.533581399999,None,1617.533581399999,None,1617.533581399999,None,1617.533581399999,None,1617.533581399999,None,1617.8321837999974,None,1617.8321837999974,None,1619.0971355000001,None,1619.0971355000001,None,1619.0971355000001,None,1619.0971355000001,None,1619.0971355000001,None,1619.0971355000001,None,1619.0971355000001,None,1619.0971355000001,None,1619.0971355000001,None,43,21,43,56,56,57,1621.6160692999983,None,2.0,1.3725876999960747,1621.6160692999983,None,1621.6160692999983,None,1621.6160692999983,None,1621.6160692999983,None,None,None,1623.001973600003,None,,,,,,,,110,M,22,2022_Nov_25_1705,RL,2021.2.3,59.907143927732164,
1,94,0,94,0,,,,,,,,,,,,,,,None,None,None,None,None,1624.586321900002,None,1624.586321900002,None,1624.586321900002,None,1624.586321900002,None,i,0.36861750000389293,1624.586321900002,None,1624.586321900002,None,1625.002509500002,None,1625.002509500002,None,1625.002509500002,None,1625.002509500002,None,1625.002509500002,None,1625.002509500002,None,1625.3038586999974,None,1625.3038586999974,None,1626.4769613000026,None,1626.4769613000026,None,1626.4769613000026,None,1626.4769613000026,None,1626.4769613000026,None,1626.4769613000026,None,1626.4769613000026,None,1626.4769613000026,None,1626.4769613000026,None,46,33,53,56,53,77,1629.0001335999987,None,1.0,2.805109699998866,1629.0001335999987,None,1629.0001335999987,None,1629.0001335999987,None,1629.0001335999987,None,None,None,1631.822418900003,None,,,,,,,,110,M,22,2022_Nov_25_1705,RL,2021.2.3,59.907143927732164,
1,95,0,95,0,,,,,,,,,,,,,,,None,None,None,None,None,1633.7484553000031,None,1633.7484553000031,None,1633.7484553000031,None,1633.7484553000031,None,f,0.3961235000024317,1633.7484553000031,None,1633.7484553000031,None,1634.1713681000037,None,1634.1713681000037,None,1634.1713681000037,None,1634.1713681000037,None,1634.1713681000037,None,1634.1713681000037,None,1634.460014700002,None,1634.460014700002,None,1635.5336508000037,None,1635.5336508000037,None,1635.5336508000037,None,1635.5336508000037,None,1635.5336508000037,None,1635.5336508000037,None,1635.5336508000037,None,1635.5336508000037,None,1635.5336508000037,None,45,20,52,64,20,80,1638.0585519000015,None,1.0,1.0553827000039746,1638.0585519000015,None,1638.0585519000015,None,1638.0585519000015,None,1638.0585519000015,None,None,None,1639.134180699999,None,,,,,,,,110,M,22,2022_Nov_25_1705,RL,2021.2.3,59.907143927732164,
1,96,0,96,0,,,,,,,,,,,,,,,None,None,None,None,None,1641.0336580000003,None,1641.0336580000003,None,1641.0336580000003,None,1641.0336580000003,None,r,0.33100820000254316,1641.0336580000003,None,1641.0336580000003,None,1641.3977151,None,1641.3977151,None,1641.3977151,None,1641.3977151,None,1641.3977151,None,1641.3977151,None,1641.698398200002,None,1641.698398200002,None,1643.042981700004,None,1643.042981700004,None,1643.042981700004,None,1643.042981700004,None,1643.042981700004,None,1643.042981700004,None,1643.042981700004,None,1643.042981700004,None,1643.042981700004,None,50,23,49,54,50,76,1645.5610447,None,1.0,0.9428721000003861,1645.5610447,None,1645.5610447,None,1645.5610447,None,1645.5610447,None,None,None,1646.5205786000006,None,,,,,,,,110,M,22,2022_Nov_25_1705,RL,2021.2.3,59.907143927732164,
1,97,0,97,0,,,,,,,,,,,,,,,None,None,None,None,None,1648.4028212999983,None,1648.4028212999983,None,1648.4028212999983,None,1648.4028212999983,None,j,0.30220510000071954,1648.4028212999983,None,1648.4028212999983,None,1648.7367094,None,1648.7367094,None,1648.7367094,None,1648.7367094,None,1648.7367094,None,1648.7367094,None,1649.0368525000013,None,1649.0368525000013,None,1650.065357899999,None,1650.065357899999,None,1650.065357899999,None,1650.065357899999,None,1650.065357899999,None,1650.065357899999,None,1650.065357899999,None,1650.065357899999,None,1650.065357899999,None,44,20,47,59,59,79,1652.5820106000028,None,2.0,1.2038179000010132,1652.5820106000028,None,1652.5820106000028,None,1652.5820106000028,None,1652.5820106000028,None,None,None,1653.7984670000005,None,,,,,,,,110,M,22,2022_Nov_25_1705,RL,2021.2.3,59.907143927732164,
1,98,0,98,0,,,,,,,,,,,,,,,None,None,None,None,None,1655.5413056000034,None,1655.5413056000034,None,1655.5413056000034,None,1655.5413056000034,None,j,0.3838012999985949,1655.5413056000034,None,1655.5413056000034,None,1655.9617218999992,None,1655.9617218999992,None,1655.9617218999992,None,1655.9617218999992,None,1655.9617218999992,None,1655.9617218999992,None,1656.2586349999983,1658.0096981000024,1656.2586349999983,1658.0096981000024,1658.0444979000022,None,1658.0444979000022,None,1658.0444979000022,None,1658.0444979000022,None,1658.0444979000022,None,1658.0444979000022,None,1658.0444979000022,None,1658.0444979000022,None,1658.0444979000022,None,44,20,52,59,59,81,1660.548984000001,None,1.0,2.232326400000602,1660.548984000001,None,1660.548984000001,None,1660.548984000001,None,1660.548984000001,None,None,None,1662.7963216999997,None,,,,,,,,110,M,22,2022_Nov_25_1705,RL,2021.2.3,59.907143927732164,
1,99,0,99,0,,,,,,,,,,,,,,,None,None,None,None,None,1664.534427700004,None,1664.534427700004,None,1664.534427700004,None,1664.534427700004,None,r,1.13077820000035,1664.534427700004,None,1664.534427700004,None,1665.7096351,None,1665.7096351,None,1665.7096351,None,1665.7096351,None,1665.7096351,None,1665.7096351,None,1665.9984687000033,None,1665.9984687000033,None,1667.100608599998,None,1667.100608599998,None,1667.100608599998,None,1667.100608599998,None,1667.100608599998,None,1667.100608599998,None,1667.100608599998,None,1667.100608599998,None,1667.100608599998,None,49,17,59,55,49,48,1669.6148042999994,None,4.0,0.8703682999985176,1669.6148042999994,None,1669.6148042999994,None,1669.6148042999994,None,1669.6148042999994,None,None,None,1670.5097088000039,None,,,,,,,,110,M,22,2022_Nov_25_1705,RL,2021.2.3,59.907143927732164,
1,100,0,100,0,,,,,,,,,,,,,,,None,None,None,None,None,1672.093232799998,None,1672.093232799998,None,1672.093232799998,None,1672.093232799998,None,r,0.28166080000664806,1672.093232799998,None,1672.093232799998,None,1672.4270440999971,None,1672.4270440999971,None,1672.4270440999971,None,1672.4270440999971,None,1672.4270440999971,None,1672.4270440999971,None,1672.7032388000007,1674.237397099998,1672.7032388000007,1674.237397099998,1674.2839174999972,None,1674.2839174999972,None,1674.2839174999972,None,1674.2839174999972,None,1674.2839174999972,None,1674.2839174999972,None,1674.2839174999972,None,1674.2839174999972,None,1674.2839174999972,None,53,19,55,61,53,71,1676.7987304999988,None,2.0,2.0771680000034394,1676.7987304999988,None,1676.7987304999988,None,1676.7987304999988,None,1676.7987304999988,None,None,None,1678.8905223000038,None,,,,,,,,110,M,22,2022_Nov_25_1705,RL,2021.2.3,59.907143927732164,
1,101,0,101,0,,,,,,,,,,,,,,,None,None,None,None,None,1680.5608157000024,None,1680.5608157000024,None,1680.5608157000024,None,1680.5608157000024,None,j,0.6142873999997391,1680.5608157000024,None,1680.5608157000024,None,1681.2094419999994,None,1681.2094419999994,None,1681.2094419999994,None,1681.2094419999994,None,1681.2094419999994,None,1681.2094419999994,None,1681.5094264,None,1681.5094264,None,1682.5149727000025,None,1682.5149727000025,None,1682.5149727000025,None,1682.5149727000025,None,1682.5149727000025,None,1682.5149727000025,None,1682.5149727000025,None,1682.5149727000025,None,1682.5149727000025,None,51,15,49,53,53,67,1685.0365549999988,None,2.0,2.5773486999969464,1685.0365549999988,None,1685.0365549999988,None,1685.0365549999988,None,1685.0365549999988,None,None,None,1687.6357006000035,None,,,,,,,,110,M,22,2022_Nov_25_1705,RL,2021.2.3,59.907143927732164,
1,102,0,102,0,,,,,,,,,,,,,,,None,None,None,None,None,1689.4508207000035,None,1689.4508207000035,None,1689.4508207000035,None,1689.4508207000035,None,r,0.5545930999942357,1689.4508207000035,None,1689.4508207000035,None,1690.0606951000009,None,1690.0606951000009,None,1690.0606951000009,None,1690.0606951000009,None,1690.0606951000009,None,1690.0606951000009,None,1690.348807800001,1691.8329802000007,1690.348807800001,1691.8329802000007,1691.864285800002,None,1691.864285800002,None,1691.864285800002,None,1691.864285800002,None,1691.864285800002,None,1691.864285800002,None,1691.864285800002,None,1691.864285800002,None,1691.864285800002,None,51,14,55,60,51,83,1694.3786894000004,None,2.0,2.12833849999879,1694.3786894000004,None,1694.3786894000004,None,1694.3786894000004,None,1694.3786894000004,None,None,None,1696.524960200004,None,,,,,,,,110,M,22,2022_Nov_25_1705,RL,2021.2.3,59.907143927732164,
1,103,0,103,0,,,,,,,,,,,,,,,None,None,None,None,None,1698.4399926999977,None,1698.4399926999977,None,1698.4399926999977,None,1698.4399926999977,None,j,0.3657768999983091,1698.4399926999977,None,1698.4399926999977,None,1698.8462188999983,None,1698.8462188999983,None,1698.8462188999983,None,1698.8462188999983,None,1698.8462188999983,None,1698.8462188999983,None,1699.1383591999984,None,1699.1383591999984,None,1701.136331499998,None,1701.136331499998,None,1701.136331499998,None,1701.136331499998,None,1701.136331499998,None,1701.136331499998,None,1701.136331499998,None,1701.136331499998,None,1701.136331499998,None,41,16,45,66,66,66,1703.6572627999994,None,4.0,0.8377620999963256,1703.6572627999994,None,1703.6572627999994,None,1703.6572627999994,None,1703.6572627999994,None,None,None,1704.5168131000028,None,,,,,,,,110,M,22,2022_Nov_25_1705,RL,2021.2.3,59.907143927732164,
1,104,0,104,0,,,,,,,,,,,,,,,None,None,None,None,None,1706.4629742999969,None,1706.4629742999969,None,1706.4629742999969,None,1706.4629742999969,None,j,0.49333369999658316,1706.4629742999969,None,1706.4629742999969,None,1706.9978830999971,None,1706.9978830999971,None,1706.9978830999971,None,1706.9978830999971,None,1706.9978830999971,None,1706.9978830999971,None,1707.2939716999972,None,1707.2939716999972,None,1709.2125283999994,None,1709.2125283999994,None,1709.2125283999994,None,1709.2125283999994,None,1709.2125283999994,None,1709.2125283999994,None,1709.2125283999994,None,1709.2125283999994,None,1709.2125283999994,None,48,6,41,69,69,69,1711.7370953999998,None,5.0,0.660877000002074,1711.7370953999998,None,1711.7370953999998,None,1711.7370953999998,None,1711.7370953999998,None,None,None,1712.4137807000006,None,,,,,,,,110,M,22,2022_Nov_25_1705,RL,2021.2.3,59.907143927732164,
1,105,0,105,0,,,,,,,,,,,,,,,None,None,None,None,None,1714.0618975999969,None,1714.0618975999969,None,1714.0618975999969,None,1714.0618975999969,None,j,0.5942980000036187,1714.0618975999969,None,1714.0618975999969,None,1714.707466699998,None,1714.707466699998,None,1714.707466699998,None,1714.707466699998,None,1714.707466699998,None,1714.707466699998,None,1714.9826694000003,1715.916382000003,1714.9826694000003,1715.916382000003,1715.9464224999974,None,1715.9464224999974,None,1715.9464224999974,None,1715.9464224999974,None,1715.9464224999974,None,1715.9464224999974,None,1715.9464224999974,None,1715.9464224999974,None,1715.9464224999974,None,50,21,47,54,54,75,1718.4594883000027,None,3.0,1.0109075999935158,1718.4594883000027,None,1718.4594883000027,None,1718.4594883000027,None,1718.4594883000027,None,None,None,1719.4942303999997,None,,,,,,,,110,M,22,2022_Nov_25_1705,RL,2021.2.3,59.907143927732164,
1,106,0,106,0,,,,,,,,,,,,,,,None,None,None,None,None,1721.206126899997,None,1721.206126899997,None,1721.206126899997,None,1721.206126899997,None,j,0.4301149999955669,1721.206126899997,None,1721.206126899997,None,1721.6676011000018,None,1721.6676011000018,None,1721.6676011000018,None,1721.6676011000018,None,1721.6676011000018,None,1721.6676011000018,None,1721.9543791000033,None,1721.9543791000033,None,1723.747895499997,None,1723.747895499997,None,1723.747895499997,None,1723.747895499997,None,1723.747895499997,None,1723.747895499997,None,1723.747895499997,None,1723.747895499997,None,1723.747895499997,None,57,17,38,62,62,35,1726.2622102000023,None,6.0,0.6956884000028367,1726.2622102000023,None,1726.2622102000023,None,1726.2622102000023,None,1726.2622102000023,None,None,None,1726.974524899997,None,,,,,,,,110,M,22,2022_Nov_25_1705,RL,2021.2.3,59.907143927732164,
1,107,0,107,0,,,,,,,,,,,,,,,None,None,None,None,None,1728.7965043000004,None,1728.7965043000004,None,1728.7965043000004,None,1728.7965043000004,None,j,0.4495950000055018,1728.7965043000004,None,1728.7965043000004,None,1729.2979147000005,None,1729.2979147000005,None,1729.2979147000005,None,1729.2979147000005,None,1729.2979147000005,None,1729.2979147000005,None,1729.593454300004,1730.9101928000018,1729.593454300004,1730.9101928000018,1730.9442006000027,None,1730.9442006000027,None,1730.9442006000027,None,1730.9442006000027,None,1730.9442006000027,None,1730.9442006000027,None,1730.9442006000027,None,1730.9442006000027,None,1730.9442006000027,None,45,18,38,58,58,75,1733.4540382999985,None,2.0,1.7413537000029464,1733.4540382999985,None,1733.4540382999985,None,1733.4540382999985,None,1733.4540382999985,None,None,None,1735.2139972000004,None,,,,,,,,110,M,22,2022_Nov_25_1705,RL,2021.2.3,59.907143927732164,
1,108,0,108,0,,,,,,,,,,,,,,,None,None,None,None,None,1736.9495389000003,None,1736.9495389000003,None,1736.9495389000003,None,1736.9495389000003,None,j,0.9869573999967542,1736.9495389000003,None,1736.9495389000003,None,1737.9963685000039,None,1737.9963685000039,None,1737.9963685000039,None,1737.9963685000039,None,1737.9963685000039,None,1737.9963685000039,None,1738.2820685999977,1739.1823886999991,1738.2820685999977,1739.1823886999991,1739.2045020000005,None,1739.2045020000005,None,1739.2045020000005,None,1739.2045020000005,None,1739.2045020000005,None,1739.2045020000005,None,1739.2045020000005,None,1739.2045020000005,None,1739.2045020000005,None,56,19,31,65,65,63,1741.7250434000016,None,5.0,0.9779768000007607,1741.7250434000016,None,1741.7250434000016,None,1741.7250434000016,None,1741.7250434000016,None,None,None,1742.718134900002,None,,,,,,,,110,M,22,2022_Nov_25_1705,RL,2021.2.3,59.907143927732164,
1,109,0,109,0,,,,,,,,,,,,,,,None,None,None,None,None,1744.3061027000003,None,1744.3061027000003,None,1744.3061027000003,None,1744.3061027000003,None,j,0.5705422000028193,1744.3061027000003,None,1744.3061027000003,None,1744.925871899999,None,1744.925871899999,None,1744.925871899999,None,1744.925871899999,None,1744.925871899999,None,1744.925871899999,None,1745.219937599999,None,1745.219937599999,None,1747.0041472000012,None,1747.0041472000012,None,1747.0041472000012,None,1747.0041472000012,None,1747.0041472000012,None,1747.0041472000012,None,1747.0041472000012,None,1747.0041472000012,None,1747.0041472000012,None,55,30,37,56,56,71,1749.5136749000012,None,3.0,0.6456619999953546,1749.5136749000012,None,1749.5136749000012,None,1749.5136749000012,None,1749.5136749000012,None,None,None,1750.1734139999971,None,,,,,,,,110,M,22,2022_Nov_25_1705,RL,2021.2.3,59.907143927732164,
1,110,0,110,0,,,,,,,,,,,,,,,None,None,None,None,None,1752.1770319999996,None,1752.1770319999996,None,1752.1770319999996,None,1752.1770319999996,None,j,0.6790365000051679,1752.1770319999996,None,1752.1770319999996,None,1752.9040776000038,None,1752.9040776000038,None,1752.9040776000038,None,1752.9040776000038,None,1752.9040776000038,None,1752.9040776000038,None,1753.1923553000015,1754.1427483000007,1753.1923553000015,1754.1427483000007,1754.1644564000017,None,1754.1644564000017,None,1754.1644564000017,None,1754.1644564000017,None,1754.1644564000017,None,1754.1644564000017,None,1754.1644564000017,None,1754.1644564000017,None,1754.1644564000017,None,53,28,32,56,56,77,1756.7103461000006,None,2.0,0.8549525000053109,1756.7103461000006,None,1756.7103461000006,None,1756.7103461000006,None,1756.7103461000006,None,None,None,1757.566275199999,None,,,,,,,,110,M,22,2022_Nov_25_1705,RL,2021.2.3,59.907143927732164,
1,111,0,111,0,,,,,,,,,,,,,,,None,None,None,None,None,1759.1129501000032,None,1759.1129501000032,None,1759.1129501000032,None,1759.1129501000032,None,j,0.4441212000019732,1759.1129501000032,None,1759.1129501000032,None,1759.5894266000032,None,1759.5894266000032,None,1759.5894266000032,None,1759.5894266000032,None,1759.5894266000032,None,1759.5894266000032,None,1759.880307600004,None,1759.880307600004,None,1761.357595900001,None,1761.357595900001,None,1761.357595900001,None,1761.357595900001,None,1761.357595900001,None,1761.357595900001,None,1761.357595900001,None,1761.357595900001,None,1761.357595900001,None,60,15,30,53,53,83,1763.880153799997,None,1.0,1.2704768999974476,1763.880153799997,None,1763.880153799997,None,1763.880153799997,None,1763.880153799997,None,None,None,1765.1685193000012,None,,,,,,,,110,M,22,2022_Nov_25_1705,RL,2021.2.3,59.907143927732164,
