bandit,trials.thisRepN,trials.thisTrialN,trials.thisN,trials.thisIndex,instru_img1.started,instru_resp.started,instru_resp.keys,instru_resp.rt,instru_img2.started,instru_resp2.started,instru_resp2.keys,instru_resp2.rt,fixbefore_2.started,rest_response.keys,red.started,green.started,yellow.started,blue.started,choose_bandit.started,Fixation.started,choose_bandit.keys,choose_bandit.rt,black.started,red_2.started,green_2.started,yellow_2.started,blue_2.started,fixation_2.started,docs.started,image_2.started,docs.stopped,image_2.stopped,black.stopped,red_2.stopped,green_2.stopped,yellow_2.stopped,blue_2.stopped,fixation_2.stopped,black_com.started,reward_sub.started,palyerb.started,reward__sub.started,compare.started,red_compare.started,green_com.started,yellow_com.started,blue_com.started,image_3.started,slider.started,text.started,image_4.started,image_5.started,rewardyellow,rewardred,rewardblue,rewardgreen,subchoose,playerb,slider.response,slider.rt,intertrialfix.started,intertrialfix.stopped,rest_image.started,rest_response.started,rest_response.rt,image.started,key_resp.started,key_resp.keys,key_resp.rt,participant,Gender,Age,date,expName,psychopyVersion,frameRate,
,,,,,11.792381399776787,11.792381399776787,space,1.1015935000032187,,,,,,,,,,,,,,,,,,,,,,,,,,,,,,,,,,,,,,,,,,,,,,,,,,,,,,,,,,,,,,111,f,1,2022-12-11_13h57.02.976,RL,2022.2.4,60.22761218629459,
,,,,,,,,,12.921945099718869,12.921945099718869,space,8.087250899989158,,,,,,,,,,,,,,,,,,,,,,,,,,,,,,,,,,,,,,,,,,,,,,,,,,,,,,,,,,111,f,1,2022-12-11_13h57.02.976,RL,2022.2.4,60.22761218629459,
1,0,0,0,0,,,,,,,,,21.038857199717313,None,22.053908499889076,22.053908499889076,22.053908499889076,22.053908499889076,22.053908499889076,22.053908499889076,j,0.768523100297898,22.910911299753934,22.910911299753934,22.910911299753934,22.910911299753934,22.910911299753934,22.910911299753934,23.150783599819988,23.150783599819988,25.078591499943286,25.078591499943286,25.147612399887294,25.147612399887294,25.147612399887294,25.147612399887294,25.147612399887294,25.147612399887294,25.147612399887294,25.147612399887294,25.147612399887294,25.147612399887294,25.147612399887294,25.147612399887294,25.147612399887294,25.147612399887294,25.147612399887294,27.654971999581903,27.654971999581903,27.654971999581903,27.654971999581903,27.654971999581903,72,59,41,36,36,24,5.0,1.0131354997865856,28.778914399910718,30.463859099894762,,,,,,,,111,f,1,2022-12-11_13h57.02.976,RL,2022.2.4,60.22761218629459,
1,1,0,1,0,,,,,,,,,,None,30.463859099894762,30.463859099894762,30.463859099894762,30.463859099894762,30.463859099894762,30.463859099894762,i,0.45367230009287596,30.94650839967653,30.94650839967653,30.94650839967653,30.94650839967653,30.94650839967653,30.94650839967653,31.22987139970064,31.22987139970064,32.159246699884534,32.159246699884534,32.17667709989473,32.17667709989473,32.17667709989473,32.17667709989473,32.17667709989473,32.17667709989473,32.17667709989473,32.17667709989473,32.17667709989473,32.17667709989473,32.17667709989473,32.17667709989473,32.17667709989473,32.17667709989473,32.17667709989473,34.68506769975647,34.68506769975647,34.68506769975647,34.68506769975647,34.68506769975647,61,60,48,31,48,52,3.0,1.0476551000028849,35.748826399911195,37.72742210002616,,,,,,,,111,f,1,2022-12-11_13h57.02.976,RL,2022.2.4,60.22761218629459,
1,2,0,2,0,,,,,,,,,,None,37.72742210002616,37.72742210002616,37.72742210002616,37.72742210002616,37.72742210002616,37.72742210002616,f,0.3555637001991272,38.11041789967567,38.11041789967567,38.11041789967567,38.11041789967567,38.11041789967567,38.11041789967567,38.40947869978845,38.40947869978845,40.170825199689716,40.170825199689716,40.170825199689716,40.170825199689716,40.170825199689716,40.170825199689716,40.170825199689716,40.170825199689716,40.170825199689716,40.170825199689716,40.170825199689716,40.170825199689716,40.170825199689716,40.170825199689716,40.170825199689716,40.170825199689716,40.170825199689716,42.68045189976692,42.68045189976692,42.68045189976692,42.68045189976692,42.68045189976692,71,60,41,37,60,48,6.0,1.2458687000907958,43.94366119988263,45.822029899805784,,,,,,,,111,f,1,2022-12-11_13h57.02.976,RL,2022.2.4,60.22761218629459,
1,3,0,3,0,,,,,,,,,,None,45.822029899805784,45.822029899805784,45.822029899805784,45.822029899805784,45.822029899805784,45.822029899805784,r,0.4773318003863096,46.32313479995355,46.32313479995355,46.32313479995355,46.32313479995355,46.32313479995355,46.32313479995355,46.62047149986029,46.62047149986029,48.431914299726486,48.431914299726486,48.431914299726486,48.431914299726486,48.431914299726486,48.431914299726486,48.431914299726486,48.431914299726486,48.431914299726486,48.431914299726486,48.431914299726486,48.431914299726486,48.431914299726486,48.431914299726486,48.431914299726486,48.431914299726486,48.431914299726486,50.94274189975113,50.94274189975113,50.94274189975113,50.94274189975113,50.94274189975113,82,54,48,37,82,66,7.0,0.8139474000781775,51.771856599953026,53.35146809974685,,,,,,,,111,f,1,2022-12-11_13h57.02.976,RL,2022.2.4,60.22761218629459,
1,4,0,4,0,,,,,,,,,,None,53.35146809974685,53.35146809974685,53.35146809974685,53.35146809974685,53.35146809974685,53.35146809974685,j,0.6935173999518156,54.07204539980739,54.07204539980739,54.07204539980739,54.07204539980739,54.07204539980739,54.07204539980739,54.36551519995555,54.36551519995555,55.34717909991741,55.34717909991741,55.34717909991741,55.34717909991741,55.34717909991741,55.34717909991741,55.34717909991741,55.34717909991741,55.34717909991741,55.34717909991741,55.34717909991741,55.34717909991741,55.34717909991741,55.34717909991741,55.34717909991741,55.34717909991741,55.34717909991741,57.85529309976846,57.85529309976846,57.85529309976846,57.85529309976846,57.85529309976846,81,53,49,40,40,47,5.0,0.9468843000940979,58.81974369985983,60.698213499970734,,,,,,,,111,f,1,2022-12-11_13h57.02.976,RL,2022.2.4,60.22761218629459,
1,5,0,5,0,,,,,,,,,,None,60.698213499970734,60.698213499970734,60.698213499970734,60.698213499970734,60.698213499970734,60.698213499970734,f,0.8264570999890566,61.54615810001269,61.54615810001269,61.54615810001269,61.54615810001269,61.54615810001269,61.54615810001269,61.84525929996744,61.84525929996744,62.92569909989834,62.92569909989834,62.92569909989834,62.92569909989834,62.92569909989834,62.92569909989834,62.92569909989834,62.92569909989834,62.92569909989834,62.92569909989834,62.92569909989834,62.92569909989834,62.92569909989834,62.92569909989834,62.92569909989834,62.92569909989834,62.92569909989834,65.43472739960998,65.43472739960998,65.43472739960998,65.43472739960998,65.43472739960998,79,58,49,34,58,65,4.0,0.7143318001180887,66.16623039962724,67.69536089990288,,,,,,,,111,f,1,2022-12-11_13h57.02.976,RL,2022.2.4,60.22761218629459,
1,6,0,6,0,,,,,,,,,,None,67.69536089990288,67.69536089990288,67.69536089990288,67.69536089990288,67.69536089990288,67.69536089990288,i,0.29174530040472746,68.01201039971784,68.01201039971784,68.01201039971784,68.01201039971784,68.01201039971784,68.01201039971784,68.31142039969563,68.31142039969563,70.32204869994894,70.32204869994894,70.32204869994894,70.32204869994894,70.32204869994894,70.32204869994894,70.32204869994894,70.32204869994894,70.32204869994894,70.32204869994894,70.32204869994894,70.32204869994894,70.32204869994894,70.32204869994894,70.32204869994894,70.32204869994894,70.32204869994894,72.83139409963042,72.83139409963042,72.83139409963042,72.83139409963042,72.83139409963042,83,58,49,41,49,69,3.0,1.544497299939394,74.39339159987867,76.23896819958463,,,,,,,,111,f,1,2022-12-11_13h57.02.976,RL,2022.2.4,60.22761218629459,
1,7,0,7,0,,,,,,,,,,None,76.23896819958463,76.23896819958463,76.23896819958463,76.23896819958463,76.23896819958463,76.23896819958463,r,0.28841149993240833,76.55796069977805,76.55796069977805,76.55796069977805,76.55796069977805,76.55796069977805,76.55796069977805,76.83768219966441,76.83768219966441,77.68540819967166,77.68540819967166,77.71909949975088,77.71909949975088,77.71909949975088,77.71909949975088,77.71909949975088,77.71909949975088,77.71909949975088,77.71909949975088,77.71909949975088,77.71909949975088,77.71909949975088,77.71909949975088,77.71909949975088,77.71909949975088,77.71909949975088,80.22753309970722,80.22753309970722,80.22753309970722,80.22753309970722,80.22753309970722,72,58,45,33,72,57,5.0,0.7640239996835589,81.00866970000789,82.7044922998175,,,,,,,,111,f,1,2022-12-11_13h57.02.976,RL,2022.2.4,60.22761218629459,
1,8,0,8,0,,,,,,,,,,None,82.7044922998175,82.7044922998175,82.7044922998175,82.7044922998175,82.7044922998175,82.7044922998175,r,0.36535120010375977,83.08784459996969,83.08784459996969,83.08784459996969,83.08784459996969,83.08784459996969,83.08784459996969,83.38724959967658,83.38724959967658,84.765856300015,84.765856300015,84.765856300015,84.765856300015,84.765856300015,84.765856300015,84.765856300015,84.765856300015,84.765856300015,84.765856300015,84.765856300015,84.765856300015,84.765856300015,84.765856300015,84.765856300015,84.765856300015,84.765856300015,87.27512729959562,87.27512729959562,87.27512729959562,87.27512729959562,87.27512729959562,73,57,43,42,73,47,6.0,1.1451987996697426,88.43852509977296,90.25087539991364,,,,,,,,111,f,1,2022-12-11_13h57.02.976,RL,2022.2.4,60.22761218629459,
1,9,0,9,0,,,,,,,,,,None,90.25087539991364,90.25087539991364,90.25087539991364,90.25087539991364,90.25087539991364,90.25087539991364,r,0.369981300085783,90.66361439973116,90.66361439973116,90.66361439973116,90.66361439973116,90.66361439973116,90.66361439973116,90.94909349968657,90.94909349968657,92.47838559979573,92.47838559979573,92.47838559979573,92.47838559979573,92.47838559979573,92.47838559979573,92.47838559979573,92.47838559979573,92.47838559979573,92.47838559979573,92.47838559979573,92.47838559979573,92.47838559979573,92.47838559979573,92.47838559979573,92.47838559979573,92.47838559979573,94.98720949981362,94.98720949981362,94.98720949981362,94.98720949981362,94.98720949981362,77,57,42,35,77,53,7.0,0.830260300077498,95.83505439991131,97.36476989975199,,,,,,,,111,f,1,2022-12-11_13h57.02.976,RL,2022.2.4,60.22761218629459,
1,10,0,10,0,,,,,,,,,,None,97.36476989975199,97.36476989975199,97.36476989975199,97.36476989975199,97.36476989975199,97.36476989975199,r,0.40252860030159354,97.79786909976974,97.79786909976974,97.79786909976974,97.79786909976974,97.79786909976974,97.79786909976974,98.09629639983177,98.09629639983177,98.92739099962637,98.92739099962637,98.92739099962637,98.92739099962637,98.92739099962637,98.92739099962637,98.92739099962637,98.92739099962637,98.92739099962637,98.92739099962637,98.92739099962637,98.92739099962637,98.92739099962637,98.92739099962637,98.92739099962637,98.92739099962637,98.92739099962637,101.43671719962731,101.43671719962731,101.43671719962731,101.43671719962731,101.43671719962731,67,58,44,35,67,55,6.0,1.5127809997648,102.96547999978065,104.66145739983767,,,,,,,,111,f,1,2022-12-11_13h57.02.976,RL,2022.2.4,60.22761218629459,
1,11,0,11,0,,,,,,,,,,None,104.66145739983767,104.66145739983767,104.66145739983767,104.66145739983767,104.66145739983767,104.66145739983767,r,0.3323750998824835,105.01129059959203,105.01129059959203,105.01129059959203,105.01129059959203,105.01129059959203,105.01129059959203,105.31031259987503,105.31031259987503,106.54009039979428,106.54009039979428,106.54009039979428,106.54009039979428,106.54009039979428,106.54009039979428,106.54009039979428,106.54009039979428,106.54009039979428,106.54009039979428,106.54009039979428,106.54009039979428,106.54009039979428,106.54009039979428,106.54009039979428,106.54009039979428,106.54009039979428,109.04892720002681,109.04892720002681,109.04892720002681,109.04892720002681,109.04892720002681,60,62,35,30,60,12,7.0,0.8304878999479115,109.89651099964976,111.49324439978227,,,,,,,,111,f,1,2022-12-11_13h57.02.976,RL,2022.2.4,60.22761218629459,
1,12,0,12,0,,,,,,,,,,None,111.49324439978227,111.49324439978227,111.49324439978227,111.49324439978227,111.49324439978227,111.49324439978227,r,0.4232141999527812,111.96584299998358,111.96584299998358,111.96584299998358,111.96584299998358,111.96584299998358,111.96584299998358,112.24142829980701,112.24142829980701,113.25476789986715,113.25476789986715,113.27216749964282,113.27216749964282,113.27216749964282,113.27216749964282,113.27216749964282,113.27216749964282,113.27216749964282,113.27216749964282,113.27216749964282,113.27216749964282,113.27216749964282,113.27216749964282,113.27216749964282,113.27216749964282,113.27216749964282,115.78054709965363,115.78054709965363,115.78054709965363,115.78054709965363,115.78054709965363,57,63,46,41,57,50,6.0,1.1787179000675678,116.9770898995921,118.62341349991038,,,,,,,,111,f,1,2022-12-11_13h57.02.976,RL,2022.2.4,60.22761218629459,
1,13,0,13,0,,,,,,,,,,None,118.62341349991038,118.62341349991038,118.62341349991038,118.62341349991038,118.62341349991038,118.62341349991038,r,0.5844128001481295,119.24010539986193,119.24010539986193,119.24010539986193,119.24010539986193,119.24010539986193,119.24010539986193,119.55127489985898,119.55127489985898,121.24992739968002,121.24992739968002,121.23223979957402,121.23223979957402,121.23223979957402,121.23223979957402,121.23223979957402,121.23223979957402,121.24992739968002,121.24992739968002,121.24992739968002,121.24992739968002,121.24992739968002,121.24992739968002,121.24992739968002,121.24992739968002,121.24992739968002,123.75866919988766,123.75866919988766,123.75866919988766,123.75866919988766,123.75866919988766,60,65,43,44,60,54,6.0,1.0615186002105474,124.83963129995391,126.56853649998084,,,,,,,,111,f,1,2022-12-11_13h57.02.976,RL,2022.2.4,60.22761218629459,
1,14,0,14,0,,,,,,,,,,None,126.56853649998084,126.56853649998084,126.56853649998084,126.56853649998084,126.56853649998084,126.56853649998084,r,0.389750599861145,126.9897556998767,126.9897556998767,126.9897556998767,126.9897556998767,126.9897556998767,126.9897556998767,127.28344399994239,127.28344399994239,128.2972552999854,128.2972552999854,128.2972552999854,128.2972552999854,128.2972552999854,128.2972552999854,128.2972552999854,128.2972552999854,128.2972552999854,128.2972552999854,128.2972552999854,128.2972552999854,128.2972552999854,128.2972552999854,128.2972552999854,128.2972552999854,128.2972552999854,130.80629929993302,130.80629929993302,130.80629929993302,130.80629929993302,130.80629929993302,58,63,45,39,58,49,6.0,1.0295494999736547,131.85350249987096,133.74872609972954,,,,,,,,111,f,1,2022-12-11_13h57.02.976,RL,2022.2.4,60.22761218629459,
1,15,0,15,0,,,,,,,,,,None,133.74872609972954,133.74872609972954,133.74872609972954,133.74872609972954,133.74872609972954,133.74872609972954,r,0.3208706001751125,134.09910439979285,134.09910439979285,134.09910439979285,134.09910439979285,134.09910439979285,134.09910439979285,134.39725699974224,134.39725699974224,136.10929029993713,136.10929029993713,136.10929029993713,136.10929029993713,136.10929029993713,136.10929029993713,136.10929029993713,136.10929029993713,136.10929029993713,136.10929029993713,136.10929029993713,136.10929029993713,136.10929029993713,136.10929029993713,136.10929029993713,136.10929029993713,136.10929029993713,138.61848909966648,138.61848909966648,138.61848909966648,138.61848909966648,138.61848909966648,55,58,49,43,55,58,4.0,0.5648472001776099,139.1999666998163,141.1453310996294,,,,,,,,111,f,1,2022-12-11_13h57.02.976,RL,2022.2.4,60.22761218629459,
1,16,0,16,0,,,,,,,,,,None,141.1453310996294,141.1453310996294,141.1453310996294,141.1453310996294,141.1453310996294,141.1453310996294,r,0.645134000107646,141.81201459979638,141.81201459979638,141.81201459979638,141.81201459979638,141.81201459979638,141.81201459979638,142.10938149970025,142.10938149970025,143.78825999982655,143.78825999982655,143.78825999982655,143.78825999982655,143.78825999982655,143.78825999982655,143.78825999982655,143.78825999982655,143.78825999982655,143.78825999982655,143.78825999982655,143.78825999982655,143.78825999982655,143.78825999982655,143.78825999982655,143.78825999982655,143.78825999982655,146.29800169961527,146.29800169961527,146.29800169961527,146.29800169961527,146.29800169961527,73,57,43,45,73,56,6.0,0.7314746002666652,147.0453804996796,148.90744249988347,,,,,,,,111,f,1,2022-12-11_13h57.02.976,RL,2022.2.4,60.22761218629459,
1,17,0,17,0,,,,,,,,,,None,148.90744249988347,148.90744249988347,148.90744249988347,148.90744249988347,148.90744249988347,148.90744249988347,r,0.46394139993935823,149.39177689980716,149.39177689980716,149.39177689980716,149.39177689980716,149.39177689980716,149.39177689980716,149.689286199864,149.689286199864,150.6360334996134,150.6360334996134,150.6360334996134,150.6360334996134,150.6360334996134,150.6360334996134,150.6360334996134,150.6360334996134,150.6360334996134,150.6360334996134,150.6360334996134,150.6360334996134,150.6360334996134,150.6360334996134,150.6360334996134,150.6360334996134,150.6360334996134,153.14502809988335,153.14502809988335,153.14502809988335,153.14502809988335,153.14502809988335,66,66,59,53,66,55,7.0,0.7143069002777338,153.87645049998537,155.7388259000145,,,,,,,,111,f,1,2022-12-11_13h57.02.976,RL,2022.2.4,60.22761218629459,
1,18,0,18,0,,,,,,,,,,None,155.7388259000145,155.7388259000145,155.7388259000145,155.7388259000145,155.7388259000145,155.7388259000145,r,0.25486449990421534,156.0287805995904,156.0287805995904,156.0287805995904,156.0287805995904,156.0287805995904,156.0287805995904,156.3206617999822,156.3206617999822,157.63413669960573,157.63413669960573,157.65060299960896,157.65060299960896,157.65060299960896,157.65060299960896,157.65060299960896,157.65060299960896,157.65060299960896,157.65060299960896,157.65060299960896,157.65060299960896,157.65060299960896,157.65060299960896,157.65060299960896,157.65060299960896,157.65060299960896,160.16000209981576,160.16000209981576,160.16000209981576,160.16000209981576,160.16000209981576,61,57,57,54,61,42,7.0,0.6481078998185694,160.82402229961008,162.6033338997513,,,,,,,,111,f,1,2022-12-11_13h57.02.976,RL,2022.2.4,60.22761218629459,
1,19,0,19,0,,,,,,,,,,None,162.6033338997513,162.6033338997513,162.6033338997513,162.6033338997513,162.6033338997513,162.6033338997513,r,0.27753910003229976,162.90337739977986,162.90337739977986,162.90337739977986,162.90337739977986,162.90337739977986,162.90337739977986,163.2020499999635,163.2020499999635,165.146731399931,165.146731399931,165.146731399931,165.146731399931,165.146731399931,165.146731399931,165.146731399931,165.146731399931,165.146731399931,165.146731399931,165.146731399931,165.146731399931,165.146731399931,165.146731399931,165.146731399931,165.146731399931,165.146731399931,167.65593149978667,167.65593149978667,167.65593149978667,167.65593149978667,167.65593149978667,50,65,58,49,50,41,7.0,0.5310831996612251,168.20405029971153,169.78368819970638,,,,,,,,111,f,1,2022-12-11_13h57.02.976,RL,2022.2.4,60.22761218629459,
1,20,0,20,0,,,,,,,,,,None,169.78368819970638,169.78368819970638,169.78368819970638,169.78368819970638,169.78368819970638,169.78368819970638,r,0.29469440039247274,170.10145489964634,170.10145489964634,170.10145489964634,170.10145489964634,170.10145489964634,170.10145489964634,170.39945949986577,170.39945949986577,172.11094159958884,172.11094159958884,172.12945449957624,172.12945449957624,172.12945449957624,172.12945449957624,172.12945449957624,172.12945449957624,172.12945449957624,172.12945449957624,172.12945449957624,172.12945449957624,172.12945449957624,172.12945449957624,172.12945449957624,172.12945449957624,172.12945449957624,174.63661559997126,174.63661559997126,174.63661559997126,174.63661559997126,174.63661559997126,60,64,54,44,60,60,7.0,0.5642699999734759,175.2202461999841,177.11427759984508,,,,,,,,111,f,1,2022-12-11_13h57.02.976,RL,2022.2.4,60.22761218629459,
1,21,0,21,0,,,,,,,,,,None,177.11427759984508,177.11427759984508,177.11427759984508,177.11427759984508,177.11427759984508,177.11427759984508,r,0.2542071002535522,177.39967969991267,177.39967969991267,177.39967969991267,177.39967969991267,177.39967969991267,177.39967969991267,177.69589259987697,177.69589259987697,178.92683129990473,178.92683129990473,178.92683129990473,178.92683129990473,178.92683129990473,178.92683129990473,178.92683129990473,178.92683129990473,178.92683129990473,178.92683129990473,178.92683129990473,178.92683129990473,178.92683129990473,178.92683129990473,178.92683129990473,178.92683129990473,178.92683129990473,181.4353997996077,181.4353997996077,181.4353997996077,181.4353997996077,181.4353997996077,48,67,58,53,48,51,5.0,1.04608070012182,182.49858199991286,184.26104109967127,,,,,,,,111,f,1,2022-12-11_13h57.02.976,RL,2022.2.4,60.22761218629459,
1,22,0,22,0,,,,,,,,,,None,184.26104109967127,184.26104109967127,184.26104109967127,184.26104109967127,184.26104109967127,184.26104109967127,r,0.42896230006590486,184.71142269996926,184.71142269996926,184.71142269996926,184.71142269996926,184.71142269996926,184.71142269996926,185.00914899958298,185.00914899958298,186.90384049993008,186.90384049993008,186.90384049993008,186.90384049993008,186.90384049993008,186.90384049993008,186.90384049993008,186.90384049993008,186.90384049993008,186.90384049993008,186.90384049993008,186.90384049993008,186.90384049993008,186.90384049993008,186.90384049993008,186.90384049993008,186.90384049993008,189.41298429993913,189.41298429993913,189.41298429993913,189.41298429993913,189.41298429993913,57,60,57,44,57,35,6.0,0.6636587004177272,190.0941764996387,192.00648229988292,,,,,,,,111,f,1,2022-12-11_13h57.02.976,RL,2022.2.4,60.22761218629459,
1,23,0,23,0,,,,,,,,,,None,192.00648229988292,192.00648229988292,192.00648229988292,192.00648229988292,192.00648229988292,192.00648229988292,r,0.3190383999608457,192.35745539981872,192.35745539981872,192.35745539981872,192.35745539981872,192.35745539981872,192.35745539981872,192.6549694999121,192.6549694999121,194.43338139960542,194.43338139960542,194.43338139960542,194.43338139960542,194.43338139960542,194.43338139960542,194.43338139960542,194.43338139960542,194.43338139960542,194.43338139960542,194.43338139960542,194.43338139960542,194.43338139960542,194.43338139960542,194.43338139960542,194.43338139960542,194.43338139960542,196.94223679974675,196.94223679974675,196.94223679974675,196.94223679974675,196.94223679974675,55,65,54,42,55,47,6.0,0.897091300226748,197.85804989980534,199.71892170002684,,,,,,,,111,f,1,2022-12-11_13h57.02.976,RL,2022.2.4,60.22761218629459,
1,24,0,24,0,,,,,,,,,,None,199.71892170002684,199.71892170002684,199.71892170002684,199.71892170002684,199.71892170002684,199.71892170002684,r,0.43768459977582097,200.18455939972773,200.18455939972773,200.18455939972773,200.18455939972773,200.18455939972773,200.18455939972773,200.48419989971444,200.48419989971444,202.3136877999641,202.3136877999641,202.3136877999641,202.3136877999641,202.3136877999641,202.3136877999641,202.3136877999641,202.3136877999641,202.3136877999641,202.3136877999641,202.3136877999641,202.3136877999641,202.3136877999641,202.3136877999641,202.3136877999641,202.3136877999641,202.3136877999641,204.82103409990668,204.82103409990668,204.82103409990668,204.82103409990668,204.82103409990668,59,63,46,51,59,56,5.0,0.5817506001330912,205.41918740002438,207.1817227997817,,,,,,,,111,f,1,2022-12-11_13h57.02.976,RL,2022.2.4,60.22761218629459,
1,25,0,25,0,,,,,,,,,,None,207.1817227997817,207.1817227997817,207.1817227997817,207.1817227997817,207.1817227997817,207.1817227997817,r,0.36739999987185,207.58515179995447,207.58515179995447,207.58515179995447,207.58515179995447,207.58515179995447,207.58515179995447,207.8797141998075,207.8797141998075,208.69390930002555,208.69390930002555,208.69390930002555,208.69390930002555,208.69390930002555,208.69390930002555,208.69390930002555,208.69390930002555,208.69390930002555,208.69390930002555,208.69390930002555,208.69390930002555,208.69390930002555,208.69390930002555,208.69390930002555,208.69390930002555,208.69390930002555,211.2037323997356,211.2037323997356,211.2037323997356,211.2037323997356,211.2037323997356,65,66,45,43,65,56,6.0,0.5139104002155364,211.7353693000041,213.43138459976763,,,,,,,,111,f,1,2022-12-11_13h57.02.976,RL,2022.2.4,60.22761218629459,
1,26,0,26,0,,,,,,,,,,None,213.43138459976763,213.43138459976763,213.43138459976763,213.43138459976763,213.43138459976763,213.43138459976763,r,0.36468080012127757,213.8141000997275,213.8141000997275,213.8141000997275,213.8141000997275,213.8141000997275,213.8141000997275,214.11323789972812,214.11323789972812,215.8415102995932,215.8415102995932,215.8415102995932,215.8415102995932,215.8415102995932,215.8415102995932,215.8415102995932,215.8415102995932,215.8415102995932,215.8415102995932,215.8415102995932,215.8415102995932,215.8415102995932,215.8415102995932,215.8415102995932,215.8415102995932,215.8415102995932,218.35122559964657,218.35122559964657,218.35122559964657,218.35122559964657,218.35122559964657,67,69,49,46,67,54,6.0,0.6315365000627935,218.99933319957927,220.8279338995926,,,,,,,,111,f,1,2022-12-11_13h57.02.976,RL,2022.2.4,60.22761218629459,
1,27,0,27,0,,,,,,,,,,None,220.8279338995926,220.8279338995926,220.8279338995926,220.8279338995926,220.8279338995926,220.8279338995926,r,0.41405689995735884,221.26307719992474,221.26307719992474,221.26307719992474,221.26307719992474,221.26307719992474,221.26307719992474,221.55949519993737,221.55949519993737,222.8062141998671,222.8062141998671,222.82257890002802,222.82257890002802,222.82257890002802,222.82257890002802,222.82257890002802,222.82257890002802,222.82257890002802,222.82257890002802,222.82257890002802,222.82257890002802,222.82257890002802,222.82257890002802,222.82257890002802,222.82257890002802,222.82257890002802,225.33170440001413,225.33170440001413,225.33170440001413,225.33170440001413,225.33170440001413,63,72,49,46,63,33,7.0,0.4479420999996364,225.79749259958044,227.54282710002735,,,,,,,,111,f,1,2022-12-11_13h57.02.976,RL,2022.2.4,60.22761218629459,
1,28,0,28,0,,,,,,,,,,None,227.54282710002735,227.54282710002735,227.54282710002735,227.54282710002735,227.54282710002735,227.54282710002735,r,0.3820048999041319,227.94747629994527,227.94747629994527,227.94747629994527,227.94747629994527,227.94747629994527,227.94747629994527,228.24120179982856,228.24120179982856,229.1554679996334,229.1554679996334,229.1722583998926,229.1722583998926,229.1722583998926,229.1722583998926,229.1722583998926,229.1722583998926,229.1722583998926,229.1722583998926,229.1722583998926,229.1722583998926,229.1722583998926,229.1722583998926,229.1722583998926,229.1722583998926,229.1722583998926,231.6813284996897,231.6813284996897,231.6813284996897,231.6813284996897,231.6813284996897,69,66,46,49,69,52,6.0,0.7630241997539997,232.46205809991807,234.1415511998348,,,,,,,,111,f,1,2022-12-11_13h57.02.976,RL,2022.2.4,60.22761218629459,
1,29,0,29,0,,,,,,,,,,None,234.1415511998348,234.1415511998348,234.1415511998348,234.1415511998348,234.1415511998348,234.1415511998348,r,0.29082260001450777,234.46668729977682,234.46668729977682,234.46668729977682,234.46668729977682,234.46668729977682,234.46668729977682,234.7584340996109,234.7584340996109,236.7183260996826,236.7183260996826,236.7183260996826,236.7183260996826,236.7183260996826,236.7183260996826,236.7183260996826,236.7183260996826,236.7183260996826,236.7183260996826,236.7183260996826,236.7183260996826,236.7183260996826,236.7183260996826,236.7183260996826,236.7183260996826,236.7183260996826,239.22724599996582,239.22724599996582,239.22724599996582,239.22724599996582,239.22724599996582,63,58,48,53,63,29,7.0,0.4981354000046849,239.74275469966233,241.37194499978796,,,,,,,,111,f,1,2022-12-11_13h57.02.976,RL,2022.2.4,60.22761218629459,
1,30,0,30,0,,,,,,,,,,None,241.37194499978796,241.37194499978796,241.37194499978796,241.37194499978796,241.37194499978796,241.37194499978796,r,0.39077030029147863,241.78882859973237,241.78882859973237,241.78882859973237,241.78882859973237,241.78882859973237,241.78882859973237,242.08705759979784,242.08705759979784,243.7324266997166,243.7324266997166,243.7324266997166,243.7324266997166,243.7324266997166,243.7324266997166,243.7324266997166,243.7324266997166,243.7324266997166,243.7324266997166,243.7324266997166,243.7324266997166,243.7324266997166,243.7324266997166,243.7324266997166,243.7324266997166,243.7324266997166,246.24125819979236,246.24125819979236,246.24125819979236,246.24125819979236,246.24125819979236,64,58,44,54,64,60,5.0,1.1956235999241471,247.45451799966395,249.01735109975561,,,,,,,,111,f,1,2022-12-11_13h57.02.976,RL,2022.2.4,60.22761218629459,
1,31,0,31,0,,,,,,,,,,None,249.01735109975561,249.01735109975561,249.01735109975561,249.01735109975561,249.01735109975561,249.01735109975561,r,0.566675600130111,249.62372479960322,249.62372479960322,249.62372479960322,249.62372479960322,249.62372479960322,249.62372479960322,249.91548149986193,249.91548149986193,251.46113139996305,251.46113139996305,251.47786659980193,251.47786659980193,251.47786659980193,251.47786659980193,251.47786659980193,251.47786659980193,251.47786659980193,251.47786659980193,251.47786659980193,251.47786659980193,251.47786659980193,251.47786659980193,251.47786659980193,251.47786659980193,251.47786659980193,253.98688049986959,253.98688049986959,253.98688049986959,253.98688049986959,253.98688049986959,74,61,50,52,74,52,6.0,0.6796837002038956,254.685236599762,256.3974374998361,,,,,,,,111,f,1,2022-12-11_13h57.02.976,RL,2022.2.4,60.22761218629459,
1,32,0,32,0,,,,,,,,,,None,256.3974374998361,256.3974374998361,256.3974374998361,256.3974374998361,256.3974374998361,256.3974374998361,r,0.3427699999883771,256.76371019985527,256.76371019985527,256.76371019985527,256.76371019985527,256.76371019985527,256.76371019985527,257.06263839965686,257.06263839965686,258.2926193997264,258.2926193997264,258.2926193997264,258.2926193997264,258.2926193997264,258.2926193997264,258.2926193997264,258.2926193997264,258.2926193997264,258.2926193997264,258.2926193997264,258.2926193997264,258.2926193997264,258.2926193997264,258.2926193997264,258.2926193997264,258.2926193997264,260.80150579987094,260.80150579987094,260.80150579987094,260.80150579987094,260.80150579987094,73,64,62,64,73,55,6.0,0.4983083996921778,261.3167567998171,263.1456614998169,,,,,,,,111,f,1,2022-12-11_13h57.02.976,RL,2022.2.4,60.22761218629459,
1,33,0,33,0,,,,,,,,,,None,263.1456614998169,263.1456614998169,263.1456614998169,263.1456614998169,263.1456614998169,263.1456614998169,r,0.30747450003400445,263.48527489975095,263.48527489975095,263.48527489975095,263.48527489975095,263.48527489975095,263.48527489975095,263.7777869999409,263.7777869999409,265.70567479962483,265.70567479962483,265.70567479962483,265.70567479962483,265.70567479962483,265.70567479962483,265.70567479962483,265.70567479962483,265.70567479962483,265.70567479962483,265.70567479962483,265.70567479962483,265.70567479962483,265.70567479962483,265.70567479962483,265.70567479962483,265.70567479962483,268.2149703996256,268.2149703996256,268.2149703996256,268.2149703996256,268.2149703996256,75,59,50,50,75,55,6.0,0.5311489002779126,268.7630684999749,270.44243089994416,,,,,,,,111,f,1,2022-12-11_13h57.02.976,RL,2022.2.4,60.22761218629459,
1,34,0,34,0,,,,,,,,,,None,270.44243089994416,270.44243089994416,270.44243089994416,270.44243089994416,270.44243089994416,270.44243089994416,r,0.29161550011485815,270.7588159996085,270.7588159996085,270.7588159996085,270.7588159996085,270.7588159996085,270.7588159996085,271.0576910995878,271.0576910995878,271.9884248999879,271.9884248999879,271.9884248999879,271.9884248999879,271.9884248999879,271.9884248999879,271.9884248999879,271.9884248999879,271.9884248999879,271.9884248999879,271.9884248999879,271.9884248999879,271.9884248999879,271.9884248999879,271.9884248999879,271.9884248999879,271.9884248999879,274.497551899869,274.497551899869,274.497551899869,274.497551899869,274.497551899869,76,63,56,60,76,52,7.0,1.1793920998461545,275.6943953996524,277.65614529978484,,,,,,,,111,f,1,2022-12-11_13h57.02.976,RL,2022.2.4,60.22761218629459,
1,35,0,35,0,,,,,,,,,,None,277.65614529978484,277.65614529978484,277.65614529978484,277.65614529978484,277.65614529978484,277.65614529978484,r,0.2641127002425492,277.94010739959776,277.94010739959776,277.94010739959776,277.94010739959776,277.94010739959776,277.94010739959776,278.23799399985,278.23799399985,279.93349029961973,279.93349029961973,279.95085009979084,279.95085009979084,279.95085009979084,279.95085009979084,279.95085009979084,279.95085009979084,279.95085009979084,279.95085009979084,279.95085009979084,279.95085009979084,279.95085009979084,279.95085009979084,279.95085009979084,279.95085009979084,279.95085009979084,282.46098769968376,282.46098769968376,282.46098769968376,282.46098769968376,282.46098769968376,69,59,53,62,69,52,6.0,0.4978294996544719,282.97449719998986,284.8535302998498,,,,,,,,111,f,1,2022-12-11_13h57.02.976,RL,2022.2.4,60.22761218629459,
1,36,0,36,0,,,,,,,,,,None,284.8535302998498,284.8535302998498,284.8535302998498,284.8535302998498,284.8535302998498,284.8535302998498,r,0.24819620000198483,285.12501479964703,285.12501479964703,285.12501479964703,285.12501479964703,285.12501479964703,285.12501479964703,285.41861769976094,285.41861769976094,287.0644462998025,287.0644462998025,287.08104429999366,287.08104429999366,287.08104429999366,287.08104429999366,287.08104429999366,287.08104429999366,287.08104429999366,287.08104429999366,287.08104429999366,287.08104429999366,287.08104429999366,287.08104429999366,287.08104429999366,287.08104429999366,287.08104429999366,289.58977259974927,289.58977259974927,289.58977259974927,289.58977259974927,289.58977259974927,72,59,63,56,72,46,7.0,0.9130904003977776,290.52049979986623,292.38271079957485,,,,,,,,111,f,1,2022-12-11_13h57.02.976,RL,2022.2.4,60.22761218629459,
1,37,0,37,0,,,,,,,,,,None,292.38271079957485,292.38271079957485,292.38271079957485,292.38271079957485,292.38271079957485,292.38271079957485,r,0.28500730032101274,292.7006198996678,292.7006198996678,292.7006198996678,292.7006198996678,292.7006198996678,292.7006198996678,292.9982904996723,292.9982904996723,294.2775356997736,294.2775356997736,294.2775356997736,294.2775356997736,294.2775356997736,294.2775356997736,294.2775356997736,294.2775356997736,294.2775356997736,294.2775356997736,294.2775356997736,294.2775356997736,294.2775356997736,294.2775356997736,294.2775356997736,294.2775356997736,294.2775356997736,296.78702619997784,296.78702619997784,296.78702619997784,296.78702619997784,296.78702619997784,67,59,64,55,67,39,7.0,1.111446199938655,297.9173725997098,299.62998069962487,,,,,,,,111,f,1,2022-12-11_13h57.02.976,RL,2022.2.4,60.22761218629459,
1,38,0,38,0,,,,,,,,,,None,299.62998069962487,299.62998069962487,299.62998069962487,299.62998069962487,299.62998069962487,299.62998069962487,r,0.5349556999281049,300.2013731999323,300.2013731999323,300.2013731999323,300.2013731999323,300.2013731999323,300.2013731999323,300.49408089974895,300.49408089974895,302.4054493997246,302.4054493997246,302.42244170000777,302.42244170000777,302.42244170000777,302.42244170000777,302.42244170000777,302.42244170000777,302.42244170000777,302.42244170000777,302.42244170000777,302.42244170000777,302.42244170000777,302.42244170000777,302.42244170000777,302.42244170000777,302.42244170000777,304.9312868998386,304.9312868998386,304.9312868998386,304.9312868998386,304.9312868998386,66,57,68,53,66,54,7.0,0.813568000216037,305.7628096998669,307.6075853998773,,,,,,,,111,f,1,2022-12-11_13h57.02.976,RL,2022.2.4,60.22761218629459,
1,39,0,39,0,,,,,,,,,,None,307.6075853998773,307.6075853998773,307.6075853998773,307.6075853998773,307.6075853998773,307.6075853998773,r,0.30910259997472167,307.94260759977624,307.94260759977624,307.94260759977624,307.94260759977624,307.94260759977624,307.94260759977624,308.24006660003215,308.24006660003215,309.1702624997124,309.1702624997124,309.1702624997124,309.1702624997124,309.1702624997124,309.1702624997124,309.1702624997124,309.1702624997124,309.1702624997124,309.1702624997124,309.1702624997124,309.1702624997124,309.1702624997124,309.1702624997124,309.1702624997124,309.1702624997124,309.1702624997124,311.6794718997553,311.6794718997553,311.6794718997553,311.6794718997553,311.6794718997553,63,47,68,56,63,44,7.0,0.531912200152874,312.22782719973475,314.12366439960897,,,,,,,,111,f,1,2022-12-11_13h57.02.976,RL,2022.2.4,60.22761218629459,
1,40,0,40,0,,,,,,,,,,None,314.12366439960897,314.12366439960897,314.12366439960897,314.12366439960897,314.12366439960897,314.12366439960897,r,0.5179991000331938,314.6726826997474,314.6726826997474,314.6726826997474,314.6726826997474,314.6726826997474,314.6726826997474,314.9713482996449,314.9713482996449,316.7164679998532,316.7164679998532,316.7164679998532,316.7164679998532,316.7164679998532,316.7164679998532,316.7164679998532,316.7164679998532,316.7164679998532,316.7164679998532,316.7164679998532,316.7164679998532,316.7164679998532,316.7164679998532,316.7164679998532,316.7164679998532,316.7164679998532,319.2263743998483,319.2263743998483,319.2263743998483,319.2263743998483,319.2263743998483,55,51,60,52,55,43,6.0,0.5626127002760768,319.80724839959294,321.37029619980603,,,,,,,,111,f,1,2022-12-11_13h57.02.976,RL,2022.2.4,60.22761218629459,
1,41,0,41,0,,,,,,,,,,None,321.37029619980603,321.37029619980603,321.37029619980603,321.37029619980603,321.37029619980603,321.37029619980603,r,0.43824040004983544,321.83667649980634,321.83667649980634,321.83667649980634,321.83667649980634,321.83667649980634,321.83667649980634,322.1351198996417,322.1351198996417,323.9135243999772,323.9135243999772,323.93036699993536,323.93036699993536,323.93036699993536,323.93036699993536,323.93036699993536,323.93036699993536,323.93036699993536,323.93036699993536,323.93036699993536,323.93036699993536,323.93036699993536,323.93036699993536,323.93036699993536,323.93036699993536,323.93036699993536,326.4393389998004,326.4393389998004,326.4393389998004,326.4393389998004,326.4393389998004,77,55,73,57,77,57,7.0,0.9130404000170529,327.3701497996226,329.1656692000106,,,,,,,,111,f,1,2022-12-11_13h57.02.976,RL,2022.2.4,60.22761218629459,
1,42,0,42,0,,,,,,,,,,None,329.1656692000106,329.1656692000106,329.1656692000106,329.1656692000106,329.1656692000106,329.1656692000106,r,0.5730137997306883,329.7674169000238,329.7674169000238,329.7674169000238,329.7674169000238,329.7674169000238,329.7674169000238,330.0472399997525,330.0472399997525,330.8616311997175,330.8616311997175,330.87776830000803,330.87776830000803,330.87776830000803,330.87776830000803,330.87776830000803,330.87776830000803,330.87776830000803,330.87776830000803,330.87776830000803,330.87776830000803,330.87776830000803,330.87776830000803,330.87776830000803,330.87776830000803,330.87776830000803,333.38701469963416,333.38701469963416,333.38701469963416,333.38701469963416,333.38701469963416,74,50,66,53,74,55,7.0,0.6477879001758993,334.051923699677,335.764333399944,,,,,,,,111,f,1,2022-12-11_13h57.02.976,RL,2022.2.4,60.22761218629459,
1,43,0,43,0,,,,,,,,,,None,335.764333399944,335.764333399944,335.764333399944,335.764333399944,335.764333399944,335.764333399944,r,0.3167878999374807,336.11996919987723,336.11996919987723,336.11996919987723,336.11996919987723,336.11996919987723,336.11996919987723,336.3962273998186,336.3962273998186,338.3073397995904,338.3073397995904,338.32434339961037,338.32434339961037,338.32434339961037,338.32434339961037,338.32434339961037,338.32434339961037,338.32434339961037,338.32434339961037,338.32434339961037,338.32434339961037,338.32434339961037,338.32434339961037,338.32434339961037,338.32434339961037,338.32434339961037,340.83369149966165,340.83369149966165,340.83369149966165,340.83369149966165,340.83369149966165,69,55,59,53,69,41,7.0,0.9143364997580647,341.7638143999502,343.2771446998231,,,,,,,,111,f,1,2022-12-11_13h57.02.976,RL,2022.2.4,60.22761218629459,
1,44,0,44,0,,,,,,,,,,None,343.2771446998231,343.2771446998231,343.2771446998231,343.2771446998231,343.2771446998231,343.2771446998231,r,0.32993930019438267,343.6360214999877,343.6360214999877,343.6360214999877,343.6360214999877,343.6360214999877,343.6360214999877,343.92543229972944,343.92543229972944,345.02261359989643,345.02261359989643,345.02261359989643,345.02261359989643,345.02261359989643,345.02261359989643,345.02261359989643,345.02261359989643,345.02261359989643,345.02261359989643,345.02261359989643,345.02261359989643,345.02261359989643,345.02261359989643,345.02261359989643,345.02261359989643,345.02261359989643,347.5316635998897,347.5316635998897,347.5316635998897,347.5316635998897,347.5316635998897,76,49,71,53,76,47,7.0,0.4650031002238393,348.0135907996446,350.00857739988714,,,,,,,,111,f,1,2022-12-11_13h57.02.976,RL,2022.2.4,60.22761218629459,
1,45,0,45,0,,,,,,,,,,None,350.00857739988714,350.00857739988714,350.00857739988714,350.00857739988714,350.00857739988714,350.00857739988714,r,0.34179760003462434,350.3798233997077,350.3798233997077,350.3798233997077,350.3798233997077,350.3798233997077,350.3798233997077,350.6736657996662,350.6736657996662,352.2362803998403,352.2362803998403,352.2362803998403,352.2362803998403,352.2362803998403,352.2362803998403,352.2362803998403,352.2362803998403,352.2362803998403,352.2362803998403,352.2362803998403,352.2362803998403,352.2362803998403,352.2362803998403,352.2362803998403,352.2362803998403,352.2362803998403,354.7453311998397,354.7453311998397,354.7453311998397,354.7453311998397,354.7453311998397,63,41,63,55,63,44,7.0,0.6802066001109779,355.44331649970263,357.339525999967,,,,,,,,111,f,1,2022-12-11_13h57.02.976,RL,2022.2.4,60.22761218629459,
1,46,0,46,0,,,,,,,,,,None,357.339525999967,357.339525999967,357.339525999967,357.339525999967,357.339525999967,357.339525999967,r,0.4467699001543224,357.8079743999988,357.8079743999988,357.8079743999988,357.8079743999988,357.8079743999988,357.8079743999988,358.1038833996281,358.1038833996281,359.2844366999343,359.2844366999343,359.2844366999343,359.2844366999343,359.2844366999343,359.2844366999343,359.2844366999343,359.2844366999343,359.2844366999343,359.2844366999343,359.2844366999343,359.2844366999343,359.2844366999343,359.2844366999343,359.2844366999343,359.2844366999343,359.2844366999343,361.7932573999278,361.7932573999278,361.7932573999278,361.7932573999278,361.7932573999278,74,44,62,49,74,44,7.0,1.3123332001268864,363.1223526997492,364.952355499845,,,,,,,,111,f,1,2022-12-11_13h57.02.976,RL,2022.2.4,60.22761218629459,
1,47,0,47,0,,,,,,,,,,None,364.952355499845,364.952355499845,364.952355499845,364.952355499845,364.952355499845,364.952355499845,r,0.5500281001441181,365.5353688998148,365.5353688998148,365.5353688998148,365.5353688998148,365.5353688998148,365.5353688998148,365.8328533000313,365.8328533000313,366.96262759994715,366.96262759994715,366.96262759994715,366.96262759994715,366.96262759994715,366.96262759994715,366.96262759994715,366.96262759994715,366.96262759994715,366.96262759994715,366.96262759994715,366.96262759994715,366.96262759994715,366.96262759994715,366.96262759994715,366.96262759994715,366.96262759994715,369.4717937000096,369.4717937000096,369.4717937000096,369.4717937000096,369.4717937000096,66,45,49,50,66,58,6.0,0.6476855999790132,370.1366448998451,371.70048599969596,,,,,,,,111,f,1,2022-12-11_13h57.02.976,RL,2022.2.4,60.22761218629459,
1,48,0,48,0,,,,,,,,,,None,371.70048599969596,371.70048599969596,371.70048599969596,371.70048599969596,371.70048599969596,371.70048599969596,r,0.3932850998826325,372.1214591995813,372.1214591995813,372.1214591995813,372.1214591995813,372.1214591995813,372.1214591995813,372.4145547999069,372.4145547999069,374.4258070997894,374.4258070997894,374.4258070997894,374.4258070997894,374.4258070997894,374.4258070997894,374.4258070997894,374.4258070997894,374.4258070997894,374.4258070997894,374.4258070997894,374.4258070997894,374.4258070997894,374.4258070997894,374.4258070997894,374.4258070997894,374.4258070997894,376.9347366997972,376.9347366997972,376.9347366997972,376.9347366997972,376.9347366997972,68,51,42,42,68,54,6.0,0.582600699737668,377.5334218996577,379.52823129994795,,,,,,,,111,f,1,2022-12-11_13h57.02.976,RL,2022.2.4,60.22761218629459,
1,49,0,49,0,,,,,,,,,,None,379.52823129994795,379.52823129994795,379.52823129994795,379.52823129994795,379.52823129994795,379.52823129994795,r,0.2670137998647988,379.82819459959865,379.82819459959865,379.82819459959865,379.82819459959865,379.82819459959865,379.82819459959865,380.1271213996224,380.1271213996224,381.872169399634,381.872169399634,381.872169399634,381.872169399634,381.872169399634,381.872169399634,381.872169399634,381.872169399634,381.872169399634,381.872169399634,381.872169399634,381.872169399634,381.872169399634,381.872169399634,381.872169399634,381.872169399634,381.872169399634,384.38100299984217,384.38100299984217,384.38100299984217,384.38100299984217,384.38100299984217,64,48,48,39,64,44,7.0,0.8971390998922288,385.29542570002377,387.24109739996493,,,,,,,,111,f,1,2022-12-11_13h57.02.976,RL,2022.2.4,60.22761218629459,
1,50,0,50,0,,,,,,,,,,None,387.24109739996493,387.24109739996493,387.24109739996493,387.24109739996493,387.24109739996493,387.24109739996493,r,0.4890068001113832,387.7567710997537,387.7567710997537,387.7567710997537,387.7567710997537,387.7567710997537,387.7567710997537,388.05562149966136,388.05562149966136,389.73402619967237,389.73402619967237,389.73402619967237,389.73402619967237,389.73402619967237,389.73402619967237,389.73402619967237,389.73402619967237,389.73402619967237,389.73402619967237,389.73402619967237,389.73402619967237,389.73402619967237,389.73402619967237,389.73402619967237,389.73402619967237,389.73402619967237,392.2431075000204,392.2431075000204,392.2431075000204,392.2431075000204,392.2431075000204,53,54,52,42,53,26,4.0,0.9803404002450407,393.24064589990303,395.1860920996405,,,,,,,,111,f,1,2022-12-11_13h57.02.976,RL,2022.2.4,60.22761218629459,
1,51,0,51,0,,,,,,,,,,None,395.1860920996405,395.1860920996405,395.1860920996405,395.1860920996405,395.1860920996405,395.1860920996405,r,0.2701718001626432,395.48520679958165,395.48520679958165,395.48520679958165,395.48520679958165,395.48520679958165,395.48520679958165,395.7844003997743,395.7844003997743,397.7618711995892,397.7618711995892,397.7618711995892,397.7618711995892,397.7618711995892,397.7618711995892,397.7618711995892,397.7618711995892,397.7618711995892,397.7618711995892,397.7618711995892,397.7618711995892,397.7618711995892,397.7618711995892,397.7618711995892,397.7618711995892,397.7618711995892,400.27112629963085,400.27112629963085,400.27112629963085,400.27112629963085,400.27112629963085,62,54,55,48,62,17,7.0,0.5645458996295929,400.85266169998795,402.6983050997369,,,,,,,,111,f,1,2022-12-11_13h57.02.976,RL,2022.2.4,60.22761218629459,
1,52,0,52,0,,,,,,,,,,None,402.6983050997369,402.6983050997369,402.6983050997369,402.6983050997369,402.6983050997369,402.6983050997369,r,0.5288645997643471,403.24992690002546,403.24992690002546,403.24992690002546,403.24992690002546,403.24992690002546,403.24992690002546,403.54612449975684,403.54612449975684,404.5766697996296,404.5766697996296,404.5766697996296,404.5766697996296,404.5766697996296,404.5766697996296,404.5766697996296,404.5766697996296,404.5766697996296,404.5766697996296,404.5766697996296,404.5766697996296,404.5766697996296,404.5766697996296,404.5766697996296,404.5766697996296,404.5766697996296,407.08581790002063,407.08581790002063,407.08581790002063,407.08581790002063,407.08581790002063,60,52,53,43,60,53,5.0,0.6669659996405244,407.7676269998774,409.3803971000016,,,,,,,,111,f,1,2022-12-11_13h57.02.976,RL,2022.2.4,60.22761218629459,
1,53,0,53,0,,,,,,,,,,None,409.3803971000016,409.3803971000016,409.3803971000016,409.3803971000016,409.3803971000016,409.3803971000016,r,0.3043813998810947,409.71455839974806,409.71455839974806,409.71455839974806,409.71455839974806,409.71455839974806,409.71455839974806,410.01201299997047,410.01201299997047,411.89016789989546,411.89016789989546,411.89016789989546,411.89016789989546,411.89016789989546,411.89016789989546,411.89016789989546,411.89016789989546,411.89016789989546,411.89016789989546,411.89016789989546,411.89016789989546,411.89016789989546,411.89016789989546,411.89016789989546,411.89016789989546,411.89016789989546,414.3990730997175,414.3990730997175,414.3990730997175,414.3990730997175,414.3990730997175,55,43,57,40,55,46,5.0,0.6973737003281713,415.11389759974554,416.9097592998296,,,,,,,,111,f,1,2022-12-11_13h57.02.976,RL,2022.2.4,60.22761218629459,
1,54,0,54,0,,,,,,,,,,None,416.9097592998296,416.9097592998296,416.9097592998296,416.9097592998296,416.9097592998296,416.9097592998296,r,0.3908933997154236,417.3265472999774,417.3265472999774,417.3265472999774,417.3265472999774,417.3265472999774,417.3265472999774,417.624973999802,417.624973999802,418.9710672996007,418.9710672996007,418.9710672996007,418.9710672996007,418.9710672996007,418.9710672996007,418.9710672996007,418.9710672996007,418.9710672996007,418.9710672996007,418.9710672996007,418.9710672996007,418.9710672996007,418.9710672996007,418.9710672996007,418.9710672996007,418.9710672996007,421.480068099685,421.480068099685,421.480068099685,421.480068099685,421.480068099685,57,45,61,35,57,34,5.0,0.6470022997818887,422.1446667998098,423.67458769958466,,,,,,,,111,f,1,2022-12-11_13h57.02.976,RL,2022.2.4,60.22761218629459,
1,55,0,55,0,,,,,,,,,,None,423.67458769958466,423.67458769958466,423.67458769958466,423.67458769958466,423.67458769958466,423.67458769958466,r,0.397690299898386,424.09266519965604,424.09266519965604,424.09266519965604,424.09266519965604,424.09266519965604,424.09266519965604,424.3728424999863,424.3728424999863,425.3203946999274,425.3203946999274,425.33811499970034,425.33811499970034,425.33811499970034,425.33811499970034,425.33811499970034,425.33811499970034,425.33811499970034,425.33811499970034,425.33811499970034,425.33811499970034,425.33811499970034,425.33811499970034,425.33811499970034,425.33811499970034,425.33811499970034,427.8458585999906,427.8458585999906,427.8458585999906,427.8458585999906,427.8458585999906,51,38,59,50,51,37,5.0,0.48167810030281544,428.344320199918,429.9737835000269,,,,,,,,111,f,1,2022-12-11_13h57.02.976,RL,2022.2.4,60.22761218629459,
1,56,0,56,0,,,,,,,,,,None,429.9737835000269,429.9737835000269,429.9737835000269,429.9737835000269,429.9737835000269,429.9737835000269,r,0.3557961001060903,430.35767019959167,430.35767019959167,430.35767019959167,430.35767019959167,430.35767019959167,430.35767019959167,430.6558224996552,430.6558224996552,432.25135509995744,432.25135509995744,432.25135509995744,432.25135509995744,432.25135509995744,432.25135509995744,432.25135509995744,432.25135509995744,432.25135509995744,432.25135509995744,432.25135509995744,432.25135509995744,432.25135509995744,432.25135509995744,432.25135509995744,432.25135509995744,432.25135509995744,434.7604039995931,434.7604039995931,434.7604039995931,434.7604039995931,434.7604039995931,56,45,65,42,56,49,4.0,0.5148896998725832,435.2921590995975,437.2375133000314,,,,,,,,111,f,1,2022-12-11_13h57.02.976,RL,2022.2.4,60.22761218629459,
1,57,0,57,0,,,,,,,,,,None,437.2375133000314,437.2375133000314,437.2375133000314,437.2375133000314,437.2375133000314,437.2375133000314,r,0.2683128002099693,437.5404118997976,437.5404118997976,437.5404118997976,437.5404118997976,437.5404118997976,437.5404118997976,437.83661569980904,437.83661569980904,439.5645298999734,439.5645298999734,439.58129190001637,439.58129190001637,439.58129190001637,439.58129190001637,439.58129190001637,439.58129190001637,439.58129190001637,439.58129190001637,439.58129190001637,439.58129190001637,439.58129190001637,439.58129190001637,439.58129190001637,439.58129190001637,439.58129190001637,442.0904128998518,442.0904128998518,442.0904128998518,442.0904128998518,442.0904128998518,51,43,71,39,51,51,3.0,0.5819439999759197,442.6889511998743,444.5841951998882,,,,,,,,111,f,1,2022-12-11_13h57.02.976,RL,2022.2.4,60.22761218629459,
1,58,0,58,0,,,,,,,,,,None,444.5841951998882,444.5841951998882,444.5841951998882,444.5841951998882,444.5841951998882,444.5841951998882,r,0.288034999743104,444.9029097999446,444.9029097999446,444.9029097999446,444.9029097999446,444.9029097999446,444.9029097999446,445.19931839965284,445.19931839965284,447.06068089976907,447.06068089976907,447.0778045998886,447.0778045998886,447.0778045998886,447.0778045998886,447.0778045998886,447.0778045998886,447.0778045998886,447.0778045998886,447.0778045998886,447.0778045998886,447.0778045998886,447.0778045998886,447.0778045998886,447.0778045998886,447.0778045998886,449.5865528997965,449.5865528997965,449.5865528997965,449.5865528997965,449.5865528997965,43,43,64,39,43,39,4.0,0.6310028000734746,450.23470399994403,452.0306126996875,,,,,,,,111,f,1,2022-12-11_13h57.02.976,RL,2022.2.4,60.22761218629459,
1,59,0,59,0,,,,,,,,,,None,452.0306126996875,452.0306126996875,452.0306126996875,452.0306126996875,452.0306126996875,452.0306126996875,r,0.27966179978102446,452.33029989991337,452.33029989991337,452.33029989991337,452.33029989991337,452.33029989991337,452.33029989991337,452.62920019961894,452.62920019961894,454.35791869973764,454.35791869973764,454.35791869973764,454.35791869973764,454.35791869973764,454.35791869973764,454.35791869973764,454.35791869973764,454.35791869973764,454.35791869973764,454.35791869973764,454.35791869973764,454.35791869973764,454.35791869973764,454.35791869973764,454.35791869973764,454.35791869973764,456.86662679957226,456.86662679957226,456.86662679957226,456.86662679957226,456.86662679957226,57,53,65,44,57,44,4.0,0.6312355999834836,457.51477049989626,459.29409349989146,,,,,,,,111,f,1,2022-12-11_13h57.02.976,RL,2022.2.4,60.22761218629459,
1,60,0,60,0,,,,,,,,,,None,459.29409349989146,459.29409349989146,459.29409349989146,459.29409349989146,459.29409349989146,459.29409349989146,r,0.2966440999880433,459.6103709996678,459.6103709996678,459.6103709996678,459.6103709996678,459.6103709996678,459.6103709996678,459.9096826999448,459.9096826999448,461.03946569981053,461.03946569981053,461.03946569981053,461.03946569981053,461.03946569981053,461.03946569981053,461.03946569981053,461.03946569981053,461.03946569981053,461.03946569981053,461.03946569981053,461.03946569981053,461.03946569981053,461.03946569981053,461.03946569981053,461.03946569981053,461.03946569981053,463.54858599975705,463.54858599975705,463.54858599975705,463.54858599975705,463.54858599975705,40,52,59,40,40,44,2.0,0.7475188998505473,464.313033899758,466.2429265999235,,,,,,,,111,f,1,2022-12-11_13h57.02.976,RL,2022.2.4,60.22761218629459,
1,61,0,61,0,,,,,,,,,,None,466.2429265999235,466.2429265999235,466.2429265999235,466.2429265999235,466.2429265999235,466.2429265999235,r,0.29005479998886585,466.5606733998284,466.5606733998284,466.5606733998284,466.5606733998284,466.5606733998284,466.5606733998284,466.85710759973153,466.85710759973153,468.78495319979265,468.78495319979265,468.78495319979265,468.78495319979265,468.78495319979265,468.78495319979265,468.78495319979265,468.78495319979265,468.78495319979265,468.78495319979265,468.78495319979265,468.78495319979265,468.78495319979265,468.78495319979265,468.78495319979265,468.78495319979265,468.78495319979265,471.2939709997736,471.2939709997736,471.2939709997736,471.2939709997736,471.2939709997736,48,41,54,44,48,43,3.0,0.7640046998858452,472.0749702998437,473.9870477998629,,,,,,,,111,f,1,2022-12-11_13h57.02.976,RL,2022.2.4,60.22761218629459,
1,62,0,62,0,,,,,,,,,,None,473.9870477998629,473.9870477998629,473.9870477998629,473.9870477998629,473.9870477998629,473.9870477998629,r,0.287217500153929,474.3042331999168,474.3042331999168,474.3042331999168,474.3042331999168,474.3042331999168,474.3042331999168,474.60207679960877,474.60207679960877,475.76586849987507,475.76586849987507,475.7872333996929,475.7872333996929,475.7872333996929,475.7872333996929,475.7872333996929,475.7872333996929,475.7872333996929,475.7872333996929,475.7872333996929,475.7872333996929,475.7872333996929,475.7872333996929,475.7872333996929,475.7872333996929,475.7872333996929,478.29175570001826,478.29175570001826,478.29175570001826,478.29175570001826,478.29175570001826,40,36,57,49,40,19,4.0,0.4311701999977231,478.7406083997339,480.7351847998798,,,,,,,,111,f,1,2022-12-11_13h57.02.976,RL,2022.2.4,60.22761218629459,
1,63,0,63,0,,,,,,,,,,None,480.7351847998798,480.7351847998798,480.7351847998798,480.7351847998798,480.7351847998798,480.7351847998798,r,0.36142720002681017,481.1209164997563,481.1209164997563,481.1209164997563,481.1209164997563,481.1209164997563,481.1209164997563,481.4173373999074,481.4173373999074,482.66422029957175,482.66422029957175,482.66422029957175,482.66422029957175,482.66422029957175,482.66422029957175,482.66422029957175,482.66422029957175,482.66422029957175,482.66422029957175,482.66422029957175,482.66422029957175,482.66422029957175,482.66422029957175,482.66422029957175,482.66422029957175,482.66422029957175,485.1725484998897,485.1725484998897,485.1725484998897,485.1725484998897,485.1725484998897,52,31,51,46,52,40,4.0,0.4149123001843691,485.6052807997912,487.2842610999942,,,,,,,,111,f,1,2022-12-11_13h57.02.976,RL,2022.2.4,60.22761218629459,
1,64,0,64,0,,,,,,,,,,None,487.2842610999942,487.2842610999942,487.2842610999942,487.2842610999942,487.2842610999942,487.2842610999942,r,0.40004639979451895,487.7209046999924,487.7209046999924,487.7209046999924,487.7209046999924,487.7209046999924,487.7209046999924,488.01581289991736,488.01581289991736,489.4619386997074,489.4619386997074,489.4785519996658,489.4785519996658,489.4785519996658,489.4785519996658,489.4785519996658,489.4785519996658,489.4785519996658,489.4785519996658,489.4785519996658,489.4785519996658,489.4785519996658,489.4785519996658,489.4785519996658,489.4785519996658,489.4785519996658,491.9875900996849,491.9875900996849,491.9875900996849,491.9875900996849,491.9875900996849,53,41,54,49,53,32,5.0,0.6139048999175429,492.6194541999139,494.21557779982686,,,,,,,,111,f,1,2022-12-11_13h57.02.976,RL,2022.2.4,60.22761218629459,
1,65,0,65,0,,,,,,,,,,None,494.21557779982686,494.21557779982686,494.21557779982686,494.21557779982686,494.21557779982686,494.21557779982686,r,0.4915392999537289,494.73227569973096,494.73227569973096,494.73227569973096,494.73227569973096,494.73227569973096,494.73227569973096,495.01359609980136,495.01359609980136,496.21041539963335,496.21041539963335,496.22695949999616,496.22695949999616,496.22695949999616,496.22695949999616,496.22695949999616,496.22695949999616,496.22695949999616,496.22695949999616,496.22695949999616,496.22695949999616,496.22695949999616,496.22695949999616,496.22695949999616,496.22695949999616,496.22695949999616,498.73594809975475,498.73594809975475,498.73594809975475,498.73594809975475,498.73594809975475,56,37,58,42,56,48,4.0,0.5804444001987576,499.3339713998139,501.2960349000059,,,,,,,,111,f,1,2022-12-11_13h57.02.976,RL,2022.2.4,60.22761218629459,
1,66,0,66,0,,,,,,,,,,None,501.2960349000059,501.2960349000059,501.2960349000059,501.2960349000059,501.2960349000059,501.2960349000059,r,0.34657240007072687,501.6615775995888,501.6615775995888,501.6615775995888,501.6615775995888,501.6615775995888,501.6615775995888,501.94401540001854,501.94401540001854,503.60633399989456,503.60633399989456,503.6230612997897,503.6230612997897,503.6230612997897,503.6230612997897,503.6230612997897,503.6230612997897,503.6230612997897,503.6230612997897,503.6230612997897,503.6230612997897,503.6230612997897,503.6230612997897,503.6230612997897,503.6230612997897,503.6230612997897,506.1323067997582,506.1323067997582,506.1323067997582,506.1323067997582,506.1323067997582,39,28,61,44,39,41,2.0,0.5146459001116455,506.6642070999369,508.2775177997537,,,,,,,,111,f,1,2022-12-11_13h57.02.976,RL,2022.2.4,60.22761218629459,
1,67,0,67,0,,,,,,,,,,None,508.2775177997537,508.2775177997537,508.2775177997537,508.2775177997537,508.2775177997537,508.2775177997537,r,0.3765747998841107,508.67810289980844,508.67810289980844,508.67810289980844,508.67810289980844,508.67810289980844,508.67810289980844,508.97579199960455,508.97579199960455,510.33859089994803,510.33859089994803,510.33859089994803,510.33859089994803,510.33859089994803,510.33859089994803,510.33859089994803,510.33859089994803,510.33859089994803,510.33859089994803,510.33859089994803,510.33859089994803,510.33859089994803,510.33859089994803,510.33859089994803,510.33859089994803,510.33859089994803,512.8475198997185,512.8475198997185,512.8475198997185,512.8475198997185,512.8475198997185,37,39,64,42,37,46,2.0,0.4655534001067281,513.329353899695,515.1082013999112,,,,,,,,111,f,1,2022-12-11_13h57.02.976,RL,2022.2.4,60.22761218629459,
1,68,0,68,0,,,,,,,,,,None,515.1082013999112,515.1082013999112,515.1082013999112,515.1082013999112,515.1082013999112,515.1082013999112,r,0.4222910995595157,515.55768049974,515.55768049974,515.55768049974,515.55768049974,515.55768049974,515.55768049974,515.8565016998909,515.8565016998909,517.1862074998207,517.1862074998207,517.1862074998207,517.1862074998207,517.1862074998207,517.1862074998207,517.1862074998207,517.1862074998207,517.1862074998207,517.1862074998207,517.1862074998207,517.1862074998207,517.1862074998207,517.1862074998207,517.1862074998207,517.1862074998207,517.1862074998207,519.6955836997367,519.6955836997367,519.6955836997367,519.6955836997367,519.6955836997367,45,24,55,44,45,39,4.0,0.6640359000302851,520.3765455000103,521.9073503999971,,,,,,,,111,f,1,2022-12-11_13h57.02.976,RL,2022.2.4,60.22761218629459,
1,69,0,69,0,,,,,,,,,,None,521.9073503999971,521.9073503999971,521.9073503999971,521.9073503999971,521.9073503999971,521.9073503999971,r,0.40995509969070554,522.3393742996268,522.3393742996268,522.3393742996268,522.3393742996268,522.3393742996268,522.3393742996268,522.6387152997777,522.6387152997777,523.4690386997536,523.4690386997536,523.4690386997536,523.4690386997536,523.4690386997536,523.4690386997536,523.4690386997536,523.4690386997536,523.4690386997536,523.4690386997536,523.4690386997536,523.4690386997536,523.4690386997536,523.4690386997536,523.4690386997536,523.4690386997536,523.4690386997536,525.9782241997309,525.9782241997309,525.9782241997309,525.9782241997309,525.9782241997309,41,34,45,52,41,36,4.0,0.812833399977535,526.8089677998796,528.7379579995759,,,,,,,,111,f,1,2022-12-11_13h57.02.976,RL,2022.2.4,60.22761218629459,
1,70,0,70,0,,,,,,,,,,None,528.7379579995759,528.7379579995759,528.7379579995759,528.7379579995759,528.7379579995759,528.7379579995759,r,0.332264699973166,529.1061247996986,529.1061247996986,529.1061247996986,529.1061247996986,529.1061247996986,529.1061247996986,529.4034523000009,529.4034523000009,531.3474440998398,531.3474440998398,531.3474440998398,531.3474440998398,531.3474440998398,531.3474440998398,531.3474440998398,531.3474440998398,531.3474440998398,531.3474440998398,531.3474440998398,531.3474440998398,531.3474440998398,531.3474440998398,531.3474440998398,531.3474440998398,531.3474440998398,533.8567416998558,533.8567416998558,533.8567416998558,533.8567416998558,533.8567416998558,55,32,56,42,55,42,4.0,0.41514299996197224,534.2887634998187,535.9017726997845,,,,,,,,111,f,1,2022-12-11_13h57.02.976,RL,2022.2.4,60.22761218629459,
1,71,0,71,0,,,,,,,,,,None,535.9017726997845,535.9017726997845,535.9017726997845,535.9017726997845,535.9017726997845,535.9017726997845,r,0.34987059980630875,536.2846851996146,536.2846851996146,536.2846851996146,536.2846851996146,536.2846851996146,536.2846851996146,536.5834077997133,536.5834077997133,537.7969492999837,537.7969492999837,537.7969492999837,537.7969492999837,537.7969492999837,537.7969492999837,537.7969492999837,537.7969492999837,537.7969492999837,537.7969492999837,537.7969492999837,537.7969492999837,537.7969492999837,537.7969492999837,537.7969492999837,537.7969492999837,537.7969492999837,540.3056408995762,540.3056408995762,540.3056408995762,540.3056408995762,540.3056408995762,44,41,42,46,44,43,4.0,0.464011600241065,540.7876708996482,542.6169545999728,,,,,,,,111,f,1,2022-12-11_13h57.02.976,RL,2022.2.4,60.22761218629459,
1,72,0,72,0,,,,,,,,,,None,542.6169545999728,542.6169545999728,542.6169545999728,542.6169545999728,542.6169545999728,542.6169545999728,r,0.281973899807781,542.9173641996458,542.9173641996458,542.9173641996458,542.9173641996458,542.9173641996458,542.9173641996458,543.2152846995741,543.2152846995741,545.1433106996119,545.1433106996119,545.1433106996119,545.1433106996119,545.1433106996119,545.1433106996119,545.1433106996119,545.1433106996119,545.1433106996119,545.1433106996119,545.1433106996119,545.1433106996119,545.1433106996119,545.1433106996119,545.1433106996119,545.1433106996119,545.1433106996119,547.6526080998592,547.6526080998592,547.6526080998592,547.6526080998592,547.6526080998592,47,36,45,41,47,43,4.0,0.39785150019451976,548.0676846997812,549.9632686995901,,,,,,,,111,f,1,2022-12-11_13h57.02.976,RL,2022.2.4,60.22761218629459,
1,73,0,73,0,,,,,,,,,,None,549.9632686995901,549.9632686995901,549.9632686995901,549.9632686995901,549.9632686995901,549.9632686995901,r,0.3924398999661207,550.379450999666,550.379450999666,550.379450999666,550.379450999666,550.379450999666,550.379450999666,550.678399999626,550.678399999626,551.6256820997223,551.6256820997223,551.6425570999272,551.6425570999272,551.6425570999272,551.6425570999272,551.6425570999272,551.6425570999272,551.6425570999272,551.6425570999272,551.6425570999272,551.6425570999272,551.6425570999272,551.6425570999272,551.6425570999272,551.6425570999272,551.6425570999272,554.1513755996712,554.1513755996712,554.1513755996712,554.1513755996712,554.1513755996712,50,40,44,40,50,50,3.0,0.8480588998645544,555.015712399967,556.9443797999993,,,,,,,,111,f,1,2022-12-11_13h57.02.976,RL,2022.2.4,60.22761218629459,
1,74,0,74,0,,,,,,,,,,None,556.9443797999993,556.9443797999993,556.9443797999993,556.9443797999993,556.9443797999993,556.9443797999993,r,0.28285229997709394,557.2610557996668,557.2610557996668,557.2610557996668,557.2610557996668,557.2610557996668,557.2610557996668,557.5603943997994,557.5603943997994,558.988889799919,558.988889799919,558.988889799919,558.988889799919,558.988889799919,558.988889799919,558.988889799919,558.988889799919,558.988889799919,558.988889799919,558.988889799919,558.988889799919,558.988889799919,558.988889799919,558.988889799919,558.988889799919,558.988889799919,561.4981032996438,561.4981032996438,561.4981032996438,561.4981032996438,561.4981032996438,39,36,45,39,39,35,4.0,0.7970157000236213,562.3122266000137,563.8753978996538,,,,,,,,111,f,1,2022-12-11_13h57.02.976,RL,2022.2.4,60.22761218629459,
1,75,0,75,0,,,,,,,,,,q,710.4422581000254,710.4422581000254,710.4422581000254,710.4422581000254,710.4422581000254,710.4422581000254,r,0.9012394999153912,711.3786965999752,711.3786965999752,711.3786965999752,711.3786965999752,711.3786965999752,711.3786965999752,711.6726567000151,711.6726567000151,713.4174856999889,713.4174856999889,713.4174856999889,713.4174856999889,713.4174856999889,713.4174856999889,713.4174856999889,713.4174856999889,713.4174856999889,713.4174856999889,713.4174856999889,713.4174856999889,713.4174856999889,713.4174856999889,713.4174856999889,713.4174856999889,713.4174856999889,715.9266730998643,715.9266730998643,715.9266730998643,715.9266730998643,715.9266730998643,43,38,48,40,43,51,3.0,0.6305672000162303,716.5748821999878,718.1045714998618,563.8753978996538,563.8753978996538,146.53944109985605,,,,,111,f,1,2022-12-11_13h57.02.976,RL,2022.2.4,60.22761218629459,
1,76,0,76,0,,,,,,,,,,None,718.1045714998618,718.1045714998618,718.1045714998618,718.1045714998618,718.1045714998618,718.1045714998618,r,0.3242373000830412,718.4579379996285,718.4579379996285,718.4579379996285,718.4579379996285,718.4579379996285,718.4579379996285,718.753024299629,718.753024299629,720.3986653997563,720.3986653997563,720.3986653997563,720.3986653997563,720.3986653997563,720.3986653997563,720.3986653997563,720.3986653997563,720.3986653997563,720.3986653997563,720.3986653997563,720.3986653997563,720.3986653997563,720.3986653997563,720.3986653997563,720.3986653997563,720.3986653997563,722.9078839998692,722.9078839998692,722.9078839998692,722.9078839998692,722.9078839998692,36,35,49,40,36,44,3.0,0.4485621997155249,723.3728245999664,725.0366881997325,,,,,,,,111,f,1,2022-12-11_13h57.02.976,RL,2022.2.4,60.22761218629459,
1,77,0,77,0,,,,,,,,,,None,725.0366881997325,725.0366881997325,725.0366881997325,725.0366881997325,725.0366881997325,725.0366881997325,r,0.2507654996588826,725.322321599815,725.322321599815,725.322321599815,725.322321599815,725.322321599815,725.322321599815,725.6178847998381,725.6178847998381,727.3462999998592,727.3462999998592,727.3462999998592,727.3462999998592,727.3462999998592,727.3462999998592,727.3462999998592,727.3462999998592,727.3462999998592,727.3462999998592,727.3462999998592,727.3462999998592,727.3462999998592,727.3462999998592,727.3462999998592,727.3462999998592,727.3462999998592,729.8561022998765,729.8561022998765,729.8561022998765,729.8561022998765,729.8561022998765,42,40,42,46,42,37,4.0,0.5645886999554932,730.4369092998095,732.415570399724,,,,,,,,111,f,1,2022-12-11_13h57.02.976,RL,2022.2.4,60.22761218629459,
1,78,0,78,0,,,,,,,,,,None,732.415570399724,732.415570399724,732.415570399724,732.415570399724,732.415570399724,732.415570399724,r,0.3230762998573482,732.7662036996335,732.7662036996335,732.7662036996335,732.7662036996335,732.7662036996335,732.7662036996335,733.0643091998063,733.0643091998063,734.5777013995685,734.5777013995685,734.5777013995685,734.5777013995685,734.5777013995685,734.5777013995685,734.5777013995685,734.5777013995685,734.5777013995685,734.5777013995685,734.5777013995685,734.5777013995685,734.5777013995685,734.5777013995685,734.5777013995685,734.5777013995685,734.5777013995685,737.0855119996704,737.0855119996704,737.0855119996704,737.0855119996704,737.0855119996704,39,50,41,39,39,36,4.0,0.5312715000472963,737.6339793996885,739.5301858996972,,,,,,,,111,f,1,2022-12-11_13h57.02.976,RL,2022.2.4,60.22761218629459,
1,79,0,79,0,,,,,,,,,,None,739.5301858996972,739.5301858996972,739.5301858996972,739.5301858996972,739.5301858996972,739.5301858996972,r,0.2900694999843836,739.8480281997472,739.8480281997472,739.8480281997472,739.8480281997472,739.8480281997472,739.8480281997472,740.1445561000146,740.1445561000146,741.3750604996458,741.3750604996458,741.3750604996458,741.3750604996458,741.3750604996458,741.3750604996458,741.3750604996458,741.3750604996458,741.3750604996458,741.3750604996458,741.3750604996458,741.3750604996458,741.3750604996458,741.3750604996458,741.3750604996458,741.3750604996458,741.3750604996458,743.8840979998931,743.8840979998931,743.8840979998931,743.8840979998931,743.8840979998931,46,41,41,44,46,48,2.0,0.5969962002709508,744.498691899702,746.3945015999489,,,,,,,,111,f,1,2022-12-11_13h57.02.976,RL,2022.2.4,60.22761218629459,
1,80,0,80,0,,,,,,,,,,None,746.3945015999489,746.3945015999489,746.3945015999489,746.3945015999489,746.3945015999489,746.3945015999489,r,0.35274580027908087,746.7782321996056,746.7782321996056,746.7782321996056,746.7782321996056,746.7782321996056,746.7782321996056,747.076287899632,747.076287899632,748.604687999934,748.604687999934,748.604687999934,748.604687999934,748.604687999934,748.604687999934,748.604687999934,748.604687999934,748.604687999934,748.604687999934,748.604687999934,748.604687999934,748.604687999934,748.604687999934,748.604687999934,748.604687999934,748.604687999934,751.1141037996858,751.1141037996858,751.1141037996858,751.1141037996858,751.1141037996858,36,43,48,37,36,45,1.0,0.8301404002122581,751.9615137996152,753.5084802997299,,,,,,,,111,f,1,2022-12-11_13h57.02.976,RL,2022.2.4,60.22761218629459,
1,81,0,81,0,,,,,,,,,,None,753.5084802997299,753.5084802997299,753.5084802997299,753.5084802997299,753.5084802997299,753.5084802997299,r,0.286642299965024,753.8306414997205,753.8306414997205,753.8306414997205,753.8306414997205,753.8306414997205,753.8306414997205,754.1235766997561,754.1235766997561,756.0512923998758,756.0512923998758,756.0512923998758,756.0512923998758,756.0512923998758,756.0512923998758,756.0512923998758,756.0512923998758,756.0512923998758,756.0512923998758,756.0512923998758,756.0512923998758,756.0512923998758,756.0512923998758,756.0512923998758,756.0512923998758,756.0512923998758,758.5605517998338,758.5605517998338,758.5605517998338,758.5605517998338,758.5605517998338,52,51,42,41,52,45,4.0,0.6644172999076545,759.2417804999277,760.871135499794,,,,,,,,111,f,1,2022-12-11_13h57.02.976,RL,2022.2.4,60.22761218629459,
1,82,0,82,0,,,,,,,,,,None,760.871135499794,760.871135499794,760.871135499794,760.871135499794,760.871135499794,760.871135499794,r,0.35038849990814924,761.2546269996092,761.2546269996092,761.2546269996092,761.2546269996092,761.2546269996092,761.2546269996092,761.5530542000197,761.5530542000197,763.4810146996751,763.4810146996751,763.4810146996751,763.4810146996751,763.4810146996751,763.4810146996751,763.4810146996751,763.4810146996751,763.4810146996751,763.4810146996751,763.4810146996751,763.4810146996751,763.4810146996751,763.4810146996751,763.4810146996751,763.4810146996751,763.4810146996751,765.9904335997999,765.9904335997999,765.9904335997999,765.9904335997999,765.9904335997999,50,40,38,40,50,43,4.0,0.38157259998843074,766.3894732999615,768.0682911998592,,,,,,,,111,f,1,2022-12-11_13h57.02.976,RL,2022.2.4,60.22761218629459,
1,83,0,83,0,,,,,,,,,,None,768.0682911998592,768.0682911998592,768.0682911998592,768.0682911998592,768.0682911998592,768.0682911998592,r,0.4139557001180947,768.5008719996549,768.5008719996549,768.5008719996549,768.5008719996549,768.5008719996549,768.5008719996549,768.7998954998329,768.7998954998329,769.9299221998081,769.9299221998081,769.9299221998081,769.9299221998081,769.9299221998081,769.9299221998081,769.9299221998081,769.9299221998081,769.9299221998081,769.9299221998081,769.9299221998081,769.9299221998081,769.9299221998081,769.9299221998081,769.9299221998081,769.9299221998081,769.9299221998081,772.4391840999015,772.4391840999015,772.4391840999015,772.4391840999015,772.4391840999015,42,50,40,43,42,43,3.0,0.5311861000955105,772.9875874998979,774.799684799742,,,,,,,,111,f,1,2022-12-11_13h57.02.976,RL,2022.2.4,60.22761218629459,
1,84,0,84,0,,,,,,,,,,None,774.799684799742,774.799684799742,774.799684799742,774.799684799742,774.799684799742,774.799684799742,r,0.25448419991880655,775.0873119998723,775.0873119998723,775.0873119998723,775.0873119998723,775.0873119998723,775.0873119998723,775.3819300998002,775.3819300998002,777.1443644999526,777.1443644999526,777.1443644999526,777.1443644999526,777.1443644999526,777.1443644999526,777.1443644999526,777.1443644999526,777.1443644999526,777.1443644999526,777.1443644999526,777.1443644999526,777.1443644999526,777.1443644999526,777.1443644999526,777.1443644999526,777.1443644999526,779.6527064000256,779.6527064000256,779.6527064000256,779.6527064000256,779.6527064000256,38,46,51,44,38,61,1.0,0.7147896001115441,780.384589899797,782.0801348998211,,,,,,,,111,f,1,2022-12-11_13h57.02.976,RL,2022.2.4,60.22761218629459,
1,85,0,85,0,,,,,,,,,,None,782.0801348998211,782.0801348998211,782.0801348998211,782.0801348998211,782.0801348998211,782.0801348998211,r,0.3063203003257513,782.4239973998629,782.4239973998629,782.4239973998629,782.4239973998629,782.4239973998629,782.4239973998629,782.7123344996944,782.7123344996944,784.1084482995793,784.1084482995793,784.1248713997193,784.1248713997193,784.1248713997193,784.1248713997193,784.1248713997193,784.1248713997193,784.1248713997193,784.1248713997193,784.1248713997193,784.1248713997193,784.1248713997193,784.1248713997193,784.1248713997193,784.1248713997193,784.1248713997193,786.633608599659,786.633608599659,786.633608599659,786.633608599659,786.633608599659,47,54,44,38,47,48,1.0,0.8638993999920785,787.5146641000174,789.2274395995773,,,,,,,,111,f,1,2022-12-11_13h57.02.976,RL,2022.2.4,60.22761218629459,
1,86,0,86,0,,,,,,,,,,None,789.2274395995773,789.2274395995773,789.2274395995773,789.2274395995773,789.2274395995773,789.2274395995773,r,0.3197150998748839,789.5842662998475,789.5842662998475,789.5842662998475,789.5842662998475,789.5842662998475,789.5842662998475,789.8758336999454,789.8758336999454,791.8701666998677,791.8701666998677,791.8869485999458,791.8869485999458,791.8869485999458,791.8869485999458,791.8869485999458,791.8869485999458,791.8869485999458,791.8869485999458,791.8869485999458,791.8869485999458,791.8869485999458,791.8869485999458,791.8869485999458,791.8869485999458,791.8869485999458,794.3960024998523,794.3960024998523,794.3960024998523,794.3960024998523,794.3960024998523,43,45,47,46,43,56,1.0,0.6309445998631418,795.0440357998013,796.8398127998225,,,,,,,,111,f,1,2022-12-11_13h57.02.976,RL,2022.2.4,60.22761218629459,
1,87,0,87,0,,,,,,,,,,None,796.8398127998225,796.8398127998225,796.8398127998225,796.8398127998225,796.8398127998225,796.8398127998225,j,0.6287714000791311,797.4934947998263,797.4934947998263,797.4934947998263,797.4934947998263,797.4934947998263,797.4934947998263,797.7875851998106,797.7875851998106,799.3995691998862,799.3995691998862,799.3995691998862,799.3995691998862,799.3995691998862,799.3995691998862,799.3995691998862,799.3995691998862,799.3995691998862,799.3995691998862,799.3995691998862,799.3995691998862,799.3995691998862,799.3995691998862,799.3995691998862,799.3995691998862,799.3995691998862,801.9089145995677,801.9089145995677,801.9089145995677,801.9089145995677,801.9089145995677,38,47,47,45,45,49,1.0,1.1786130000837147,803.1053172997199,805.1012904997915,,,,,,,,111,f,1,2022-12-11_13h57.02.976,RL,2022.2.4,60.22761218629459,
1,88,0,88,0,,,,,,,,,,None,805.1012904997915,805.1012904997915,805.1012904997915,805.1012904997915,805.1012904997915,805.1012904997915,j,0.3381567997857928,805.4740824997425,805.4740824997425,805.4740824997425,805.4740824997425,805.4740824997425,805.4740824997425,805.7656635995954,805.7656635995954,807.4786896998994,807.4786896998994,807.4786896998994,807.4786896998994,807.4786896998994,807.4786896998994,807.4786896998994,807.4786896998994,807.4786896998994,807.4786896998994,807.4786896998994,807.4786896998994,807.4786896998994,807.4786896998994,807.4786896998994,807.4786896998994,807.4786896998994,809.9866994996555,809.9866994996555,809.9866994996555,809.9866994996555,809.9866994996555,45,48,42,37,37,52,1.0,0.41447259997949004,810.4188290997408,812.3806695998646,,,,,,,,111,f,1,2022-12-11_13h57.02.976,RL,2022.2.4,60.22761218629459,
1,89,0,89,0,,,,,,,,,,None,812.3806695998646,812.3806695998646,812.3806695998646,812.3806695998646,812.3806695998646,812.3806695998646,i,0.23080069990828633,812.6307708998211,812.6307708998211,812.6307708998211,812.6307708998211,812.6307708998211,812.6307708998211,812.9303668998182,812.9303668998182,814.6912094997242,814.6912094997242,814.6912094997242,814.6912094997242,814.6912094997242,814.6912094997242,814.6912094997242,814.6912094997242,814.6912094997242,814.6912094997242,814.6912094997242,814.6912094997242,814.6912094997242,814.6912094997242,814.6912094997242,814.6912094997242,814.6912094997242,817.2004630998708,817.2004630998708,817.2004630998708,817.2004630998708,817.2004630998708,36,38,48,40,48,58,1.0,0.5634381999261677,817.782080099918,819.2955207997002,,,,,,,,111,f,1,2022-12-11_13h57.02.976,RL,2022.2.4,60.22761218629459,
1,90,0,90,0,,,,,,,,,,None,819.2955207997002,819.2955207997002,819.2955207997002,819.2955207997002,819.2955207997002,819.2955207997002,f,0.3872532998211682,819.7112938999198,819.7112938999198,819.7112938999198,819.7112938999198,819.7112938999198,819.7112938999198,820.0103191998787,820.0103191998787,821.8716561999172,821.8716561999172,821.8716561999172,821.8716561999172,821.8716561999172,821.8716561999172,821.8716561999172,821.8716561999172,821.8716561999172,821.8716561999172,821.8716561999172,821.8716561999172,821.8716561999172,821.8716561999172,821.8716561999172,821.8716561999172,821.8716561999172,824.3809765996411,824.3809765996411,824.3809765996411,824.3809765996411,824.3809765996411,52,44,50,47,44,62,1.0,0.41515580005943775,824.8128417995758,826.5921512995847,,,,,,,,111,f,1,2022-12-11_13h57.02.976,RL,2022.2.4,60.22761218629459,
1,91,0,91,0,,,,,,,,,,None,826.5921512995847,826.5921512995847,826.5921512995847,826.5921512995847,826.5921512995847,826.5921512995847,j,0.3330525001510978,826.9581381999888,826.9581381999888,826.9581381999888,826.9581381999888,826.9581381999888,826.9581381999888,827.2571911998093,827.2571911998093,828.254324299749,828.254324299749,828.254324299749,828.254324299749,828.254324299749,828.254324299749,828.254324299749,828.254324299749,828.254324299749,828.254324299749,828.254324299749,828.254324299749,828.254324299749,828.254324299749,828.254324299749,828.254324299749,828.254324299749,830.7528121997602,830.7528121997602,830.7528121997602,830.7528121997602,830.7528121997602,43,38,43,41,41,54,1.0,0.3650738997384906,831.1462406995706,833.0410095998086,,,,,,,,111,f,1,2022-12-11_13h57.02.976,RL,2022.2.4,60.22761218629459,
1,92,0,92,0,,,,,,,,,,None,833.0410095998086,833.0410095998086,833.0410095998086,833.0410095998086,833.0410095998086,833.0410095998086,r,0.2530579003505409,833.3285731999204,833.3285731999204,833.3285731999204,833.3285731999204,833.3285731999204,833.3285731999204,833.62312249979,833.62312249979,835.3187001999468,835.3187001999468,835.3351361998357,835.3351361998357,835.3351361998357,835.3351361998357,835.3351361998357,835.3351361998357,835.3351361998357,835.3351361998357,835.3351361998357,835.3351361998357,835.3351361998357,835.3351361998357,835.3351361998357,835.3351361998357,835.3351361998357,837.8442727997899,837.8442727997899,837.8442727997899,837.8442727997899,837.8442727997899,51,44,50,52,51,62,1.0,0.39777270006015897,838.2595001999289,840.0885603995994,,,,,,,,111,f,1,2022-12-11_13h57.02.976,RL,2022.2.4,60.22761218629459,
1,93,0,93,0,,,,,,,,,,None,840.0885603995994,840.0885603995994,840.0885603995994,840.0885603995994,840.0885603995994,840.0885603995994,r,0.32128170039504766,840.4383773999289,840.4383773999289,840.4383773999289,840.4383773999289,840.4383773999289,840.4383773999289,840.7371075996198,840.7371075996198,842.5652909995988,842.5652909995988,842.5652909995988,842.5652909995988,842.5652909995988,842.5652909995988,842.5652909995988,842.5652909995988,842.5652909995988,842.5652909995988,842.5652909995988,842.5652909995988,842.5652909995988,842.5652909995988,842.5652909995988,842.5652909995988,842.5652909995988,845.0746124000289,845.0746124000289,845.0746124000289,845.0746124000289,845.0746124000289,49,35,57,50,49,72,1.0,0.398246499709785,845.4898464996368,847.2356755998917,,,,,,,,111,f,1,2022-12-11_13h57.02.976,RL,2022.2.4,60.22761218629459,
1,94,0,94,0,,,,,,,,,,None,847.2356755998917,847.2356755998917,847.2356755998917,847.2356755998917,847.2356755998917,847.2356755998917,i,0.2213226999156177,847.4927454995923,847.4927454995923,847.4927454995923,847.4927454995923,847.4927454995923,847.4927454995923,847.7844614996575,847.7844614996575,848.7649026997387,848.7649026997387,848.7825127998367,848.7825127998367,848.7825127998367,848.7825127998367,848.7825127998367,848.7825127998367,848.7825127998367,848.7825127998367,848.7825127998367,848.7825127998367,848.7825127998367,848.7825127998367,848.7825127998367,848.7825127998367,848.7825127998367,851.2912573996,851.2912573996,851.2912573996,851.2912573996,851.2912573996,55,37,47,55,47,63,1.0,0.41478959983214736,851.7226920998655,853.4193214997649,,,,,,,,111,f,1,2022-12-11_13h57.02.976,RL,2022.2.4,60.22761218629459,
1,95,0,95,0,,,,,,,,,,None,853.4193214997649,853.4193214997649,853.4193214997649,853.4193214997649,853.4193214997649,853.4193214997649,f,0.290310800075531,853.7353166998364,853.7353166998364,853.7353166998364,853.7353166998364,853.7353166998364,853.7353166998364,854.0345663996413,854.0345663996413,855.9789048996754,855.9789048996754,855.9789048996754,855.9789048996754,855.9789048996754,855.9789048996754,855.9789048996754,855.9789048996754,855.9789048996754,855.9789048996754,855.9789048996754,855.9789048996754,855.9789048996754,855.9789048996754,855.9789048996754,855.9789048996754,855.9789048996754,858.4875890999101,858.4875890999101,858.4875890999101,858.4875890999101,858.4875890999101,54,34,48,51,34,57,1.0,0.39811099972575903,858.9030784997158,860.715702699963,,,,,,,,111,f,1,2022-12-11_13h57.02.976,RL,2022.2.4,60.22761218629459,
1,96,0,96,0,,,,,,,,,,None,860.715702699963,860.715702699963,860.715702699963,860.715702699963,860.715702699963,860.715702699963,f,0.25516160018742085,860.9986541997641,860.9986541997641,860.9986541997641,860.9986541997641,860.9986541997641,860.9986541997641,861.2975952997804,861.2975952997804,863.1590364999138,863.1590364999138,863.1756911999546,863.1756911999546,863.1756911999546,863.1756911999546,863.1756911999546,863.1756911999546,863.1756911999546,863.1756911999546,863.1756911999546,863.1756911999546,863.1756911999546,863.1756911999546,863.1756911999546,863.1756911999546,863.1756911999546,865.6852017999627,865.6852017999627,865.6852017999627,865.6852017999627,865.6852017999627,54,45,44,52,45,37,2.0,0.5656821001321077,866.2665738998912,868.2120288996957,,,,,,,,111,f,1,2022-12-11_13h57.02.976,RL,2022.2.4,60.22761218629459,
1,97,0,97,0,,,,,,,,,,None,868.2120288996957,868.2120288996957,868.2120288996957,868.2120288996957,868.2120288996957,868.2120288996957,f,0.24534379970282316,868.4804965998046,868.4804965998046,868.4804965998046,868.4804965998046,868.4804965998046,868.4804965998046,868.7785219997168,868.7785219997168,870.139953199774,870.139953199774,870.139953199774,870.139953199774,870.139953199774,870.139953199774,870.139953199774,870.139953199774,870.139953199774,870.139953199774,870.139953199774,870.139953199774,870.139953199774,870.139953199774,870.139953199774,870.139953199774,870.139953199774,872.6493397997692,872.6493397997692,872.6493397997692,872.6493397997692,872.6493397997692,63,30,42,59,30,60,2.0,0.4148241998627782,873.0812662998214,874.9601734997705,,,,,,,,111,f,1,2022-12-11_13h57.02.976,RL,2022.2.4,60.22761218629459,
1,98,0,98,0,,,,,,,,,,None,874.9601734997705,874.9601734997705,874.9601734997705,874.9601734997705,874.9601734997705,874.9601734997705,f,0.274396900087595,875.2701615998521,875.2701615998521,875.2701615998521,875.2701615998521,875.2701615998521,875.2701615998521,875.5587131995708,875.5587131995708,877.2208110997453,877.2208110997453,877.237598599866,877.237598599866,877.237598599866,877.237598599866,877.237598599866,877.237598599866,877.237598599866,877.237598599866,877.237598599866,877.237598599866,877.237598599866,877.237598599866,877.237598599866,877.237598599866,877.237598599866,879.7468121997081,879.7468121997081,879.7468121997081,879.7468121997081,879.7468121997081,55,36,39,56,36,41,1.0,0.5800218996591866,880.3450648998842,881.9245105995797,,,,,,,,111,f,1,2022-12-11_13h57.02.976,RL,2022.2.4,60.22761218629459,
1,99,0,99,0,,,,,,,,,,None,881.9245105995797,881.9245105995797,881.9245105995797,881.9245105995797,881.9245105995797,881.9245105995797,f,0.2877150997519493,882.2457247995771,882.2457247995771,882.2457247995771,882.2457247995771,882.2457247995771,882.2457247995771,882.5398483998142,882.5398483998142,883.7194652999751,883.7194652999751,883.7360839997418,883.7360839997418,883.7360839997418,883.7360839997418,883.7360839997418,883.7360839997418,883.7360839997418,883.7360839997418,883.7360839997418,883.7360839997418,883.7360839997418,883.7360839997418,883.7360839997418,883.7360839997418,883.7360839997418,886.245998899918,886.245998899918,886.245998899918,886.245998899918,886.245998899918,57,38,48,60,38,33,1.0,0.3505410999059677,886.6110035995953,888.2239999999292,,,,,,,,111,f,1,2022-12-11_13h57.02.976,RL,2022.2.4,60.22761218629459,
1,100,0,100,0,,,,,,,,,,None,888.2239999999292,888.2239999999292,888.2239999999292,888.2239999999292,888.2239999999292,888.2239999999292,f,0.25405329978093505,888.5079969996586,888.5079969996586,888.5079969996586,888.5079969996586,888.5079969996586,888.5079969996586,888.8059056997299,888.8059056997299,890.2189644998871,890.2189644998871,890.2189644998871,890.2189644998871,890.2189644998871,890.2189644998871,890.2189644998871,890.2189644998871,890.2189644998871,890.2189644998871,890.2189644998871,890.2189644998871,890.2189644998871,890.2189644998871,890.2189644998871,890.2189644998871,890.2189644998871,892.7277378998697,892.7277378998697,892.7277378998697,892.7277378998697,892.7277378998697,59,40,40,57,40,42,1.0,0.6306902999058366,893.3756823996082,895.2731467997655,,,,,,,,111,f,1,2022-12-11_13h57.02.976,RL,2022.2.4,60.22761218629459,
1,101,0,101,0,,,,,,,,,,None,895.2731467997655,895.2731467997655,895.2731467997655,895.2731467997655,895.2731467997655,895.2731467997655,f,0.23733909986913204,895.5386635996401,895.5386635996401,895.5386635996401,895.5386635996401,895.5386635996401,895.5386635996401,895.8371117999777,895.8371117999777,896.7843313999474,896.7843313999474,896.7843313999474,896.7843313999474,896.7843313999474,896.7843313999474,896.7843313999474,896.7843313999474,896.7843313999474,896.7843313999474,896.7843313999474,896.7843313999474,896.7843313999474,896.7843313999474,896.7843313999474,896.7843313999474,896.7843313999474,899.2936732997186,899.2936732997186,899.2936732997186,899.2936732997186,899.2936732997186,56,31,38,52,31,56,1.0,0.34890770027413964,899.6586666000076,901.2881946996786,,,,,,,,111,f,1,2022-12-11_13h57.02.976,RL,2022.2.4,60.22761218629459,
1,102,0,102,0,,,,,,,,,,None,901.2881946996786,901.2881946996786,901.2881946996786,901.2881946996786,901.2881946996786,901.2881946996786,r,0.3357884003780782,901.6559116998687,901.6559116998687,901.6559116998687,901.6559116998687,901.6559116998687,901.6559116998687,901.9537145998329,901.9537145998329,902.9175628996454,902.9175628996454,902.9175628996454,902.9175628996454,902.9175628996454,902.9175628996454,902.9175628996454,902.9175628996454,902.9175628996454,902.9175628996454,902.9175628996454,902.9175628996454,902.9175628996454,902.9175628996454,902.9175628996454,902.9175628996454,902.9175628996454,905.4263010998257,905.4263010998257,905.4263010998257,905.4263010998257,905.4263010998257,45,42,47,48,45,61,1.0,0.4982278998941183,905.9420457999222,907.9200174999423,,,,,,,,111,f,1,2022-12-11_13h57.02.976,RL,2022.2.4,60.22761218629459,
1,103,0,103,0,,,,,,,,,,None,907.9200174999423,907.9200174999423,907.9200174999423,907.9200174999423,907.9200174999423,907.9200174999423,r,0.32277579978108406,908.2737821997143,908.2737821997143,908.2737821997143,908.2737821997143,908.2737821997143,908.2737821997143,908.5687028998509,908.5687028998509,910.4799863998778,910.4799863998778,910.4799863998778,910.4799863998778,910.4799863998778,910.4799863998778,910.4799863998778,910.4799863998778,910.4799863998778,910.4799863998778,910.4799863998778,910.4799863998778,910.4799863998778,910.4799863998778,910.4799863998778,910.4799863998778,910.4799863998778,912.9890174996108,912.9890174996108,912.9890174996108,912.9890174996108,912.9890174996108,52,48,40,47,52,32,1.0,0.5823965999297798,913.5878033000045,915.3166981996037,,,,,,,,111,f,1,2022-12-11_13h57.02.976,RL,2022.2.4,60.22761218629459,
1,104,0,104,0,,,,,,,,,,None,915.3166981996037,915.3166981996037,915.3166981996037,915.3166981996037,915.3166981996037,915.3166981996037,r,0.271386899985373,915.621793099679,915.621793099679,915.621793099679,915.621793099679,915.621793099679,915.621793099679,915.9154943996109,915.9154943996109,917.2779121999629,917.2779121999629,917.2947400999255,917.2947400999255,917.2947400999255,917.2947400999255,917.2947400999255,917.2947400999255,917.2947400999255,917.2947400999255,917.2947400999255,917.2947400999255,917.2947400999255,917.2947400999255,917.2947400999255,917.2947400999255,917.2947400999255,919.8037092997693,919.8037092997693,919.8037092997693,919.8037092997693,919.8037092997693,49,35,39,45,49,62,2.0,1.0963814002461731,920.9171231999062,922.8463800000027,,,,,,,,111,f,1,2022-12-11_13h57.02.976,RL,2022.2.4,60.22761218629459,
1,105,0,105,0,,,,,,,,,,None,922.8463800000027,922.8463800000027,922.8463800000027,922.8463800000027,922.8463800000027,922.8463800000027,r,0.23806519992649555,923.1132693998516,923.1132693998516,923.1132693998516,923.1132693998516,923.1132693998516,923.1132693998516,923.4117711000144,923.4117711000144,925.0738654998131,925.0738654998131,925.090261799749,925.090261799749,925.090261799749,925.090261799749,925.090261799749,925.090261799749,925.090261799749,925.090261799749,925.090261799749,925.090261799749,925.090261799749,925.090261799749,925.090261799749,925.090261799749,925.090261799749,927.5992276999168,927.5992276999168,927.5992276999168,927.5992276999168,927.5992276999168,52,45,31,40,52,36,2.0,0.696454900316894,928.3143095998093,929.9100400996394,,,,,,,,111,f,1,2022-12-11_13h57.02.976,RL,2022.2.4,60.22761218629459,
1,106,0,106,0,,,,,,,,,,None,929.9100400996394,929.9100400996394,929.9100400996394,929.9100400996394,929.9100400996394,929.9100400996394,r,0.282619500067085,930.2288990998641,930.2288990998641,930.2288990998641,930.2288990998641,930.2288990998641,930.2288990998641,930.5256846998818,930.5256846998818,932.5197628997266,932.5197628997266,932.5197628997266,932.5197628997266,932.5197628997266,932.5197628997266,932.5197628997266,932.5197628997266,932.5197628997266,932.5197628997266,932.5197628997266,932.5197628997266,932.5197628997266,932.5197628997266,932.5197628997266,932.5197628997266,932.5197628997266,935.0294106998481,935.0294106998481,935.0294106998481,935.0294106998481,935.0294106998481,48,29,36,45,48,69,1.0,0.3485324000939727,935.3947206996381,937.0079277995974,,,,,,,,111,f,1,2022-12-11_13h57.02.976,RL,2022.2.4,60.22761218629459,
1,107,0,107,0,,,,,,,,,,None,937.0079277995974,937.0079277995974,937.0079277995974,937.0079277995974,937.0079277995974,937.0079277995974,r,0.39540910022333264,937.4237714996561,937.4237714996561,937.4237714996561,937.4237714996561,937.4237714996561,937.4237714996561,937.7226074999198,937.7226074999198,938.8859317000024,938.8859317000024,938.8859317000024,938.8859317000024,938.8859317000024,938.8859317000024,938.8859317000024,938.8859317000024,938.8859317000024,938.8859317000024,938.8859317000024,938.8859317000024,938.8859317000024,938.8859317000024,938.8859317000024,938.8859317000024,938.8859317000024,941.3949792999774,941.3949792999774,941.3949792999774,941.3949792999774,941.3949792999774,48,34,37,28,48,76,1.0,0.4144033999182284,941.8273987998255,943.8220939999446,,,,,,,,111,f,1,2022-12-11_13h57.02.976,RL,2022.2.4,60.22761218629459,
1,108,0,108,0,,,,,,,,,,None,943.8220939999446,943.8220939999446,943.8220939999446,943.8220939999446,943.8220939999446,943.8220939999446,r,0.2724847001954913,944.1218057996593,944.1218057996593,944.1218057996593,944.1218057996593,944.1218057996593,944.1218057996593,944.4206844996661,944.4206844996661,945.4345419998281,945.4345419998281,945.4345419998281,945.4345419998281,945.4345419998281,945.4345419998281,945.4345419998281,945.4345419998281,945.4345419998281,945.4345419998281,945.4345419998281,945.4345419998281,945.4345419998281,945.4345419998281,945.4345419998281,945.4345419998281,945.4345419998281,947.9440518999472,947.9440518999472,947.9440518999472,947.9440518999472,947.9440518999472,42,29,43,42,42,67,1.0,0.34785780031234026,948.3091119998135,950.0551962996833,,,,,,,,111,f,1,2022-12-11_13h57.02.976,RL,2022.2.4,60.22761218629459,
1,109,0,109,0,,,,,,,,,,None,950.0551962996833,950.0551962996833,950.0551962996833,950.0551962996833,950.0551962996833,950.0551962996833,r,0.2529175002127886,950.3383747995831,950.3383747995831,950.3383747995831,950.3383747995831,950.3383747995831,950.3383747995831,950.6373273995705,950.6373273995705,952.5816354998387,952.5816354998387,952.5816354998387,952.5816354998387,952.5816354998387,952.5816354998387,952.5816354998387,952.5816354998387,952.5816354998387,952.5816354998387,952.5816354998387,952.5816354998387,952.5816354998387,952.5816354998387,952.5816354998387,952.5816354998387,952.5816354998387,955.0908009000123,955.0908009000123,955.0908009000123,955.0908009000123,955.0908009000123,49,28,35,37,49,66,1.0,0.3647262002341449,955.4730004998855,956.9865609998815,,,,,,,,111,f,1,2022-12-11_13h57.02.976,RL,2022.2.4,60.22761218629459,
1,110,0,110,0,,,,,,,,,,None,956.9865609998815,956.9865609998815,956.9865609998815,956.9865609998815,956.9865609998815,956.9865609998815,j,0.32873430009931326,957.3360065999441,957.3360065999441,957.3360065999441,957.3360065999441,957.3360065999441,957.3360065999441,957.6345338998362,957.6345338998362,958.7485326998867,958.7485326998867,958.7485326998867,958.7485326998867,958.7485326998867,958.7485326998867,958.7485326998867,958.7485326998867,958.7485326998867,958.7485326998867,958.7485326998867,958.7485326998867,958.7485326998867,958.7485326998867,958.7485326998867,958.7485326998867,958.7485326998867,961.2577488999814,961.2577488999814,961.2577488999814,961.2577488999814,961.2577488999814,46,25,31,38,38,30,1.0,0.4465475999750197,961.7227886999026,963.4188013998792,,,,,,,,111,f,1,2022-12-11_13h57.02.976,RL,2022.2.4,60.22761218629459,
1,111,0,111,0,,,,,,,,,,None,963.4188013998792,963.4188013998792,963.4188013998792,963.4188013998792,963.4188013998792,963.4188013998792,j,0.2799801002256572,963.7201875997707,963.7201875997707,963.7201875997707,963.7201875997707,963.7201875997707,963.7201875997707,964.0174267999828,964.0174267999828,965.5466926000081,965.5466926000081,965.5466926000081,965.5466926000081,965.5466926000081,965.5466926000081,965.5466926000081,965.5466926000081,965.5466926000081,965.5466926000081,965.5466926000081,965.5466926000081,965.5466926000081,965.5466926000081,965.5466926000081,965.5466926000081,965.5466926000081,968.0556432995945,968.0556432995945,968.0556432995945,968.0556432995945,968.0556432995945,55,29,38,45,45,66,1.0,0.4144231998361647,968.4880417999811,970.3830752996728,,,,,,,,111,f,1,2022-12-11_13h57.02.976,RL,2022.2.4,60.22761218629459,
1,112,0,112,0,,,,,,,,,,None,970.3830752996728,970.3830752996728,970.3830752996728,970.3830752996728,970.3830752996728,970.3830752996728,j,0.2825384000316262,970.6993990996853,970.6993990996853,970.6993990996853,970.6993990996853,970.6993990996853,970.6993990996853,970.998379800003,970.998379800003,971.9457521997392,971.9457521997392,971.9457521997392,971.9457521997392,971.9457521997392,971.9457521997392,971.9457521997392,971.9457521997392,971.9457521997392,971.9457521997392,971.9457521997392,971.9457521997392,971.9457521997392,971.9457521997392,971.9457521997392,971.9457521997392,971.9457521997392,974.455083000008,974.455083000008,974.455083000008,974.455083000008,974.455083000008,55,32,41,45,45,63,1.0,1.229176000226289,975.7011344996281,977.6631111996248,,,,,,,,111,f,1,2022-12-11_13h57.02.976,RL,2022.2.4,60.22761218629459,
1,113,0,113,0,,,,,,,,,,None,977.6631111996248,977.6631111996248,977.6631111996248,977.6631111996248,977.6631111996248,977.6631111996248,j,0.2593454997986555,977.9479140997864,977.9479140997864,977.9479140997864,977.9479140997864,977.9479140997864,977.9479140997864,978.2285609999672,978.2285609999672,979.9405231997371,979.9405231997371,979.9570684996434,979.9570684996434,979.9570684996434,979.9570684996434,979.9570684996434,979.9570684996434,979.9570684996434,979.9570684996434,979.9570684996434,979.9570684996434,979.9570684996434,979.9570684996434,979.9570684996434,979.9570684996434,979.9570684996434,982.4663635999896,982.4663635999896,982.4663635999896,982.4663635999896,982.4663635999896,64,29,41,41,41,32,1.0,0.499658000189811,982.9821018995717,984.4945085998625,,,,,,,,111,f,1,2022-12-11_13h57.02.976,RL,2022.2.4,60.22761218629459,
1,114,0,114,0,,,,,,,,,,None,984.4945085998625,984.4945085998625,984.4945085998625,984.4945085998625,984.4945085998625,984.4945085998625,i,0.3059062003158033,984.8286062995903,984.8286062995903,984.8286062995903,984.8286062995903,984.8286062995903,984.8286062995903,985.1266055000015,985.1266055000015,986.024010699708,986.024010699708,986.024010699708,986.024010699708,986.024010699708,986.024010699708,986.024010699708,986.024010699708,986.024010699708,986.024010699708,986.024010699708,986.024010699708,986.024010699708,986.024010699708,986.024010699708,986.024010699708,986.024010699708,988.5328538999893,988.5328538999893,988.5328538999893,988.5328538999893,988.5328538999893,59,27,48,44,48,79,1.0,0.5314119998365641,989.081365799997,990.7276817997918,,,,,,,,111,f,1,2022-12-11_13h57.02.976,RL,2022.2.4,60.22761218629459,
