bandit,trials.thisRepN,trials.thisTrialN,trials.thisN,trials.thisIndex,instru_img1.started,instru_img1.stopped,instru_resp.keys,instru_resp.rt,instru_resp.started,instru_resp.stopped,instru_img2.started,instru_img2.stopped,instru_resp2.keys,instru_resp2.rt,instru_resp2.started,instru_resp2.stopped,fixbefore_2.started,fixbefore_2.stopped,rest_image.started,rest_image.stopped,rest_response.keys,rest_response.started,rest_response.stopped,red.started,red.stopped,green.started,green.stopped,yellow.started,yellow.stopped,blue.started,blue.stopped,choose_bandit.keys,choose_bandit.rt,choose_bandit.started,choose_bandit.stopped,Fixation.started,Fixation.stopped,black.started,black.stopped,red_2.started,red_2.stopped,green_2.started,green_2.stopped,yellow_2.started,yellow_2.stopped,blue_2.started,blue_2.stopped,fixation_2.started,fixation_2.stopped,docs.started,docs.stopped,image_2.started,image_2.stopped,black_com.started,black_com.stopped,reward_sub.started,reward_sub.stopped,palyerb.started,palyerb.stopped,reward__sub.started,reward__sub.stopped,compare.started,compare.stopped,red_compare.started,red_compare.stopped,green_com.started,green_com.stopped,yellow_com.started,yellow_com.stopped,blue_com.started,blue_com.stopped,rewardyellow,rewardred,rewardblue,rewardgreen,subchoose,playerb,image_3.started,image_3.stopped,slider.response,slider.rt,slider.started,slider.stopped,text.started,text.stopped,image_4.started,image_4.stopped,image_5.started,image_5.stopped,bigx.started,bigx.stopped,intertrialfix.started,intertrialfix.stopped,rest_response.rt,image.started,image.stopped,key_resp.keys,key_resp.started,key_resp.stopped,participant,Gender,Age,date,expName,psychopyVersion,frameRate,
,,,,,22.54486110014841,None,space,24.330032999860123,22.54486110014841,None,,,,,,,,,,,,,,,,,,,,,,,,,,,,,,,,,,,,,,,,,,,,,,,,,,,,,,,,,,,,,,,,,,,,,,,,,,,,,,,,,,,,,,,,,,112,f,1,2022_Dec_11_1356,RL,2021.2.3,59.99750411276244,
,,,,,,,,,,,46.90638449997641,None,space,4.558513500029221,46.90638449997641,None,,,,,,,,,,,,,,,,,,,,,,,,,,,,,,,,,,,,,,,,,,,,,,,,,,,,,,,,,,,,,,,,,,,,,,,,,,,,,,,,,,,,112,f,1,2022_Dec_11_1356,RL,2021.2.3,59.99750411276244,
1,0,0,0,0,,,,,,,,,,,,,51.492974600056186,None,None,None,None,None,None,52.513048600172624,None,52.513048600172624,None,52.513048600172624,None,52.513048600172624,None,r,0.6418606999795884,52.513048600172624,None,52.513048600172624,None,53.21138980006799,None,53.21138980006799,None,53.21138980006799,None,53.21138980006799,None,53.21138980006799,None,53.21138980006799,None,53.50893380003981,None,53.50893380003981,None,55.534239900065586,None,55.534239900065586,None,55.534239900065586,None,55.534239900065586,None,55.534239900065586,None,55.534239900065586,None,55.534239900065586,None,55.534239900065586,None,55.534239900065586,None,35,46,65,48,35,44,58.04884360008873,None,3.0,2.656433900119737,58.04884360008873,None,58.04884360008873,None,58.04884360008873,None,58.04884360008873,None,None,None,60.75028590019792,None,,,,,,,112,f,1,2022_Dec_11_1356,RL,2021.2.3,59.99750411276244,
1,1,0,1,0,,,,,,,,,,,,,,,None,None,None,None,None,62.723937000148,None,62.723937000148,None,62.723937000148,None,62.723937000148,None,f,0.9311957999598235,62.723937000148,None,62.723937000148,None,63.698123400099576,None,63.698123400099576,None,63.698123400099576,None,63.698123400099576,None,63.698123400099576,None,63.698123400099576,None,63.9828598999884,65.3003363001626,63.9828598999884,65.3003363001626,65.32896780013107,None,65.32896780013107,None,65.32896780013107,None,65.32896780013107,None,65.32896780013107,None,65.32896780013107,None,65.32896780013107,None,65.32896780013107,None,65.32896780013107,None,41,40,75,42,40,51,67.84374619997106,None,3.0,1.6940776000265032,67.84374619997106,None,67.84374619997106,None,67.84374619997106,None,67.84374619997106,None,None,None,69.55289360019378,None,,,,,,,112,f,1,2022_Dec_11_1356,RL,2021.2.3,59.99750411276244,
1,2,0,2,0,,,,,,,,,,,,,,,None,None,None,None,None,71.17095410008915,None,71.17095410008915,None,71.17095410008915,None,71.17095410008915,None,None,,71.17095410008915,None,71.17095410008915,None,None,None,None,None,None,None,None,None,None,None,None,None,None,None,None,None,None,None,None,None,None,None,None,None,None,None,None,None,None,None,None,None,None,None,40,46,78,44,0,**,None,None,None,None,None,None,None,None,None,None,None,None,72.72021860000677,None,77.22490690019913,None,,,,,,,112,f,1,2022_Dec_11_1356,RL,2021.2.3,59.99750411276244,
1,3,0,3,0,,,,,,,,,,,,,,,None,None,None,None,None,78.79293970018625,None,78.79293970018625,None,78.79293970018625,None,78.79293970018625,None,i,0.7922292000148445,78.79293970018625,None,78.79293970018625,None,79.6245721001178,None,79.6245721001178,None,79.6245721001178,None,79.6245721001178,None,79.6245721001178,None,79.6245721001178,None,79.9105930000078,81.44476189999841,79.9105930000078,81.44476189999841,81.4770161001943,None,81.4770161001943,None,81.4770161001943,None,81.4770161001943,None,81.4770161001943,None,81.4770161001943,None,81.4770161001943,None,81.4770161001943,None,81.4770161001943,None,44,51,78,55,78,62,83.98872140003368,None,5.0,1.8437260000500828,83.98872140003368,None,83.98872140003368,None,83.98872140003368,None,83.98872140003368,None,None,None,85.84942460013554,None,,,,,,,112,f,1,2022_Dec_11_1356,RL,2021.2.3,59.99750411276244,
1,4,0,4,0,,,,,,,,,,,,,,,None,None,None,None,None,87.54896540008485,None,87.54896540008485,None,87.54896540008485,None,87.54896540008485,None,i,0.37625350011512637,87.54896540008485,None,87.54896540008485,None,87.96101159998216,None,87.96101159998216,None,87.96101159998216,None,87.96101159998216,None,87.96101159998216,None,87.96101159998216,None,88.24976070015691,90.10084580001421,88.24976070015691,90.10084580001421,90.12402990018018,None,90.12402990018018,None,90.12402990018018,None,90.12402990018018,None,90.12402990018018,None,90.12402990018018,None,90.12402990018018,None,90.12402990018018,None,90.12402990018018,None,45,50,73,43,73,82,92.64350380003452,None,3.0,2.09202290000394,92.64350380003452,None,92.64350380003452,None,92.64350380003452,None,92.64350380003452,None,None,None,94.75514949997887,None,,,,,,,112,f,1,2022_Dec_11_1356,RL,2021.2.3,59.99750411276244,
1,5,0,5,0,,,,,,,,,,,,,,,None,None,None,None,None,96.35519829997793,None,96.35519829997793,None,96.35519829997793,None,96.35519829997793,None,j,0.3098679999820888,96.35519829997793,None,96.35519829997793,None,96.70095580001362,None,96.70095580001362,None,96.70095580001362,None,96.70095580001362,None,96.70095580001362,None,96.70095580001362,None,96.98927530017681,98.02293320000172,96.98927530017681,98.02293320000172,98.04519740003161,None,98.04519740003161,None,98.04519740003161,None,98.04519740003161,None,98.04519740003161,None,98.04519740003161,None,98.04519740003161,None,98.04519740003161,None,98.04519740003161,None,44,49,84,47,47,25,100.56657710019499,None,5.0,2.042172299930826,100.56657710019499,None,100.56657710019499,None,100.56657710019499,None,100.56657710019499,None,None,None,102.62962030014023,None,,,,,,,112,f,1,2022_Dec_11_1356,RL,2021.2.3,59.99750411276244,
1,6,0,6,0,,,,,,,,,,,,,,,None,None,None,None,None,104.47730630007572,None,104.47730630007572,None,104.47730630007572,None,104.47730630007572,None,j,0.34766560001298785,104.47730630007572,None,104.47730630007572,None,104.85640779999085,None,104.85640779999085,None,104.85640779999085,None,104.85640779999085,None,104.85640779999085,None,104.85640779999085,None,105.14466430014,None,105.14466430014,None,107.15149970003404,None,107.15149970003404,None,107.15149970003404,None,107.15149970003404,None,107.15149970003404,None,107.15149970003404,None,107.15149970003404,None,107.15149970003404,None,107.15149970003404,None,49,54,80,53,53,71,109.67148889997043,None,3.0,2.1625647998880595,109.67148889997043,None,109.67148889997043,None,109.67148889997043,None,109.67148889997043,None,None,None,111.84903739998117,None,,,,,,,112,f,1,2022_Dec_11_1356,RL,2021.2.3,59.99750411276244,
1,7,0,7,0,,,,,,,,,,,,,,,None,None,None,None,None,113.70040560001507,None,113.70040560001507,None,113.70040560001507,None,113.70040560001507,None,i,0.364740899996832,113.70040560001507,None,113.70040560001507,None,114.09839550009929,None,114.09839550009929,None,114.09839550009929,None,114.09839550009929,None,114.09839550009929,None,114.09839550009929,None,114.38443089998327,115.85201230016537,114.38443089998327,115.85201230016537,115.87717010010965,None,115.87717010010965,None,115.87717010010965,None,115.87717010010965,None,115.87717010010965,None,115.87717010010965,None,115.87717010010965,None,115.87717010010965,None,115.87717010010965,None,43,58,79,51,79,24,118.39493550010957,None,6.0,1.3775114000309259,118.39493550010957,None,118.39493550010957,None,118.39493550010957,None,118.39493550010957,None,None,None,119.78771860012785,None,,,,,,,112,f,1,2022_Dec_11_1356,RL,2021.2.3,59.99750411276244,
1,8,0,8,0,,,,,,,,,,,,,,,None,None,None,None,None,121.40585219999775,None,121.40585219999775,None,121.40585219999775,None,121.40585219999775,None,i,0.4396031000651419,121.40585219999775,None,121.40585219999775,None,121.88664000015706,None,121.88664000015706,None,121.88664000015706,None,121.88664000015706,None,121.88664000015706,None,121.88664000015706,None,122.17314760014415,124.0076286001131,122.17314760014415,124.0076286001131,124.03607699996792,None,124.03607699996792,None,124.03607699996792,None,124.03607699996792,None,124.03607699996792,None,124.03607699996792,None,124.03607699996792,None,124.03607699996792,None,124.03607699996792,None,41,55,73,54,73,56,126.5601244000718,None,5.0,1.8526550999376923,126.5601244000718,None,126.5601244000718,None,126.5601244000718,None,126.5601244000718,None,None,None,128.4271472999826,None,,,,,,,112,f,1,2022_Dec_11_1356,RL,2021.2.3,59.99750411276244,
1,9,0,9,0,,,,,,,,,,,,,,,None,None,None,None,None,130.39525329996832,None,130.39525329996832,None,130.39525329996832,None,130.39525329996832,None,i,0.3712147001642734,130.39525329996832,None,130.39525329996832,None,130.80887950002216,None,130.80887950002216,None,130.80887950002216,None,130.80887950002216,None,130.80887950002216,None,130.80887950002216,None,131.0960372001864,132.69709959998727,131.0960372001864,132.69709959998727,132.71876100008376,None,132.71876100008376,None,132.71876100008376,None,132.71876100008376,None,132.71876100008376,None,132.71876100008376,None,132.71876100008376,None,132.71876100008376,None,132.71876100008376,None,50,45,70,47,70,76,135.23886100016534,None,4.0,1.6927670000586659,135.23886100016534,None,135.23886100016534,None,135.23886100016534,None,135.23886100016534,None,None,None,136.95327650010586,None,,,,,,,112,f,1,2022_Dec_11_1356,RL,2021.2.3,59.99750411276244,
1,10,0,10,0,,,,,,,,,,,,,,,None,None,None,None,None,138.58432270004414,None,138.58432270004414,None,138.58432270004414,None,138.58432270004414,None,i,0.4821798000484705,138.58432270004414,None,138.58432270004414,None,139.09958730009384,None,139.09958730009384,None,139.09958730009384,None,139.09958730009384,None,139.09958730009384,None,139.09958730009384,None,139.38511970010586,141.01940020010807,139.38511970010586,141.01940020010807,141.04196990001947,None,141.04196990001947,None,141.04196990001947,None,141.04196990001947,None,141.04196990001947,None,141.04196990001947,None,141.04196990001947,None,141.04196990001947,None,141.04196990001947,None,49,41,77,47,77,80,143.56253560003825,None,4.0,1.4585652998648584,143.56253560003825,None,143.56253560003825,None,143.56253560003825,None,143.56253560003825,None,None,None,145.03879330004565,None,,,,,,,112,f,1,2022_Dec_11_1356,RL,2021.2.3,59.99750411276244,
1,11,0,11,0,,,,,,,,,,,,,,,None,None,None,None,None,146.57341990014538,None,146.57341990014538,None,146.57341990014538,None,146.57341990014538,None,i,0.49308830010704696,146.57341990014538,None,146.57341990014538,None,147.10336580011062,None,147.10336580011062,None,147.10336580011062,None,147.10336580011062,None,147.10336580011062,None,147.10336580011062,None,147.39066789997742,149.39198449999094,147.39066789997742,149.39198449999094,149.41246000002138,None,149.41246000002138,None,149.41246000002138,None,149.41246000002138,None,149.41246000002138,None,149.41246000002138,None,149.41246000002138,None,149.41246000002138,None,149.41246000002138,None,49,46,75,40,75,81,151.9332326001022,None,4.0,0.6585947000421584,151.9332326001022,None,151.9332326001022,None,151.9332326001022,None,151.9332326001022,None,None,None,152.61053770012222,None,,,,,,,112,f,1,2022_Dec_11_1356,RL,2021.2.3,59.99750411276244,
1,12,0,12,0,,,,,,,,,,,,,,,None,None,None,None,None,154.2118801001925,None,154.2118801001925,None,154.2118801001925,None,154.2118801001925,None,j,0.45457100006751716,154.2118801001925,None,154.2118801001925,None,154.70743030006997,None,154.70743030006997,None,154.70743030006997,None,154.70743030006997,None,154.70743030006997,None,154.70743030006997,None,154.9959492001217,156.93049130006693,154.9959492001217,156.93049130006693,156.9532739999704,None,156.9532739999704,None,156.9532739999704,None,156.9532739999704,None,156.9532739999704,None,156.9532739999704,None,156.9532739999704,None,156.9532739999704,None,156.9532739999704,None,42,46,78,50,50,89,159.47397130005993,None,2.0,1.1237832000479102,159.47397130005993,None,159.47397130005993,None,159.47397130005993,None,159.47397130005993,None,None,None,160.61613740003668,None,,,,,,,112,f,1,2022_Dec_11_1356,RL,2021.2.3,59.99750411276244,
1,13,0,13,0,,,,,,,,,,,,,,,None,None,None,None,None,162.13399250013754,None,162.13399250013754,None,162.13399250013754,None,162.13399250013754,None,i,0.44250359991565347,162.13399250013754,None,162.13399250013754,None,162.6139548001811,None,162.6139548001811,None,162.6139548001811,None,162.6139548001811,None,162.6139548001811,None,162.6139548001811,None,162.9013769000303,163.90192910004407,162.9013769000303,163.90192910004407,163.92437570006587,None,163.92437570006587,None,163.92437570006587,None,163.92437570006587,None,163.92437570006587,None,163.92437570006587,None,163.92437570006587,None,163.92437570006587,None,163.92437570006587,None,52,44,75,48,75,31,166.44539340003394,None,6.0,1.8610490998253226,166.44539340003394,None,166.44539340003394,None,166.44539340003394,None,166.44539340003394,None,None,None,168.32156569999643,None,,,,,,,112,f,1,2022_Dec_11_1356,RL,2021.2.3,59.99750411276244,
1,14,0,14,0,,,,,,,,,,,,,,,None,None,None,None,None,169.83952420018613,None,169.83952420018613,None,169.83952420018613,None,169.83952420018613,None,i,0.38714200002141297,169.83952420018613,None,169.83952420018613,None,170.26965280016884,None,170.26965280016884,None,170.26965280016884,None,170.26965280016884,None,170.26965280016884,None,170.26965280016884,None,170.55663800006732,None,170.55663800006732,None,171.93176110018976,None,171.93176110018976,None,171.93176110018976,None,171.93176110018976,None,171.93176110018976,None,171.93176110018976,None,171.93176110018976,None,171.93176110018976,None,171.93176110018976,None,51,35,74,59,74,90,174.45127550000325,None,3.0,2.026506499852985,174.45127550000325,None,174.45127550000325,None,174.45127550000325,None,174.45127550000325,None,None,None,176.5012184001971,None,,,,,,,112,f,1,2022_Dec_11_1356,RL,2021.2.3,59.99750411276244,
1,15,0,15,0,,,,,,,,,,,,,,,None,None,None,None,None,178.42868450004607,None,178.42868450004607,None,178.42868450004607,None,178.42868450004607,None,i,0.33784650010056794,178.42868450004607,None,178.42868450004607,None,178.81047000014223,None,178.81047000014223,None,178.81047000014223,None,178.81047000014223,None,178.81047000014223,None,178.81047000014223,None,179.096004600171,None,179.096004600171,None,180.18742790003307,None,180.18742790003307,None,180.18742790003307,None,180.18742790003307,None,180.18742790003307,None,180.18742790003307,None,180.18742790003307,None,180.18742790003307,None,180.18742790003307,None,49,41,71,56,71,84,182.70589640014805,None,3.0,1.4450960999820381,182.70589640014805,None,182.70589640014805,None,182.70589640014805,None,182.70589640014805,None,None,None,184.16599560016766,None,,,,,,,112,f,1,2022_Dec_11_1356,RL,2021.2.3,59.99750411276244,
1,16,0,16,0,,,,,,,,,,,,,,,None,None,None,None,None,185.95045710005797,None,185.95045710005797,None,185.95045710005797,None,185.95045710005797,None,f,0.2861460999120027,185.95045710005797,None,185.95045710005797,None,186.28175429999828,None,186.28175429999828,None,186.28175429999828,None,186.28175429999828,None,186.28175429999828,None,186.28175429999828,None,186.56790110003203,187.61826230003498,186.56790110003203,187.61826230003498,187.64081890019588,None,187.64081890019588,None,187.64081890019588,None,187.64081890019588,None,187.64081890019588,None,187.64081890019588,None,187.64081890019588,None,187.64081890019588,None,187.64081890019588,None,53,47,72,49,47,76,190.16333750006743,None,3.0,0.5226149000227451,190.16333750006743,None,190.16333750006743,None,190.16333750006743,None,190.16333750006743,None,None,None,190.703693700023,None,,,,,,,112,f,1,2022_Dec_11_1356,RL,2021.2.3,59.99750411276244,
1,17,0,17,0,,,,,,,,,,,,,,,None,None,None,None,None,192.48850179999135,None,192.48850179999135,None,192.48850179999135,None,192.48850179999135,None,i,0.2981814001686871,192.48850179999135,None,192.48850179999135,None,192.81691240007058,None,192.81691240007058,None,192.81691240007058,None,192.81691240007058,None,192.81691240007058,None,192.81691240007058,None,193.10563870007172,194.00608700001612,193.10563870007172,194.00608700001612,194.02867779997177,None,194.02867779997177,None,194.02867779997177,None,194.02867779997177,None,194.02867779997177,None,194.02867779997177,None,194.02867779997177,None,194.02867779997177,None,194.02867779997177,None,49,43,71,52,71,88,196.55166230001487,None,3.0,1.7220407000277191,196.55166230001487,None,196.55166230001487,None,196.55166230001487,None,196.55166230001487,None,None,None,198.29481570003554,None,,,,,,,112,f,1,2022_Dec_11_1356,RL,2021.2.3,59.99750411276244,
1,18,0,18,0,,,,,,,,,,,,,,,None,None,None,None,None,199.9769669000525,None,199.9769669000525,None,199.9769669000525,None,199.9769669000525,None,i,0.3697099001146853,199.9769669000525,None,199.9769669000525,None,200.39011370018125,None,200.39011370018125,None,200.39011370018125,None,200.39011370018125,None,200.39011370018125,None,200.39011370018125,None,200.6776080999989,202.52872729999945,200.6776080999989,202.52872729999945,202.549331900198,None,202.549331900198,None,202.549331900198,None,202.549331900198,None,202.549331900198,None,202.549331900198,None,202.549331900198,None,202.549331900198,None,202.549331900198,None,50,47,71,44,71,90,205.07139379996806,None,3.0,0.9745528001803905,205.07139379996806,None,205.07139379996806,None,205.07139379996806,None,205.07139379996806,None,None,None,206.06534150009975,None,,,,,,,112,f,1,2022_Dec_11_1356,RL,2021.2.3,59.99750411276244,
1,19,0,19,0,,,,,,,,,,,,,,,None,None,None,None,None,207.74902330012992,None,207.74902330012992,None,207.74902330012992,None,207.74902330012992,None,j,0.34783149999566376,207.74902330012992,None,207.74902330012992,None,208.1294293999672,None,208.1294293999672,None,208.1294293999672,None,208.1294293999672,None,208.1294293999672,None,208.1294293999672,None,208.41641469998285,209.31674430007115,208.41641469998285,209.31674430007115,209.3383192999754,None,209.3383192999754,None,209.3383192999754,None,209.3383192999754,None,209.3383192999754,None,209.3383192999754,None,209.3383192999754,None,209.3383192999754,None,209.3383192999754,None,49,51,72,53,53,87,211.85814879997633,None,3.0,0.6588920000940561,211.85814879997633,None,211.85814879997633,None,211.85814879997633,None,211.85814879997633,None,None,None,212.53563369996846,None,,,,,,,112,f,1,2022_Dec_11_1356,RL,2021.2.3,59.99750411276244,
1,20,0,20,0,,,,,,,,,,,,,,,None,None,None,None,None,214.50371860014275,None,214.50371860014275,None,214.50371860014275,None,214.50371860014275,None,r,0.3228819000069052,214.50371860014275,None,214.50371860014275,None,214.8666603001766,None,214.8666603001766,None,214.8666603001766,None,214.8666603001766,None,214.8666603001766,None,214.8666603001766,None,215.15450200019404,216.52174720005132,215.15450200019404,216.52174720005132,216.54350930009969,None,216.54350930009969,None,216.54350930009969,None,216.54350930009969,None,216.54350930009969,None,216.54350930009969,None,216.54350930009969,None,216.54350930009969,None,216.54350930009969,None,53,51,75,54,53,95,219.06404940015636,None,3.0,0.5080808000639081,219.06404940015636,None,219.06404940015636,None,219.06404940015636,None,219.06404940015636,None,None,None,219.5904612999875,None,,,,,,,112,f,1,2022_Dec_11_1356,RL,2021.2.3,59.99750411276244,
1,21,0,21,0,,,,,,,,,,,,,,,None,None,None,None,None,221.14150280016474,None,221.14150280016474,None,221.14150280016474,None,221.14150280016474,None,j,0.5850416999310255,221.14150280016474,None,221.14150280016474,None,221.75842289999127,223.30963160004467,221.75842289999127,223.30963160004467,221.75842289999127,223.30963160004467,221.75842289999127,223.30963160004467,221.75842289999127,223.30963160004467,221.75842289999127,223.30963160004467,222.05904059996828,None,222.05904059996828,None,223.33162520010956,None,223.33162520010956,None,223.33162520010956,None,223.33162520010956,None,223.33162520010956,None,223.33162520010956,None,223.33162520010956,None,223.33162520010956,None,223.33162520010956,None,52,59,71,54,54,89,225.8548714001663,None,2.0,0.7719737999141216,225.8548714001663,None,225.8548714001663,None,225.8548714001663,None,225.8548714001663,None,None,None,226.65220940019935,None,,,,,,,112,f,1,2022_Dec_11_1356,RL,2021.2.3,59.99750411276244,
1,22,0,22,0,,,,,,,,,,,,,,,None,None,None,None,None,228.46353229996748,None,228.46353229996748,None,228.46353229996748,None,228.46353229996748,None,i,0.28323790011927485,228.46353229996748,None,228.46353229996748,None,228.77401070017368,None,228.77401070017368,None,228.77401070017368,None,228.77401070017368,None,228.77401070017368,None,228.77401070017368,None,229.06395480013452,230.64821050013416,229.06395480013452,230.64821050013416,230.67072250018828,None,230.67072250018828,None,230.67072250018828,None,230.67072250018828,None,230.67072250018828,None,230.67072250018828,None,230.67072250018828,None,230.67072250018828,None,230.67072250018828,None,45,49,77,51,77,74,233.19097930006683,None,4.0,1.8087964998558164,233.19097930006683,None,233.19097930006683,None,233.19097930006683,None,233.19097930006683,None,None,None,235.0176387000829,None,,,,,,,112,f,1,2022_Dec_11_1356,RL,2021.2.3,59.99750411276244,
1,23,0,23,0,,,,,,,,,,,,,,,None,None,None,None,None,236.73567810002714,None,236.73567810002714,None,236.73567810002714,None,236.73567810002714,None,i,0.3814326000865549,236.73567810002714,None,236.73567810002714,None,237.1488004999701,None,237.1488004999701,None,237.1488004999701,None,237.1488004999701,None,237.1488004999701,None,237.1488004999701,None,237.43635240010917,238.35350470012054,237.43635240010917,238.35350470012054,238.37583940010518,None,238.37583940010518,None,238.37583940010518,None,238.37583940010518,None,238.37583940010518,None,238.37583940010518,None,238.37583940010518,None,238.37583940010518,None,238.37583940010518,None,41,55,78,50,78,95,240.89560330007225,None,3.0,1.8931693001650274,240.89560330007225,None,240.89560330007225,None,240.89560330007225,None,240.89560330007225,None,None,None,242.80813810019754,None,,,,,,,112,f,1,2022_Dec_11_1356,RL,2021.2.3,59.99750411276244,
1,24,0,24,0,,,,,,,,,,,,,,,None,None,None,None,None,244.7078927999828,None,244.7078927999828,None,244.7078927999828,None,244.7078927999828,None,i,0.30921069998294115,244.7078927999828,None,244.7078927999828,None,245.05692100012675,None,245.05692100012675,None,245.05692100012675,None,245.05692100012675,None,245.05692100012675,None,245.05692100012675,None,245.34193890006281,None,245.34193890006281,None,246.5140750000719,None,246.5140750000719,None,246.5140750000719,None,246.5140750000719,None,246.5140750000719,None,246.5140750000719,None,246.5140750000719,None,246.5140750000719,None,246.5140750000719,None,44,59,74,60,74,77,249.03413809998892,None,3.0,1.0428730000276119,249.03413809998892,None,249.03413809998892,None,249.03413809998892,None,249.03413809998892,None,None,None,250.10194810014218,None,,,,,,,112,f,1,2022_Dec_11_1356,RL,2021.2.3,59.99750411276244,
1,25,0,25,0,,,,,,,,,,,,,,,None,None,None,None,None,251.8628378000576,None,251.8628378000576,None,251.8628378000576,None,251.8628378000576,None,i,0.31423950009047985,251.8628378000576,None,251.8628378000576,None,252.21024240017869,None,252.21024240017869,None,252.21024240017869,None,252.21024240017869,None,252.21024240017869,None,252.21024240017869,None,252.49690870009363,254.26464639999904,252.49690870009363,254.26464639999904,254.28600400011055,None,254.28600400011055,None,254.28600400011055,None,254.28600400011055,None,254.28600400011055,None,254.28600400011055,None,254.28600400011055,None,254.28600400011055,None,254.28600400011055,None,51,53,73,57,73,38,256.8076148000546,None,5.0,1.7258423999883235,256.8076148000546,None,256.8076148000546,None,256.8076148000546,None,256.8076148000546,None,None,None,258.5568671000656,None,,,,,,,112,f,1,2022_Dec_11_1356,RL,2021.2.3,59.99750411276244,
1,26,0,26,0,,,,,,,,,,,,,,,None,None,None,None,None,260.5355094000697,None,260.5355094000697,None,260.5355094000697,None,260.5355094000697,None,i,0.3214199000503868,260.5355094000697,None,260.5355094000697,None,260.8994727001991,None,260.8994727001991,None,260.8994727001991,None,260.8994727001991,None,260.8994727001991,None,260.8994727001991,None,261.18627920001745,262.2367442001123,261.18627920001745,262.2367442001123,262.2689233000856,None,262.2689233000856,None,262.2689233000856,None,262.2689233000856,None,262.2689233000856,None,262.2689233000856,None,262.2689233000856,None,262.2689233000856,None,262.2689233000856,None,49,48,92,60,92,79,264.77920810016803,None,5.0,1.3588870000094175,264.77920810016803,None,264.77920810016803,None,264.77920810016803,None,264.77920810016803,None,None,None,266.1561592000071,None,,,,,,,112,f,1,2022_Dec_11_1356,RL,2021.2.3,59.99750411276244,
1,27,0,27,0,,,,,,,,,,,,,,,None,None,None,None,None,267.77371740015224,None,267.77371740015224,None,267.77371740015224,None,267.77371740015224,None,i,0.3836083000060171,267.77371740015224,None,267.77371740015224,None,268.1865654999856,None,268.1865654999856,None,268.1865654999856,None,268.1865654999856,None,268.1865654999856,None,268.1865654999856,None,268.4746228000149,269.84211940015666,268.4746228000149,269.84211940015666,269.86427650018595,None,269.86427650018595,None,269.86427650018595,None,269.86427650018595,None,269.86427650018595,None,269.86427650018595,None,269.86427650018595,None,269.86427650018595,None,269.86427650018595,None,57,52,78,49,78,75,272.3834655000828,None,5.0,1.3286222000606358,272.3834655000828,None,272.3834655000828,None,272.3834655000828,None,272.3834655000828,None,None,None,273.7303785001859,None,,,,,,,112,f,1,2022_Dec_11_1356,RL,2021.2.3,59.99750411276244,
1,28,0,28,0,,,,,,,,,,,,,,,None,None,None,None,None,275.2491608001292,None,275.2491608001292,None,275.2491608001292,None,275.2491608001292,None,i,0.2887354001868516,275.2491608001292,None,275.2491608001292,None,275.5886948001571,None,275.5886948001571,None,275.5886948001571,None,275.5886948001571,None,275.5886948001571,None,275.5886948001571,None,275.88006840017624,None,275.88006840017624,None,277.7321882999968,None,277.7321882999968,None,277.7321882999968,None,277.7321882999968,None,277.7321882999968,None,277.7321882999968,None,277.7321882999968,None,277.7321882999968,None,277.7321882999968,None,46,42,82,52,82,94,280.2615820001811,None,4.0,1.6431990000419319,280.2615820001811,None,280.2615820001811,None,280.2615820001811,None,280.2615820001811,None,None,None,281.91869640001096,None,,,,,,,112,f,1,2022_Dec_11_1356,RL,2021.2.3,59.99750411276244,
1,29,0,29,0,,,,,,,,,,,,,,,None,None,None,None,None,283.82181610004045,None,283.82181610004045,None,283.82181610004045,None,283.82181610004045,None,j,0.2957303998991847,283.82181610004045,None,283.82181610004045,None,284.1588856000453,None,284.1588856000453,None,284.1588856000453,None,284.1588856000453,None,284.1588856000453,None,284.1588856000453,None,284.4525463001337,285.72013150015846,284.4525463001337,285.72013150015846,285.7514957000967,None,285.7514957000967,None,285.7514957000967,None,285.7514957000967,None,285.7514957000967,None,285.7514957000967,None,285.7514957000967,None,285.7514957000967,None,285.7514957000967,None,53,44,87,48,48,87,288.2775114001706,None,4.0,1.7159750000573695,288.2775114001706,None,288.2775114001706,None,288.2775114001706,None,288.2775114001706,None,None,None,290.0173252001405,None,,,,,,,112,f,1,2022_Dec_11_1356,RL,2021.2.3,59.99750411276244,
1,30,0,30,0,,,,,,,,,,,,,,,None,None,None,None,None,291.55926220002584,None,291.55926220002584,None,291.55926220002584,None,291.55926220002584,None,i,0.3082963000051677,291.55926220002584,None,291.55926220002584,None,291.9017498001922,None,291.9017498001922,None,291.9017498001922,None,291.9017498001922,None,291.9017498001922,None,291.9017498001922,None,292.1912422000896,293.32508100010455,292.1912422000896,293.32508100010455,293.36094310018234,None,293.36094310018234,None,293.36094310018234,None,293.36094310018234,None,293.36094310018234,None,293.36094310018234,None,293.36094310018234,None,293.36094310018234,None,293.36094310018234,None,46,39,79,46,79,75,295.8833646001294,None,4.0,1.6327726000454277,295.8833646001294,None,295.8833646001294,None,295.8833646001294,None,295.8833646001294,None,None,None,297.52816540002823,None,,,,,,,112,f,1,2022_Dec_11_1356,RL,2021.2.3,59.99750411276244,
1,31,0,31,0,,,,,,,,,,,,,,,None,None,None,None,None,299.1657054000534,None,299.1657054000534,None,299.1657054000534,None,299.1657054000534,None,i,0.11178679997101426,299.1657054000534,None,299.1657054000534,None,299.3093583001755,None,299.3093583001755,None,299.3093583001755,None,299.3093583001755,None,299.3093583001755,None,299.3093583001755,None,299.5965994000435,300.5634118001908,299.5965994000435,300.5634118001908,300.58938860008493,None,300.58938860008493,None,300.58938860008493,None,300.58938860008493,None,300.58938860008493,None,300.58938860008493,None,300.58938860008493,None,300.58938860008493,None,300.58938860008493,None,49,48,74,54,74,78,303.1110682999715,None,4.0,0.8237907998263836,303.1110682999715,None,303.1110682999715,None,303.1110682999715,None,303.1110682999715,None,None,None,303.9497571999673,None,,,,,,,112,f,1,2022_Dec_11_1356,RL,2021.2.3,59.99750411276244,
1,32,0,32,0,,,,,,,,,,,,,,,None,None,None,None,None,305.85193680017255,None,305.85193680017255,None,305.85193680017255,None,305.85193680017255,None,r,0.38553819991648197,305.85193680017255,None,305.85193680017255,None,306.29310290003195,None,306.29310290003195,None,306.29310290003195,None,306.29310290003195,None,306.29310290003195,None,306.29310290003195,None,306.5847806001548,308.3024319000542,306.5847806001548,308.3024319000542,308.3388418999966,None,308.3388418999966,None,308.3388418999966,None,308.3388418999966,None,308.3388418999966,None,308.3388418999966,None,308.3388418999966,None,308.3388418999966,None,308.3388418999966,None,55,45,76,52,55,93,310.85356359998696,None,2.0,1.799820200074464,310.85356359998696,None,310.85356359998696,None,310.85356359998696,None,310.85356359998696,None,None,None,312.68022450013086,None,,,,,,,112,f,1,2022_Dec_11_1356,RL,2021.2.3,59.99750411276244,
1,33,0,33,0,,,,,,,,,,,,,,,None,None,None,None,None,314.3413581000641,None,314.3413581000641,None,314.3413581000641,None,314.3413581000641,None,i,0.3267217001412064,314.3413581000641,None,314.3413581000641,None,314.7070608001668,None,314.7070608001668,None,314.7070608001668,None,314.7070608001668,None,314.7070608001668,None,314.7070608001668,None,315.0070496001281,None,315.0070496001281,None,316.01109639997594,None,316.01109639997594,None,316.01109639997594,None,316.01109639997594,None,316.01109639997594,None,316.01109639997594,None,316.01109639997594,None,316.01109639997594,None,316.01109639997594,None,49,40,78,42,78,90,318.54656400019303,None,3.0,2.4516455000266433,318.54656400019303,None,318.54656400019303,None,318.54656400019303,None,318.54656400019303,None,None,None,321.01076680002734,None,,,,,,,112,f,1,2022_Dec_11_1356,RL,2021.2.3,59.99750411276244,
1,34,0,34,0,,,,,,,,,,,,,,,None,None,None,None,None,323.015021600062,None,323.015021600062,None,323.015021600062,None,323.015021600062,None,f,0.3127719999756664,323.015021600062,None,323.015021600062,None,323.360829600133,None,323.360829600133,None,323.360829600133,None,323.360829600133,None,323.360829600133,None,323.360829600133,None,323.6463380001951,325.2808938000817,323.6463380001951,325.2808938000817,325.3068432,None,325.3068432,None,325.3068432,None,325.3068432,None,325.3068432,None,325.3068432,None,325.3068432,None,325.3068432,None,325.3068432,None,48,45,83,51,45,76,327.832651700126,None,3.0,1.6377352999988943,327.832651700126,None,327.832651700126,None,327.832651700126,None,327.832651700126,None,None,None,329.4834602000192,None,,,,,,,112,f,1,2022_Dec_11_1356,RL,2021.2.3,59.99750411276244,
1,35,0,35,0,,,,,,,,,,,,,,,None,None,None,None,None,331.33846720005386,None,331.33846720005386,None,331.33846720005386,None,331.33846720005386,None,i,0.3093002999667078,331.33846720005386,None,331.33846720005386,None,331.7168313001748,None,331.7168313001748,None,331.7168313001748,None,331.7168313001748,None,331.7168313001748,None,331.7168313001748,None,331.98529260000214,332.9359184000641,331.98529260000214,332.9359184000641,332.9811984000262,None,332.9811984000262,None,332.9811984000262,None,332.9811984000262,None,332.9811984000262,None,332.9811984000262,None,332.9811984000262,None,332.9811984000262,None,332.9811984000262,None,52,43,81,55,81,73,335.5096542001702,None,4.0,2.01573869981803,335.5096542001702,None,335.5096542001702,None,335.5096542001702,None,335.5096542001702,None,None,None,337.54728830000386,None,,,,,,,112,f,1,2022_Dec_11_1356,RL,2021.2.3,59.99750411276244,
1,36,0,36,0,,,,,,,,,,,,,,,None,None,None,None,None,339.1597296001855,None,339.1597296001855,None,339.1597296001855,None,339.1597296001855,None,i,0.40840790001675487,339.1597296001855,None,339.1597296001855,None,339.6136921001598,None,339.6136921001598,None,339.6136921001598,None,339.6136921001598,None,339.6136921001598,None,339.6136921001598,None,339.9074208000675,341.44204700016417,339.9074208000675,341.44204700016417,341.46896750014275,None,341.46896750014275,None,341.46896750014275,None,341.46896750014275,None,341.46896750014275,None,341.46896750014275,None,341.46896750014275,None,341.46896750014275,None,341.46896750014275,None,57,41,82,65,82,73,344.0054819001816,None,5.0,1.1572323001455516,344.0054819001816,None,344.0054819001816,None,344.0054819001816,None,344.0054819001816,None,None,None,345.177828400163,None,,,,,,,112,f,1,2022_Dec_11_1356,RL,2021.2.3,59.99750411276244,
1,37,0,37,0,,,,,,,,,,,,,,,None,None,None,None,None,346.7309881001711,None,346.7309881001711,None,346.7309881001711,None,346.7309881001711,None,i,0.4468964000698179,346.7309881001711,None,346.7309881001711,None,347.22558600013144,None,347.22558600013144,None,347.22558600013144,None,347.22558600013144,None,347.22558600013144,None,347.22558600013144,None,347.51301960018463,348.48012530012056,347.51301960018463,348.48012530012056,348.5123139000498,None,348.5123139000498,None,348.5123139000498,None,348.5123139000498,None,348.5123139000498,None,348.5123139000498,None,348.5123139000498,None,348.5123139000498,None,348.5123139000498,None,62,42,71,56,71,91,351.0295689001214,None,3.0,2.1893978998996317,351.0295689001214,None,351.0295689001214,None,351.0295689001214,None,351.0295689001214,None,None,None,353.23318760003895,None,,,,,,,112,f,1,2022_Dec_11_1356,RL,2021.2.3,59.99750411276244,
1,38,0,38,0,,,,,,,,,,,,,,,None,None,None,None,None,355.0522765000351,None,355.0522765000351,None,355.0522765000351,None,355.0522765000351,None,i,0.3266445999033749,355.0522765000351,None,355.0522765000351,None,355.417076200014,None,355.417076200014,None,355.417076200014,None,355.417076200014,None,355.417076200014,None,355.417076200014,None,355.701811700128,357.4365891001653,355.701811700128,357.4365891001653,357.47253350005485,None,357.47253350005485,None,357.47253350005485,None,357.47253350005485,None,357.47253350005485,None,357.47253350005485,None,357.47253350005485,None,357.47253350005485,None,357.47253350005485,None,58,29,80,52,80,78,359.99287510011345,None,4.0,2.132945599965751,359.99287510011345,None,359.99287510011345,None,359.99287510011345,None,359.99287510011345,None,None,None,362.139631500002,None,,,,,,,112,f,1,2022_Dec_11_1356,RL,2021.2.3,59.99750411276244,
1,39,0,39,0,,,,,,,,,,,,,,,None,None,None,None,None,364.1073759000283,None,364.1073759000283,None,364.1073759000283,None,364.1073759000283,None,i,0.3317459002137184,364.1073759000283,None,364.1073759000283,None,364.4828522000462,None,364.4828522000462,None,364.4828522000462,None,364.4828522000462,None,364.4828522000462,None,364.4828522000462,None,364.77476060017943,None,364.77476060017943,None,366.738081100164,None,366.738081100164,None,366.738081100164,None,366.738081100164,None,366.738081100164,None,366.738081100164,None,366.738081100164,None,366.738081100164,None,366.738081100164,None,55,30,84,58,84,72,369.2614627999719,None,4.0,1.3888034999836236,369.2614627999719,None,369.2614627999719,None,369.2614627999719,None,369.2614627999719,None,None,None,370.6621075000148,None,,,,,,,112,f,1,2022_Dec_11_1356,RL,2021.2.3,59.99750411276244,
1,40,0,40,0,,,,,,,,,,,,,,,None,None,None,None,None,372.1629536000546,None,372.1629536000546,None,372.1629536000546,None,372.1629536000546,None,i,0.45558499987237155,372.1629536000546,None,372.1629536000546,None,372.65475630015135,None,372.65475630015135,None,372.65475630015135,None,372.65475630015135,None,372.65475630015135,None,372.65475630015135,None,372.9473231001757,None,372.9473231001757,None,373.9094782001339,None,373.9094782001339,None,373.9094782001339,None,373.9094782001339,None,373.9094782001339,None,373.9094782001339,None,373.9094782001339,None,373.9094782001339,None,373.9094782001339,None,62,40,69,52,69,74,376.43268109997734,None,4.0,1.4345705998130143,376.43268109997734,None,376.43268109997734,None,376.43268109997734,None,376.43268109997734,None,None,None,377.8887994000688,None,,,,,,,112,f,1,2022_Dec_11_1356,RL,2021.2.3,59.99750411276244,
1,41,0,41,0,,,,,,,,,,,,,,,None,None,None,None,None,379.73850110010244,None,379.73850110010244,None,379.73850110010244,None,379.73850110010244,None,i,0.5007509000133723,379.73850110010244,None,379.73850110010244,None,380.28730750014074,None,380.28730750014074,None,380.28730750014074,None,380.28730750014074,None,380.28730750014074,None,380.28730750014074,None,380.58626830019057,None,380.58626830019057,None,381.8169561000541,None,381.8169561000541,None,381.8169561000541,None,381.8169561000541,None,381.8169561000541,None,381.8169561000541,None,381.8169561000541,None,381.8169561000541,None,381.8169561000541,None,60,22,74,46,74,91,384.3388118001167,None,3.0,0.9189826999790967,384.3388118001167,None,384.3388118001167,None,384.3388118001167,None,384.3388118001167,None,None,None,385.2781754999887,None,,,,,,,112,f,1,2022_Dec_11_1356,RL,2021.2.3,59.99750411276244,
1,42,0,42,0,,,,,,,,,,,,,,,None,None,None,None,None,387.2450542000588,None,387.2450542000588,None,387.2450542000588,None,387.2450542000588,None,j,0.314396700123325,387.2450542000588,None,387.2450542000588,None,387.6195670000743,None,387.6195670000743,None,387.6195670000743,None,387.6195670000743,None,387.6195670000743,None,387.6195670000743,None,387.9205939001404,None,387.9205939001404,None,389.7402489001397,None,389.7402489001397,None,389.7402489001397,None,389.7402489001397,None,389.7402489001397,None,389.7402489001397,None,389.7402489001397,None,389.7402489001397,None,389.7402489001397,None,65,28,75,52,52,88,392.2649801000953,None,1.0,2.2155969000887126,392.2649801000953,None,392.2649801000953,None,392.2649801000953,None,392.2649801000953,None,None,None,394.5034007001668,None,,,,,,,112,f,1,2022_Dec_11_1356,RL,2021.2.3,59.99750411276244,
1,43,0,43,0,,,,,,,,,,,,,,,None,None,None,None,None,396.41635140008293,None,396.41635140008293,None,396.41635140008293,None,396.41635140008293,None,i,0.5829333998262882,396.41635140008293,None,396.41635140008293,None,397.0556936999783,None,397.0556936999783,None,397.0556936999783,None,397.0556936999783,None,397.0556936999783,None,397.0556936999783,None,397.34738140017726,398.6817974001169,397.34738140017726,398.6817974001169,398.71737780002877,None,398.71737780002877,None,398.71737780002877,None,398.71737780002877,None,398.71737780002877,None,398.71737780002877,None,398.71737780002877,None,398.71737780002877,None,398.71737780002877,None,70,29,80,56,80,92,401.2232853001915,None,1.0,1.6102788001298904,401.2232853001915,None,401.2232853001915,None,401.2232853001915,None,401.2232853001915,None,None,None,402.8508868000936,None,,,,,,,112,f,1,2022_Dec_11_1356,RL,2021.2.3,59.99750411276244,
1,44,0,44,0,,,,,,,,,,,,,,,None,None,None,None,None,404.72163520008326,None,404.72163520008326,None,404.72163520008326,None,404.72163520008326,None,i,0.4076473000459373,404.72163520008326,None,404.72163520008326,None,405.1759878001176,None,405.1759878001176,None,405.1759878001176,None,405.1759878001176,None,405.1759878001176,None,405.1759878001176,None,405.46984430006705,None,405.46984430006705,None,406.7870730999857,None,406.7870730999857,None,406.7870730999857,None,406.7870730999857,None,406.7870730999857,None,406.7870730999857,None,406.7870730999857,None,406.7870730999857,None,406.7870730999857,None,67,29,69,54,69,78,409.3080293000676,None,1.0,1.3164874999783933,409.3080293000676,None,409.3080293000676,None,409.3080293000676,None,409.3080293000676,None,None,None,410.64857680001296,None,,,,,,,112,f,1,2022_Dec_11_1356,RL,2021.2.3,59.99750411276244,
1,45,0,45,0,,,,,,,,,,,,,,,None,None,None,None,None,412.1922774000559,None,412.1922774000559,None,412.1922774000559,None,412.1922774000559,None,f,0.3573062000796199,412.1922774000559,None,412.1922774000559,None,412.59400400007144,None,412.59400400007144,None,412.59400400007144,None,412.59400400007144,None,412.59400400007144,None,412.59400400007144,None,412.8913873999845,None,412.8913873999845,None,413.9375002000015,None,413.9375002000015,None,413.9375002000015,None,413.9375002000015,None,413.9375002000015,None,413.9375002000015,None,413.9375002000015,None,413.9375002000015,None,413.9375002000015,None,67,28,76,57,28,89,416.4613330999855,None,1.0,1.4134267999324948,416.4613330999855,None,416.4613330999855,None,416.4613330999855,None,416.4613330999855,None,None,None,417.894713900052,None,,,,,,,112,f,1,2022_Dec_11_1356,RL,2021.2.3,59.99750411276244,
1,46,0,46,0,,,,,,,,,,,,,,,None,None,None,None,None,419.8654273999855,None,419.8654273999855,None,419.8654273999855,None,419.8654273999855,None,i,0.5139818999450654,419.8654273999855,None,419.8654273999855,None,420.4174210000783,None,420.4174210000783,None,420.4174210000783,None,420.4174210000783,None,420.4174210000783,None,420.4174210000783,None,420.7137190999929,None,420.7137190999929,None,421.62888910016045,None,421.62888910016045,None,421.62888910016045,None,421.62888910016045,None,421.62888910016045,None,421.62888910016045,None,421.62888910016045,None,421.62888910016045,None,421.62888910016045,None,71,17,76,48,76,82,424.14860139996745,None,1.0,1.438910499913618,424.14860139996745,None,424.14860139996745,None,424.14860139996745,None,424.14860139996745,None,None,None,425.6013013999909,None,,,,,,,112,f,1,2022_Dec_11_1356,RL,2021.2.3,59.99750411276244,
1,47,0,47,0,,,,,,,,,,,,,,,None,None,None,None,None,427.55450129997917,None,427.55450129997917,None,427.55450129997917,None,427.55450129997917,None,i,0.3949035000987351,427.55450129997917,None,427.55450129997917,None,427.9803114000242,None,427.9803114000242,None,427.9803114000242,None,427.9803114000242,None,427.9803114000242,None,427.9803114000242,None,428.2689523000736,429.68657520017587,428.2689523000736,429.68657520017587,429.72438960010186,None,429.72438960010186,None,429.72438960010186,None,429.72438960010186,None,429.72438960010186,None,429.72438960010186,None,429.72438960010186,None,429.72438960010186,None,429.72438960010186,None,73,24,85,58,85,99,432.23152090003714,None,1.0,0.5262377001345158,432.23152090003714,None,432.23152090003714,None,432.23152090003714,None,432.23152090003714,None,None,None,432.77978710015304,None,,,,,,,112,f,1,2022_Dec_11_1356,RL,2021.2.3,59.99750411276244,
1,48,0,48,0,,,,,,,,,,,,,,,None,None,None,None,None,434.6929882999975,None,434.6929882999975,None,434.6929882999975,None,434.6929882999975,None,i,0.27644169982522726,434.6929882999975,None,434.6929882999975,None,435.00375280017033,None,435.00375280017033,None,435.00375280017033,None,435.00375280017033,None,435.00375280017033,None,435.00375280017033,None,435.2904589001555,436.45786430011503,435.2904589001555,436.45786430011503,436.498503100127,None,436.498503100127,None,436.498503100127,None,436.498503100127,None,436.498503100127,None,436.498503100127,None,436.498503100127,None,436.498503100127,None,436.498503100127,None,61,13,81,61,81,97,439.0249469000846,None,1.0,1.7696692999452353,439.0249469000846,None,439.0249469000846,None,439.0249469000846,None,439.0249469000846,None,None,None,440.81045650015585,None,,,,,,,112,f,1,2022_Dec_11_1356,RL,2021.2.3,59.99750411276244,
1,49,0,49,0,,,,,,,,,,,,,,,None,None,None,None,None,442.39836440002546,None,442.39836440002546,None,442.39836440002546,None,442.39836440002546,None,j,0.37085129995830357,442.39836440002546,None,442.39836440002546,None,442.80731300008483,None,442.80731300008483,None,442.80731300008483,None,442.80731300008483,None,442.80731300008483,None,442.80731300008483,None,443.0960762000177,None,443.0960762000177,None,444.5738819001708,None,444.5738819001708,None,444.5738819001708,None,444.5738819001708,None,444.5738819001708,None,444.5738819001708,None,444.5738819001708,None,444.5738819001708,None,444.5738819001708,None,58,16,70,60,60,96,447.09283139999025,None,1.0,1.2602313999086618,447.09283139999025,None,447.09283139999025,None,447.09283139999025,None,447.09283139999025,None,None,None,448.36586320004426,None,,,,,,,112,f,1,2022_Dec_11_1356,RL,2021.2.3,59.99750411276244,
1,50,0,50,0,,,,,,,,,,,,,,,None,None,None,None,None,450.3714091000147,None,450.3714091000147,None,450.3714091000147,None,450.3714091000147,None,i,0.37838770006783307,450.3714091000147,None,450.3714091000147,None,450.7989942000713,None,450.7989942000713,None,450.7989942000713,None,450.7989942000713,None,450.7989942000713,None,450.7989942000713,None,451.08475859998725,451.95195650006644,451.08475859998725,451.95195650006644,451.9824385000393,None,451.9824385000393,None,451.9824385000393,None,451.9824385000393,None,451.9824385000393,None,451.9824385000393,None,451.9824385000393,None,451.9824385000393,None,451.9824385000393,None,56,22,66,55,66,86,454.4995941000525,None,1.0,1.3228009999729693,454.4995941000525,None,454.4995941000525,None,454.4995941000525,None,454.4995941000525,None,None,None,455.837779100053,None,,,,,,,112,f,1,2022_Dec_11_1356,RL,2021.2.3,59.99750411276244,
1,51,0,51,0,,,,,,,,,,,,,,,None,None,None,None,None,457.45579500007443,None,457.45579500007443,None,457.45579500007443,None,457.45579500007443,None,r,0.34363769995979965,457.45579500007443,None,457.45579500007443,None,457.8348789999727,None,457.8348789999727,None,457.8348789999727,None,457.8348789999727,None,457.8348789999727,None,457.8348789999727,None,458.1231770000886,459.5405949000269,458.1231770000886,459.5405949000269,459.5689399000257,None,459.5689399000257,None,459.5689399000257,None,459.5689399000257,None,459.5689399000257,None,459.5689399000257,None,459.5689399000257,None,459.5689399000257,None,459.5689399000257,None,61,34,65,49,61,88,462.08893470000476,None,1.0,1.7899768999777734,462.08893470000476,None,462.08893470000476,None,462.08893470000476,None,462.08893470000476,None,None,None,463.89446650003083,None,,,,,,,112,f,1,2022_Dec_11_1356,RL,2021.2.3,59.99750411276244,
1,52,0,52,0,,,,,,,,,,,,,,,None,None,None,None,None,465.66109050018713,None,465.66109050018713,None,465.66109050018713,None,465.66109050018713,None,i,0.31850959989242256,465.66109050018713,None,465.66109050018713,None,466.01804420002736,None,466.01804420002736,None,466.01804420002736,None,466.01804420002736,None,466.01804420002736,None,466.01804420002736,None,466.3121683001518,467.6293107001111,466.3121683001518,467.6293107001111,467.6599755000789,None,467.6599755000789,None,467.6599755000789,None,467.6599755000789,None,467.6599755000789,None,467.6599755000789,None,467.6599755000789,None,467.6599755000789,None,467.6599755000789,None,47,27,64,50,64,72,470.17781370016746,None,1.0,1.1037596000824124,470.17781370016746,None,470.17781370016746,None,470.17781370016746,None,470.17781370016746,None,None,None,471.2920050001703,None,,,,,,,112,f,1,2022_Dec_11_1356,RL,2021.2.3,59.99750411276244,
1,53,0,53,0,,,,,,,,,,,,,,,None,None,None,None,None,473.288824000163,None,473.288824000163,None,473.288824000163,None,473.288824000163,None,f,0.3006205998826772,473.288824000163,None,473.288824000163,None,473.62949880003,None,473.62949880003,None,473.62949880003,None,473.62949880003,None,473.62949880003,None,473.62949880003,None,473.9172133000102,475.58520600013435,473.9172133000102,475.58520600013435,475.62498690001667,None,475.62498690001667,None,475.62498690001667,None,475.62498690001667,None,475.62498690001667,None,475.62498690001667,None,475.62498690001667,None,475.62498690001667,None,475.62498690001667,None,66,37,66,55,37,67,478.14623380010016,None,1.0,1.491975899785757,478.14623380010016,None,478.14623380010016,None,478.14623380010016,None,478.14623380010016,None,None,None,479.6591907001566,None,,,,,,,112,f,1,2022_Dec_11_1356,RL,2021.2.3,59.99750411276244,
1,54,0,54,0,,,,,,,,,,,,,,,None,None,None,None,None,481.2627326999791,None,481.2627326999791,None,481.2627326999791,None,481.2627326999791,None,i,0.3571158000268042,481.2627326999791,None,481.2627326999791,None,481.6633262000978,None,481.6633262000978,None,481.6633262000978,None,481.6633262000978,None,481.6633262000978,None,481.6633262000978,None,481.95640710019507,483.8239697001409,481.95640710019507,483.8239697001409,483.86051510018297,None,483.86051510018297,None,483.86051510018297,None,483.86051510018297,None,483.86051510018297,None,483.86051510018297,None,483.86051510018297,None,483.86051510018297,None,483.86051510018297,None,58,43,63,48,63,87,486.3828557000961,None,1.0,1.2280334001407027,486.3828557000961,None,486.3828557000961,None,486.3828557000961,None,486.3828557000961,None,None,None,487.6264896001667,None,,,,,,,112,f,1,2022_Dec_11_1356,RL,2021.2.3,59.99750411276244,
1,55,0,55,0,,,,,,,,,,,,,,,None,None,None,None,None,489.5781775000505,None,489.5781775000505,None,489.5781775000505,None,489.5781775000505,None,i,0.4518888001330197,489.5781775000505,None,489.5781775000505,None,490.0698781001847,None,490.0698781001847,None,490.0698781001847,None,490.0698781001847,None,490.0698781001847,None,490.0698781001847,None,490.36210860009305,None,490.36210860009305,None,491.2642186000012,None,491.2642186000012,None,491.2642186000012,None,491.2642186000012,None,491.2642186000012,None,491.2642186000012,None,491.2642186000012,None,491.2642186000012,None,491.2642186000012,None,62,37,63,45,63,68,493.7926759000402,None,2.0,2.311018700012937,493.7926759000402,None,493.7926759000402,None,493.7926759000402,None,493.7926759000402,None,None,None,496.1156342001632,None,,,,,,,112,f,1,2022_Dec_11_1356,RL,2021.2.3,59.99750411276244,
1,56,0,56,0,,,,,,,,,,,,,,,None,None,None,None,None,497.75421679997817,None,497.75421679997817,None,497.75421679997817,None,497.75421679997817,None,i,0.27597429999150336,497.75421679997817,None,497.75421679997817,None,498.0723425000906,None,498.0723425000906,None,498.0723425000906,None,498.0723425000906,None,498.0723425000906,None,498.0723425000906,None,498.3676183000207,499.96842340007424,498.3676183000207,499.96842340007424,500.0072402001824,None,500.0072402001824,None,500.0072402001824,None,500.0072402001824,None,500.0072402001824,None,500.0072402001824,None,500.0072402001824,None,500.0072402001824,None,500.0072402001824,None,52,43,67,50,67,89,502.5268830000423,None,1.0,1.6272420999594033,502.5268830000423,None,502.5268830000423,None,502.5268830000423,None,502.5268830000423,None,None,None,504.1713351001963,None,,,,,,,112,f,1,2022_Dec_11_1356,RL,2021.2.3,59.99750411276244,
1,57,0,57,0,,,,,,,,,,,,,,,None,None,None,None,None,505.6928249001503,None,505.6928249001503,None,505.6928249001503,None,505.6928249001503,None,j,0.4273811001330614,505.6928249001503,None,505.6928249001503,None,506.17158790002577,None,506.17158790002577,None,506.17158790002577,None,506.17158790002577,None,506.17158790002577,None,506.17158790002577,None,506.4562572001014,508.15734510007314,506.4562572001014,508.15734510007314,508.1929742000066,None,508.1929742000066,None,508.1929742000066,None,508.1929742000066,None,508.1929742000066,None,508.1929742000066,None,508.1929742000066,None,508.1929742000066,None,508.1929742000066,None,54,29,70,53,53,91,510.71093070018105,None,1.0,1.2847460999619216,510.71093070018105,None,510.71093070018105,None,510.71093070018105,None,510.71093070018105,None,None,None,512.0100401001982,None,,,,,,,112,f,1,2022_Dec_11_1356,RL,2021.2.3,59.99750411276244,
1,58,0,58,0,,,,,,,,,,,,,,,None,None,None,None,None,513.9140861001797,None,513.9140861001797,None,513.9140861001797,None,513.9140861001797,None,i,0.28587680007331073,513.9140861001797,None,513.9140861001797,None,514.2585768999998,None,514.2585768999998,None,514.2585768999998,None,514.2585768999998,None,514.2585768999998,None,514.2585768999998,None,514.5465289000422,516.0630342999939,514.5465289000422,516.0630342999939,516.0948179999832,None,516.0948179999832,None,516.0948179999832,None,516.0948179999832,None,516.0948179999832,None,516.0948179999832,None,516.0948179999832,None,516.0948179999832,None,516.0948179999832,None,59,38,66,45,66,70,518.6216943999752,None,1.0,1.3146892001386732,518.6216943999752,None,518.6216943999752,None,518.6216943999752,None,518.6216943999752,None,None,None,519.9578194001224,None,,,,,,,112,f,1,2022_Dec_11_1356,RL,2021.2.3,59.99750411276244,
1,59,0,59,0,,,,,,,,,,,,,,,None,None,None,None,None,521.8188835000619,None,521.8188835000619,None,521.8188835000619,None,521.8188835000619,None,i,0.47052469989284873,521.8188835000619,None,521.8188835000619,None,522.3257999001071,None,522.3257999001071,None,522.3257999001071,None,522.3257999001071,None,522.3257999001071,None,522.3257999001071,None,522.6177829001099,None,522.6177829001099,None,524.2639665000606,None,524.2639665000606,None,524.2639665000606,None,524.2639665000606,None,524.2639665000606,None,524.2639665000606,None,524.2639665000606,None,524.2639665000606,None,524.2639665000606,None,56,41,64,38,64,43,526.7829046000261,None,4.0,2.2889763000421226,526.7829046000261,None,526.7829046000261,None,526.7829046000261,None,526.7829046000261,None,None,None,529.0892976000905,None,,,,,,,112,f,1,2022_Dec_11_1356,RL,2021.2.3,59.99750411276244,
1,60,0,60,0,,,,,,,,,,,,,,,None,None,None,None,None,530.8496094001457,None,530.8496094001457,None,530.8496094001457,None,530.8496094001457,None,i,0.3397641000337899,530.8496094001457,None,530.8496094001457,None,531.2151442000177,None,531.2151442000177,None,531.2151442000177,None,531.2151442000177,None,531.2151442000177,None,531.2151442000177,None,531.5069810000714,None,531.5069810000714,None,533.3293885001913,None,533.3293885001913,None,533.3293885001913,None,533.3293885001913,None,533.3293885001913,None,533.3293885001913,None,533.3293885001913,None,533.3293885001913,None,533.3293885001913,None,52,28,71,46,71,82,535.8629711000249,None,3.0,1.5176345000509173,535.8629711000249,None,535.8629711000249,None,535.8629711000249,None,535.8629711000249,None,None,None,537.394376500044,None,,,,,,,112,f,1,2022_Dec_11_1356,RL,2021.2.3,59.99750411276244,
1,61,0,61,0,,,,,,,,,,,,,,,None,None,None,None,None,539.3315828000195,None,539.3315828000195,None,539.3315828000195,None,539.3315828000195,None,i,0.46861899993382394,539.3315828000195,None,539.3315828000195,None,539.8564809001982,None,539.8564809001982,None,539.8564809001982,None,539.8564809001982,None,539.8564809001982,None,539.8564809001982,None,540.1464388000313,541.147240600083,540.1464388000313,541.147240600083,541.1748250999954,None,541.1748250999954,None,541.1748250999954,None,541.1748250999954,None,541.1748250999954,None,541.1748250999954,None,541.1748250999954,None,541.1748250999954,None,541.1748250999954,None,57,38,76,52,76,76,543.6889333999716,None,3.0,1.1114703000057489,543.6889333999716,None,543.6889333999716,None,543.6889333999716,None,543.6889333999716,None,None,None,544.8196399000008,None,,,,,,,112,f,1,2022_Dec_11_1356,RL,2021.2.3,59.99750411276244,
1,62,0,62,0,,,,,,,,,,,,,,,None,None,None,None,None,546.3337865001522,None,546.3337865001522,None,546.3337865001522,None,546.3337865001522,None,i,0.3666606000624597,546.3337865001522,None,546.3337865001522,None,546.7355625000782,None,546.7355625000782,None,546.7355625000782,None,546.7355625000782,None,546.7355625000782,None,546.7355625000782,None,547.034451100044,None,547.034451100044,None,548.134575500153,None,548.134575500153,None,548.134575500153,None,548.134575500153,None,548.134575500153,None,548.134575500153,None,548.134575500153,None,548.134575500153,None,548.134575500153,None,59,37,76,59,76,74,550.6531331001315,None,5.0,1.5695291000884026,550.6531331001315,None,550.6531331001315,None,550.6531331001315,None,550.6531331001315,None,None,None,552.2407218001317,None,,,,,,,112,f,1,2022_Dec_11_1356,RL,2021.2.3,59.99750411276244,
1,63,0,63,0,,,,,,,,,,,,,,,None,None,None,None,None,553.8233485000674,None,553.8233485000674,None,553.8233485000674,None,553.8233485000674,None,i,0.2865738000255078,553.8233485000674,None,553.8233485000674,None,554.1630161001813,None,554.1630161001813,None,554.1630161001813,None,554.1630161001813,None,554.1630161001813,None,554.1630161001813,None,554.4399986001663,555.9904259000905,554.4399986001663,555.9904259000905,556.0392560001928,None,556.0392560001928,None,556.0392560001928,None,556.0392560001928,None,556.0392560001928,None,556.0392560001928,None,556.0392560001928,None,556.0392560001928,None,556.0392560001928,None,47,40,80,48,80,74,558.5485714999959,None,5.0,1.243755199946463,558.5485714999959,None,558.5485714999959,None,558.5485714999959,None,558.5485714999959,None,None,None,559.8086284999736,None,,,,,,,112,f,1,2022_Dec_11_1356,RL,2021.2.3,59.99750411276244,
1,64,0,64,0,,,,,,,,,,,,,,,None,None,None,None,None,561.6777737999801,None,561.6777737999801,None,561.6777737999801,None,561.6777737999801,None,i,0.42320269998162985,561.6777737999801,None,561.6777737999801,None,562.1418133999687,None,562.1418133999687,None,562.1418133999687,None,562.1418133999687,None,562.1418133999687,None,562.1418133999687,None,562.4300434000324,563.5125712000299,562.4300434000324,563.5125712000299,563.5446009000298,None,563.5446009000298,None,563.5446009000298,None,563.5446009000298,None,563.5446009000298,None,563.5446009000298,None,563.5446009000298,None,563.5446009000298,None,563.5446009000298,None,50,33,76,54,76,72,566.0591778000817,None,5.0,1.1817443000618368,566.0591778000817,None,566.0591778000817,None,566.0591778000817,None,566.0591778000817,None,None,None,567.2524610999972,None,,,,,,,112,f,1,2022_Dec_11_1356,RL,2021.2.3,59.99750411276244,
1,65,0,65,0,,,,,,,,,,,,,,,None,None,None,None,None,569.106804399984,None,569.106804399984,None,569.106804399984,None,569.106804399984,None,i,0.27449050010181963,569.106804399984,None,569.106804399984,None,569.4251612001099,None,569.4251612001099,None,569.4251612001099,None,569.4251612001099,None,569.4251612001099,None,569.4251612001099,None,569.7169664001558,571.4513805999886,569.7169664001558,571.4513805999886,571.482703300193,None,571.482703300193,None,571.482703300193,None,571.482703300193,None,571.482703300193,None,571.482703300193,None,571.482703300193,None,571.482703300193,None,571.482703300193,None,45,51,88,49,88,69,574.0054013000336,None,6.0,1.6007109999191016,574.0054013000336,None,574.0054013000336,None,574.0054013000336,None,574.0054013000336,None,None,None,575.6204907000065,None,,,,,,,112,f,1,2022_Dec_11_1356,RL,2021.2.3,59.99750411276244,
1,66,0,66,0,,,,,,,,,,,,,,,None,None,None,None,None,577.4585945000872,None,577.4585945000872,None,577.4585945000872,None,577.4585945000872,None,i,0.29279330000281334,577.4585945000872,None,577.4585945000872,None,577.7997115000617,None,577.7997115000617,None,577.7997115000617,None,577.7997115000617,None,577.7997115000617,None,577.7997115000617,None,578.0892712001223,580.0742085999809,578.0892712001223,580.0742085999809,580.10449230019,None,580.10449230019,None,580.10449230019,None,580.10449230019,None,580.10449230019,None,580.10449230019,None,580.10449230019,None,580.10449230019,None,580.10449230019,None,46,40,83,41,83,68,582.61787070008,None,6.0,1.1764098000712693,582.61787070008,None,582.61787070008,None,582.61787070008,None,582.61787070008,None,None,None,583.8111845001113,None,,,,,,,112,f,1,2022_Dec_11_1356,RL,2021.2.3,59.99750411276244,
1,67,0,67,0,,,,,,,,,,,,,,,None,None,None,None,None,585.5810252001975,None,585.5810252001975,None,585.5810252001975,None,585.5810252001975,None,i,0.3604162000119686,585.5810252001975,None,585.5810252001975,None,585.9870293000713,None,585.9870293000713,None,585.9870293000713,None,585.9870293000713,None,585.9870293000713,None,585.9870293000713,None,586.2805665000342,None,586.2805665000342,None,587.8878450000193,None,587.8878450000193,None,587.8878450000193,None,587.8878450000193,None,587.8878450000193,None,587.8878450000193,None,587.8878450000193,None,587.8878450000193,None,587.8878450000193,None,52,43,89,47,89,71,590.4090818001423,None,7.0,1.5425523999147117,590.4090818001423,None,590.4090818001423,None,590.4090818001423,None,590.4090818001423,None,None,None,591.9719807000365,None,,,,,,,112,f,1,2022_Dec_11_1356,RL,2021.2.3,59.99750411276244,
1,68,0,68,0,,,,,,,,,,,,,,,None,None,None,None,None,593.5353263001889,None,593.5353263001889,None,593.5353263001889,None,593.5353263001889,None,i,0.5961412999313325,593.5353263001889,None,593.5353263001889,None,594.1714716001879,None,594.1714716001879,None,594.1714716001879,None,594.1714716001879,None,594.1714716001879,None,594.1714716001879,None,594.4674492999911,None,594.4674492999911,None,596.2123257000931,None,596.2123257000931,None,596.2123257000931,None,596.2123257000931,None,596.2123257000931,None,596.2123257000931,None,596.2123257000931,None,596.2123257000931,None,596.2123257000931,None,37,39,77,50,77,65,598.7375157000497,None,7.0,1.868515299865976,598.7375157000497,None,598.7375157000497,None,598.7375157000497,None,598.7375157000497,None,None,None,600.6215210000519,None,,,,,,,112,f,1,2022_Dec_11_1356,RL,2021.2.3,59.99750411276244,
1,69,0,69,0,,,,,,,,,,,,,,,None,None,None,None,None,602.4768523001112,None,602.4768523001112,None,602.4768523001112,None,602.4768523001112,None,i,0.8346643999684602,602.4768523001112,None,602.4768523001112,None,603.3689445001073,None,603.3689445001073,None,603.3689445001073,None,603.3689445001073,None,603.3689445001073,None,603.3689445001073,None,603.6572306000162,604.8079485001508,603.6572306000162,604.8079485001508,604.83797220001,None,604.83797220001,None,604.83797220001,None,604.83797220001,None,604.83797220001,None,604.83797220001,None,604.83797220001,None,604.83797220001,None,604.83797220001,None,46,43,83,57,83,67,607.3582109001,None,7.0,1.384842799976468,607.3582109001,None,607.3582109001,None,607.3582109001,None,607.3582109001,None,None,None,608.7602937000338,None,,,,,,,112,f,1,2022_Dec_11_1356,RL,2021.2.3,59.99750411276244,
1,70,0,70,0,,,,,,,,,,,,,,,None,None,None,None,None,610.5024941000156,None,610.5024941000156,None,610.5024941000156,None,610.5024941000156,None,None,,610.5024941000156,None,610.5024941000156,None,None,None,None,None,None,None,None,None,None,None,None,None,None,None,None,None,None,None,None,None,None,None,None,None,None,None,None,None,None,None,None,None,None,None,44,39,83,47,0,**,None,None,None,None,None,None,None,None,None,None,None,None,612.0556244000327,None,616.5657634001691,None,,,,,,,112,f,1,2022_Dec_11_1356,RL,2021.2.3,59.99750411276244,
1,71,0,71,0,,,,,,,,,,,,,,,None,None,None,None,None,618.3385185000952,None,618.3385185000952,None,618.3385185000952,None,618.3385185000952,None,i,0.48271100013516843,618.3385185000952,None,618.3385185000952,None,618.8942848001607,None,618.8942848001607,None,618.8942848001607,None,618.8942848001607,None,618.8942848001607,None,618.8942848001607,None,619.1849255000707,620.4352166000754,619.1849255000707,620.4352166000754,620.4651987999678,None,620.4651987999678,None,620.4651987999678,None,620.4651987999678,None,620.4651987999678,None,620.4651987999678,None,620.4651987999678,None,620.4651987999678,None,620.4651987999678,None,49,34,80,52,80,63,622.98940890003,None,7.0,0.7478240001946688,622.98940890003,None,622.98940890003,None,622.98940890003,None,622.98940890003,None,None,None,623.7552531000692,None,,,,,,,112,f,1,2022_Dec_11_1356,RL,2021.2.3,59.99750411276244,
1,72,0,72,0,,,,,,,,,,,,,,,None,None,None,None,None,625.3747789000627,None,625.3747789000627,None,625.3747789000627,None,625.3747789000627,None,i,0.46658440004102886,625.3747789000627,None,625.3747789000627,None,625.8851026999764,None,625.8851026999764,None,625.8851026999764,None,625.8851026999764,None,625.8851026999764,None,625.8851026999764,None,626.1727601999883,None,626.1727601999883,None,627.1566367000341,None,627.1566367000341,None,627.1566367000341,None,627.1566367000341,None,627.1566367000341,None,627.1566367000341,None,627.1566367000341,None,627.1566367000341,None,627.1566367000341,None,51,32,72,46,72,82,629.6748567000031,None,3.0,2.101582400035113,629.6748567000031,None,629.6748567000031,None,629.6748567000031,None,629.6748567000031,None,None,None,631.7980198001023,None,,,,,,,112,f,1,2022_Dec_11_1356,RL,2021.2.3,59.99750411276244,
1,73,0,73,0,,,,,,,,,,,,,,,None,None,None,None,None,633.4126228000969,None,633.4126228000969,None,633.4126228000969,None,633.4126228000969,None,i,0.40887070004828274,633.4126228000969,None,633.4126228000969,None,633.8564777001739,None,633.8564777001739,None,633.8564777001739,None,633.8564777001739,None,633.8564777001739,None,633.8564777001739,None,634.1449988000095,635.0457343000453,634.1449988000095,635.0457343000453,635.0769699001685,None,635.0769699001685,None,635.0769699001685,None,635.0769699001685,None,635.0769699001685,None,635.0769699001685,None,635.0769699001685,None,635.0769699001685,None,635.0769699001685,None,47,32,69,47,69,86,637.5980980000459,None,3.0,1.2169210999272764,637.5980980000459,None,637.5980980000459,None,637.5980980000459,None,637.5980980000459,None,None,None,638.8371076001786,None,,,,,,,112,f,1,2022_Dec_11_1356,RL,2021.2.3,59.99750411276244,
1,74,0,74,0,,,,,,,,,,,,,,,None,None,None,None,None,640.5165318001527,None,640.5165318001527,None,640.5165318001527,None,640.5165318001527,None,i,0.40522980014793575,640.5165318001527,None,640.5165318001527,None,640.970822500065,None,640.970822500065,None,640.970822500065,None,640.970822500065,None,640.970822500065,None,640.970822500065,None,641.2663974000607,643.1345705999993,641.2663974000607,643.1345705999993,643.1673141000792,None,643.1673141000792,None,643.1673141000792,None,643.1673141000792,None,643.1673141000792,None,643.1673141000792,None,643.1673141000792,None,643.1673141000792,None,643.1673141000792,None,52,36,70,56,70,82,645.6835153000429,None,2.0,1.4704200997948647,645.6835153000429,None,645.6835153000429,None,645.6835153000429,None,645.6835153000429,None,None,None,647.170475400053,None,,,,,,,112,f,1,2022_Dec_11_1356,RL,2021.2.3,59.99750411276244,
1,75,0,75,0,,,,,,,,,,,,,,,648.7385963001288,None,q,648.7385963001288,None,741.0403978000395,None,741.0403978000395,None,741.0403978000395,None,741.0403978000395,None,i,0.6787793999537826,741.0403978000395,None,741.0403978000395,None,741.7581784999929,None,741.7581784999929,None,741.7581784999929,None,741.7581784999929,None,741.7581784999929,None,741.7581784999929,None,742.0530765000731,742.971972099971,742.0530765000731,742.971972099971,742.9998257001862,None,742.9998257001862,None,742.9998257001862,None,742.9998257001862,None,742.9998257001862,None,742.9998257001862,None,742.9998257001862,None,742.9998257001862,None,742.9998257001862,None,44,46,74,52,74,80,745.522230300121,None,3.0,2.472194300033152,745.522230300121,None,745.522230300121,None,745.522230300121,None,745.522230300121,None,None,None,748.0069024001714,None,92.27373800007626,,,,,,112,f,1,2022_Dec_11_1356,RL,2021.2.3,59.99750411276244,
1,76,0,76,0,,,,,,,,,,,,,,,None,None,None,None,None,749.6786227000412,None,749.6786227000412,None,749.6786227000412,None,749.6786227000412,None,j,0.39035290013998747,749.6786227000412,None,749.6786227000412,None,750.1094774000812,None,750.1094774000812,None,750.1094774000812,None,750.1094774000812,None,750.1094774000812,None,750.1094774000812,None,750.4088851001579,None,750.4088851001579,None,751.4227687001694,None,751.4227687001694,None,751.4227687001694,None,751.4227687001694,None,751.4227687001694,None,751.4227687001694,None,751.4227687001694,None,751.4227687001694,None,751.4227687001694,None,40,51,75,55,55,83,753.9392328001559,None,3.0,0.5922131999395788,753.9392328001559,None,753.9392328001559,None,753.9392328001559,None,753.9392328001559,None,None,None,754.5460453000851,None,,,,,,,112,f,1,2022_Dec_11_1356,RL,2021.2.3,59.99750411276244,
1,77,0,77,0,,,,,,,,,,,,,,,None,None,None,None,None,756.2307023999747,None,756.2307023999747,None,756.2307023999747,None,756.2307023999747,None,i,0.6785805001854897,756.2307023999747,None,756.2307023999747,None,756.9618516000919,None,756.9618516000919,None,756.9618516000919,None,756.9618516000919,None,756.9618516000919,None,756.9618516000919,None,757.247037500143,758.8145254000556,757.247037500143,758.8145254000556,758.845880900044,None,758.845880900044,None,758.845880900044,None,758.845880900044,None,758.845880900044,None,758.845880900044,None,758.845880900044,None,758.845880900044,None,758.845880900044,None,39,40,69,56,69,66,761.3570209001191,None,6.0,1.979322100058198,761.3570209001191,None,761.3570209001191,None,761.3570209001191,None,761.3570209001191,None,None,None,763.3507380001247,None,,,,,,,112,f,1,2022_Dec_11_1356,RL,2021.2.3,59.99750411276244,
1,78,0,78,0,,,,,,,,,,,,,,,None,None,None,None,None,765.1047851000912,None,765.1047851000912,None,765.1047851000912,None,765.1047851000912,None,i,0.36435070005245507,765.1047851000912,None,765.1047851000912,None,765.5020866000559,None,765.5020866000559,None,765.5020866000559,None,765.5020866000559,None,765.5020866000559,None,765.5020866000559,None,765.8029503000434,None,765.8029503000434,None,767.039809100097,None,767.039809100097,None,767.039809100097,None,767.039809100097,None,767.039809100097,None,767.039809100097,None,767.039809100097,None,767.039809100097,None,767.039809100097,None,48,52,77,52,77,76,769.546706699999,None,5.0,1.6117179999127984,769.546706699999,None,769.546706699999,None,769.546706699999,None,769.546706699999,None,None,None,771.1728425000329,None,,,,,,,112,f,1,2022_Dec_11_1356,RL,2021.2.3,59.99750411276244,
1,79,0,79,0,,,,,,,,,,,,,,,None,None,None,None,None,772.9770084000193,None,772.9770084000193,None,772.9770084000193,None,772.9770084000193,None,i,0.5323838000185788,772.9770084000193,None,772.9770084000193,None,773.551826500101,None,773.551826500101,None,773.551826500101,None,773.551826500101,None,773.551826500101,None,773.551826500101,None,773.8418028000742,775.4928115000948,773.8418028000742,775.4928115000948,775.5256968000904,None,775.5256968000904,None,775.5256968000904,None,775.5256968000904,None,775.5256968000904,None,775.5256968000904,None,775.5256968000904,None,775.5256968000904,None,775.5256968000904,None,38,50,80,52,80,81,778.0452713000122,None,3.0,2.31589990016073,778.0452713000122,None,778.0452713000122,None,778.0452713000122,None,778.0452713000122,None,None,None,780.3792348001152,None,,,,,,,112,f,1,2022_Dec_11_1356,RL,2021.2.3,59.99750411276244,
1,80,0,80,0,,,,,,,,,,,,,,,None,None,None,None,None,781.9971770001575,None,781.9971770001575,None,781.9971770001575,None,781.9971770001575,None,i,0.3224478999618441,781.9971770001575,None,781.9971770001575,None,782.3716751001775,None,782.3716751001775,None,782.3716751001775,None,782.3716751001775,None,782.3716751001775,None,782.3716751001775,None,782.6646416999865,None,782.6646416999865,None,783.5113143001217,None,783.5113143001217,None,783.5113143001217,None,783.5113143001217,None,783.5113143001217,None,783.5113143001217,None,783.5113143001217,None,783.5113143001217,None,783.5113143001217,None,44,58,79,54,79,72,786.0290304999799,None,4.0,1.6748079999815673,786.0290304999799,None,786.0290304999799,None,786.0290304999799,None,786.0290304999799,None,None,None,787.7198109000456,None,,,,,,,112,f,1,2022_Dec_11_1356,RL,2021.2.3,59.99750411276244,
1,81,0,81,0,,,,,,,,,,,,,,,None,None,None,None,None,789.7049531000666,None,789.7049531000666,None,789.7049531000666,None,789.7049531000666,None,i,0.3444824998732656,789.7049531000666,None,789.7049531000666,None,790.0967276000883,None,790.0967276000883,None,790.0967276000883,None,790.0967276000883,None,790.0967276000883,None,790.0967276000883,None,790.3865263001062,None,790.3865263001062,None,791.2667508001905,None,791.2667508001905,None,791.2667508001905,None,791.2667508001905,None,791.2667508001905,None,791.2667508001905,None,791.2667508001905,None,791.2667508001905,None,791.2667508001905,None,40,50,77,54,77,71,793.7960375000257,None,5.0,1.683233599876985,793.7960375000257,None,793.7960375000257,None,793.7960375000257,None,793.7960375000257,None,None,None,795.4949845999945,None,,,,,,,112,f,1,2022_Dec_11_1356,RL,2021.2.3,59.99750411276244,
1,82,0,82,0,,,,,,,,,,,,,,,None,None,None,None,None,797.4936000001617,None,797.4936000001617,None,797.4936000001617,None,797.4936000001617,None,i,0.45570080005563796,797.4936000001617,None,797.4936000001617,None,797.9991642001551,None,797.9991642001551,None,797.9991642001551,None,797.9991642001551,None,797.9991642001551,None,797.9991642001551,None,798.2921541000251,799.1590671001468,798.2921541000251,799.1590671001468,799.1835197000764,None,799.1835197000764,None,799.1835197000764,None,799.1835197000764,None,799.1835197000764,None,799.1835197000764,None,799.1835197000764,None,799.1835197000764,None,799.1835197000764,None,42,66,71,49,71,79,801.7143397000618,None,3.0,1.5863529001362622,801.7143397000618,None,801.7143397000618,None,801.7143397000618,None,801.7143397000618,None,None,None,803.3124270001426,None,,,,,,,112,f,1,2022_Dec_11_1356,RL,2021.2.3,59.99750411276244,
1,83,0,83,0,,,,,,,,,,,,,,,None,None,None,None,None,804.9326414000243,None,804.9326414000243,None,804.9326414000243,None,804.9326414000243,None,r,0.587353799957782,804.9326414000243,None,804.9326414000243,None,805.5643685001414,None,805.5643685001414,None,805.5643685001414,None,805.5643685001414,None,805.5643685001414,None,805.5643685001414,None,805.8640070999973,None,805.8640070999973,None,807.4943278001156,None,807.4943278001156,None,807.4943278001156,None,807.4943278001156,None,807.4943278001156,None,807.4943278001156,None,807.4943278001156,None,807.4943278001156,None,807.4943278001156,None,43,55,70,44,43,80,810.0098346001469,None,2.0,1.3594450000673532,810.0098346001469,None,810.0098346001469,None,810.0098346001469,None,810.0098346001469,None,None,None,811.3844063000288,None,,,,,,,112,f,1,2022_Dec_11_1356,RL,2021.2.3,59.99750411276244,
1,84,0,84,0,,,,,,,,,,,,,,,None,None,None,None,None,813.2551378000062,None,813.2551378000062,None,813.2551378000062,None,813.2551378000062,None,f,0.345335999969393,813.2551378000062,None,813.2551378000062,None,813.6466980001424,None,813.6466980001424,None,813.6466980001424,None,813.6466980001424,None,813.6466980001424,None,813.6466980001424,None,813.9362051000353,814.753395000007,813.9362051000353,814.753395000007,814.7799625000916,None,814.7799625000916,None,814.7799625000916,None,814.7799625000916,None,814.7799625000916,None,814.7799625000916,None,814.7799625000916,None,814.7799625000916,None,814.7799625000916,None,55,47,66,44,47,73,817.302762700012,None,2.0,2.655373299960047,817.302762700012,None,817.302762700012,None,817.302762700012,None,817.302762700012,None,None,None,819.9778448999859,None,,,,,,,112,f,1,2022_Dec_11_1356,RL,2021.2.3,59.99750411276244,
1,85,0,85,0,,,,,,,,,,,,,,,None,None,None,None,None,821.7934663000051,None,821.7934663000051,None,821.7934663000051,None,821.7934663000051,None,j,0.3173853999469429,821.7934663000051,None,821.7934663000051,None,822.1588540000375,None,822.1588540000375,None,822.1588540000375,None,822.1588540000375,None,822.1588540000375,None,822.1588540000375,None,822.4586591001134,None,822.4586591001134,None,824.0772902001627,None,824.0772902001627,None,824.0772902001627,None,824.0772902001627,None,824.0772902001627,None,824.0772902001627,None,824.0772902001627,None,824.0772902001627,None,824.0772902001627,None,42,57,78,43,43,73,826.5921614000108,None,2.0,1.4733929000794888,826.5921614000108,None,826.5921614000108,None,826.5921614000108,None,826.5921614000108,None,None,None,828.0825543000828,None,,,,,,,112,f,1,2022_Dec_11_1356,RL,2021.2.3,59.99750411276244,
1,86,0,86,0,,,,,,,,,,,,,,,None,None,None,None,None,830.0024043000303,None,830.0024043000303,None,830.0024043000303,None,830.0024043000303,None,i,0.41839260002598166,830.0024043000303,None,830.0024043000303,None,830.4725331000518,None,830.4725331000518,None,830.4725331000518,None,830.4725331000518,None,830.4725331000518,None,830.4725331000518,None,830.7652367001865,831.8152593001723,830.7652367001865,831.8152593001723,831.8507303001825,None,831.8507303001825,None,831.8507303001825,None,831.8507303001825,None,831.8507303001825,None,831.8507303001825,None,831.8507303001825,None,831.8507303001825,None,831.8507303001825,None,53,48,67,49,67,83,834.3629893001635,None,2.0,0.9885402000509202,834.3629893001635,None,834.3629893001635,None,834.3629893001635,None,834.3629893001635,None,None,None,835.3701520999894,None,,,,,,,112,f,1,2022_Dec_11_1356,RL,2021.2.3,59.99750411276244,
1,87,0,87,0,,,,,,,,,,,,,,,None,None,None,None,None,837.1048401000444,None,837.1048401000444,None,837.1048401000444,None,837.1048401000444,None,i,0.3156175999902189,837.1048401000444,None,837.1048401000444,None,837.4483936000615,None,837.4483936000615,None,837.4483936000615,None,837.4483936000615,None,837.4483936000615,None,837.4483936000615,None,837.736012400128,None,837.736012400128,None,839.7088004001416,None,839.7088004001416,None,839.7088004001416,None,839.7088004001416,None,839.7088004001416,None,839.7088004001416,None,839.7088004001416,None,839.7088004001416,None,839.7088004001416,None,50,54,64,54,64,79,842.2300257000607,None,2.0,1.1235907000955194,842.2300257000607,None,842.2300257000607,None,842.2300257000607,None,842.2300257000607,None,None,None,843.3748951000161,None,,,,,,,112,f,1,2022_Dec_11_1356,RL,2021.2.3,59.99750411276244,
1,88,0,88,0,,,,,,,,,,,,,,,None,None,None,None,None,845.2377732000314,None,845.2377732000314,None,845.2377732000314,None,845.2377732000314,None,r,0.6529719000682235,845.2377732000314,None,845.2377732000314,None,845.9249052000232,None,845.9249052000232,None,845.9249052000232,None,845.9249052000232,None,845.9249052000232,None,845.9249052000232,None,846.2252802001312,None,846.2252802001312,None,848.111938000191,None,848.111938000191,None,848.111938000191,None,848.111938000191,None,848.111938000191,None,848.111938000191,None,848.111938000191,None,848.111938000191,None,848.111938000191,None,47,47,58,57,47,79,850.6293884001207,None,2.0,1.5505852999631315,850.6293884001207,None,850.6293884001207,None,850.6293884001207,None,850.6293884001207,None,None,None,852.1975676000584,None,,,,,,,112,f,1,2022_Dec_11_1356,RL,2021.2.3,59.99750411276244,
1,89,0,89,0,,,,,,,,,,,,,,,None,None,None,None,None,854.0360958001111,None,854.0360958001111,None,854.0360958001111,None,854.0360958001111,None,i,0.2748807000461966,854.0360958001111,None,854.0360958001111,None,854.3526555001736,None,854.3526555001736,None,854.3526555001736,None,854.3526555001736,None,854.3526555001736,None,854.3526555001736,None,854.6480843999889,None,854.6480843999889,None,856.2982175000943,None,856.2982175000943,None,856.2982175000943,None,856.2982175000943,None,856.2982175000943,None,856.2982175000943,None,856.2982175000943,None,856.2982175000943,None,856.2982175000943,None,44,55,59,56,59,79,858.8262848001905,None,2.0,1.5473811998963356,858.8262848001905,None,858.8262848001905,None,858.8262848001905,None,858.8262848001905,None,None,None,860.3847636000719,None,,,,,,,112,f,1,2022_Dec_11_1356,RL,2021.2.3,59.99750411276244,
1,90,0,90,0,,,,,,,,,,,,,,,None,None,None,None,None,862.1058803000487,None,862.1058803000487,None,862.1058803000487,None,862.1058803000487,None,j,0.4045953000895679,862.1058803000487,None,862.1058803000487,None,862.5684287999757,None,862.5684287999757,None,862.5684287999757,None,862.5684287999757,None,862.5684287999757,None,862.5684287999757,None,862.8536054000724,864.4377850000747,862.8536054000724,864.4377850000747,864.4762600001413,None,864.4762600001413,None,864.4762600001413,None,864.4762600001413,None,864.4762600001413,None,864.4762600001413,None,864.4762600001413,None,864.4762600001413,None,864.4762600001413,None,42,59,55,53,53,75,866.985874200007,None,1.0,1.4384624001104385,866.985874200007,None,866.985874200007,None,866.985874200007,None,866.985874200007,None,None,None,868.44181450014,None,,,,,,,112,f,1,2022_Dec_11_1356,RL,2021.2.3,59.99750411276244,
1,91,0,91,0,,,,,,,,,,,,,,,None,None,None,None,None,870.3812921000645,None,870.3812921000645,None,870.3812921000645,None,870.3812921000645,None,i,0.279916999861598,870.3812921000645,None,870.3812921000645,None,870.7031459000427,None,870.7031459000427,None,870.7031459000427,None,870.7031459000427,None,870.7031459000427,None,870.7031459000427,None,871.0037142999936,None,871.0037142999936,None,872.2885677001905,None,872.2885677001905,None,872.2885677001905,None,872.2885677001905,None,872.2885677001905,None,872.2885677001905,None,872.2885677001905,None,872.2885677001905,None,872.2885677001905,None,43,52,54,52,54,93,874.7940905001014,None,1.0,0.6014839999843389,874.7940905001014,None,874.7940905001014,None,874.7940905001014,None,874.7940905001014,None,None,None,875.4119071001187,None,,,,,,,112,f,1,2022_Dec_11_1356,RL,2021.2.3,59.99750411276244,
1,92,0,92,0,,,,,,,,,,,,,,,None,None,None,None,None,877.0653681000695,None,877.0653681000695,None,877.0653681000695,None,877.0653681000695,None,j,0.47554010013118386,877.0653681000695,None,877.0653681000695,None,877.592065300094,None,877.592065300094,None,877.592065300094,None,877.592065300094,None,877.592065300094,None,877.592065300094,None,877.8804326001555,878.8310854001902,877.8804326001555,878.8310854001902,878.8592396001332,None,878.8592396001332,None,878.8592396001332,None,878.8592396001332,None,878.8592396001332,None,878.8592396001332,None,878.8592396001332,None,878.8592396001332,None,878.8592396001332,None,54,55,68,44,44,79,881.3748280000873,None,1.0,0.5706130000762641,881.3748280000873,None,881.3748280000873,None,881.3748280000873,None,881.3748280000873,None,None,None,881.9662011000328,None,,,,,,,112,f,1,2022_Dec_11_1356,RL,2021.2.3,59.99750411276244,
1,93,0,93,0,,,,,,,,,,,,,,,None,None,None,None,None,883.7398041000124,None,883.7398041000124,None,883.7398041000124,None,883.7398041000124,None,i,1.2614877000451088,883.7398041000124,None,883.7398041000124,None,885.0448398001026,None,885.0448398001026,None,885.0448398001026,None,885.0448398001026,None,885.0448398001026,None,885.0448398001026,None,885.335768399993,None,885.335768399993,None,887.2951420000754,None,887.2951420000754,None,887.2951420000754,None,887.2951420000754,None,887.2951420000754,None,887.2951420000754,None,887.2951420000754,None,887.2951420000754,None,887.2951420000754,None,52,53,65,49,65,76,889.8297390001826,None,1.0,0.6487942000385374,889.8297390001826,None,889.8297390001826,None,889.8297390001826,None,889.8297390001826,None,None,None,890.4890770001803,None,,,,,,,112,f,1,2022_Dec_11_1356,RL,2021.2.3,59.99750411276244,
1,94,0,94,0,,,,,,,,,,,,,,,None,None,None,None,None,892.1233978001401,None,892.1233978001401,None,892.1233978001401,None,892.1233978001401,None,f,0.2872677000705153,892.1233978001401,None,892.1233978001401,None,892.4621202000417,None,892.4621202000417,None,892.4621202000417,None,892.4621202000417,None,892.4621202000417,None,892.4621202000417,None,892.757724000141,894.0748893001582,892.757724000141,894.0748893001582,894.1045000001322,None,894.1045000001322,None,894.1045000001322,None,894.1045000001322,None,894.1045000001322,None,894.1045000001322,None,894.1045000001322,None,894.1045000001322,None,894.1045000001322,None,49,53,61,50,53,39,896.6281799999997,None,1.0,0.6852063001133502,896.6281799999997,None,896.6281799999997,None,896.6281799999997,None,896.6281799999997,None,None,None,897.3357954001985,None,,,,,,,112,f,1,2022_Dec_11_1356,RL,2021.2.3,59.99750411276244,
1,95,0,95,0,,,,,,,,,,,,,,,None,None,None,None,None,899.266752500087,None,899.266752500087,None,899.266752500087,None,899.266752500087,None,f,0.5046623998787254,899.266752500087,None,899.266752500087,None,899.8161030001938,None,899.8161030001938,None,899.8161030001938,None,899.8161030001938,None,899.8161030001938,None,899.8161030001938,None,900.1127266001422,None,900.1127266001422,None,901.5898593000602,None,901.5898593000602,None,901.5898593000602,None,901.5898593000602,None,901.5898593000602,None,901.5898593000602,None,901.5898593000602,None,901.5898593000602,None,901.5898593000602,None,53,53,61,44,53,56,904.1104375000577,None,1.0,0.857823200058192,904.1104375000577,None,904.1104375000577,None,904.1104375000577,None,904.1104375000577,None,None,None,904.9825254001189,None,,,,,,,112,f,1,2022_Dec_11_1356,RL,2021.2.3,59.99750411276244,
1,96,0,96,0,,,,,,,,,,,,,,,None,None,None,None,None,906.9213858000003,None,906.9213858000003,None,906.9213858000003,None,906.9213858000003,None,r,0.5192197998985648,906.9213858000003,None,906.9213858000003,None,907.489407800138,None,907.489407800138,None,907.489407800138,None,907.489407800138,None,907.489407800138,None,907.489407800138,None,907.7846605000086,None,907.7846605000086,None,908.8506402000785,None,908.8506402000785,None,908.8506402000785,None,908.8506402000785,None,908.8506402000785,None,908.8506402000785,None,908.8506402000785,None,908.8506402000785,None,908.8506402000785,None,51,47,68,43,51,87,911.3703380001243,None,2.0,1.2658344998490065,911.3703380001243,None,911.3703380001243,None,911.3703380001243,None,911.3703380001243,None,None,None,912.6542690000497,None,,,,,,,112,f,1,2022_Dec_11_1356,RL,2021.2.3,59.99750411276244,
1,97,0,97,0,,,,,,,,,,,,,,,None,None,None,None,None,914.6620361001696,None,914.6620361001696,None,914.6620361001696,None,914.6620361001696,None,i,0.3693981000687927,914.6620361001696,None,914.6620361001696,None,915.0868949000724,None,915.0868949000724,None,915.0868949000724,None,915.0868949000724,None,915.0868949000724,None,915.0868949000724,None,915.3732748001348,916.8739637001418,915.3732748001348,916.8739637001418,916.8948747001123,None,916.8948747001123,None,916.8948747001123,None,916.8948747001123,None,916.8948747001123,None,916.8948747001123,None,916.8948747001123,None,916.8948747001123,None,916.8948747001123,None,46,47,62,40,62,60,919.4303868999705,None,5.0,0.6175942998379469,919.4303868999705,None,919.4303868999705,None,919.4303868999705,None,919.4303868999705,None,None,None,920.0595842001494,None,,,,,,,112,f,1,2022_Dec_11_1356,RL,2021.2.3,59.99750411276244,
1,98,0,98,0,,,,,,,,,,,,,,,None,None,None,None,None,921.961138700135,None,921.961138700135,None,921.961138700135,None,921.961138700135,None,f,0.2699214001186192,921.961138700135,None,921.961138700135,None,922.2831959000323,None,922.2831959000323,None,922.2831959000323,None,922.2831959000323,None,922.2831959000323,None,922.2831959000323,None,922.5783663999755,None,922.5783663999755,None,924.5924049001187,None,924.5924049001187,None,924.5924049001187,None,924.5924049001187,None,924.5924049001187,None,924.5924049001187,None,924.5924049001187,None,924.5924049001187,None,924.5924049001187,None,51,41,69,37,41,72,927.1114870000165,None,1.0,1.5042880000546575,927.1114870000165,None,927.1114870000165,None,927.1114870000165,None,927.1114870000165,None,None,None,928.6394456000999,None,,,,,,,112,f,1,2022_Dec_11_1356,RL,2021.2.3,59.99750411276244,
1,99,0,99,0,,,,,,,,,,,,,,,None,None,None,None,None,930.6022069000173,None,930.6022069000173,None,930.6022069000173,None,930.6022069000173,None,i,0.27842559991404414,930.6022069000173,None,930.6022069000173,None,930.9148262999952,None,930.9148262999952,None,930.9148262999952,None,930.9148262999952,None,930.9148262999952,None,930.9148262999952,None,931.2007434000261,932.2015839000233,931.2007434000261,932.2015839000233,932.2309038999956,None,932.2309038999956,None,932.2309038999956,None,932.2309038999956,None,932.2309038999956,None,932.2309038999956,None,932.2309038999956,None,932.2309038999956,None,932.2309038999956,None,45,48,57,40,57,72,934.7472467001062,None,1.0,0.7077585000079125,934.7472467001062,None,934.7472467001062,None,934.7472467001062,None,934.7472467001062,None,None,None,935.4700825000182,None,,,,,,,112,f,1,2022_Dec_11_1356,RL,2021.2.3,59.99750411276244,
1,100,0,100,0,,,,,,,,,,,,,,,None,None,None,None,None,937.3787719001994,None,937.3787719001994,None,937.3787719001994,None,937.3787719001994,None,f,0.42235790006816387,937.3787719001994,None,937.3787719001994,None,937.850029299967,None,937.850029299967,None,937.850029299967,None,937.850029299967,None,937.850029299967,None,937.850029299967,None,938.1389167001471,939.5902536001522,938.1389167001471,939.5902536001522,939.6220555000473,None,939.6220555000473,None,939.6220555000473,None,939.6220555000473,None,939.6220555000473,None,939.6220555000473,None,939.6220555000473,None,939.6220555000473,None,939.6220555000473,None,50,52,64,42,52,74,942.146199400071,None,1.0,0.6662270000670105,942.146199400071,None,942.146199400071,None,942.146199400071,None,942.146199400071,None,None,None,942.8279135001358,None,,,,,,,112,f,1,2022_Dec_11_1356,RL,2021.2.3,59.99750411276244,
1,101,0,101,0,,,,,,,,,,,,,,,None,None,None,None,None,944.7170494000893,None,944.7170494000893,None,944.7170494000893,None,944.7170494000893,None,i,0.5840619001537561,944.7170494000893,None,944.7170494000893,None,945.35422320012,None,945.35422320012,None,945.35422320012,None,945.35422320012,None,945.35422320012,None,945.35422320012,None,945.6440125000663,947.5618567001075,945.6440125000663,947.5618567001075,947.5841753999703,None,947.5841753999703,None,947.5841753999703,None,947.5841753999703,None,947.5841753999703,None,947.5841753999703,None,947.5841753999703,None,947.5841753999703,None,947.5841753999703,None,46,57,60,38,60,61,950.106590700103,None,1.0,1.3458116999827325,950.106590700103,None,950.106590700103,None,950.106590700103,None,950.106590700103,None,None,None,951.4673450000118,None,,,,,,,112,f,1,2022_Dec_11_1356,RL,2021.2.3,59.99750411276244,
1,102,0,102,0,,,,,,,,,,,,,,,None,None,None,None,None,953.4033641000278,None,953.4033641000278,None,953.4033641000278,None,953.4033641000278,None,i,0.2982218998949975,953.4033641000278,None,953.4033641000278,None,953.7629503000062,None,953.7629503000062,None,953.7629503000062,None,953.7629503000062,None,953.7629503000062,None,953.7629503000062,None,954.0502596001606,955.4841944000218,954.0502596001606,955.4841944000218,955.518738000188,None,955.518738000188,None,955.518738000188,None,955.518738000188,None,955.518738000188,None,955.518738000188,None,955.518738000188,None,955.518738000188,None,955.518738000188,None,44,49,64,36,64,67,958.0409264999907,None,1.0,0.9149944998789579,958.0409264999907,None,958.0409264999907,None,958.0409264999907,None,958.0409264999907,None,None,None,958.9697702999692,None,,,,,,,112,f,1,2022_Dec_11_1356,RL,2021.2.3,59.99750411276244,
1,103,0,103,0,,,,,,,,,,,,,,,None,None,None,None,None,960.9407293000259,None,960.9407293000259,None,960.9407293000259,None,960.9407293000259,None,j,0.2507651001214981,960.9407293000259,None,960.9407293000259,None,961.2468515001237,None,961.2468515001237,None,961.2468515001237,None,961.2468515001237,None,961.2468515001237,None,961.2468515001237,None,961.5386998001486,963.1730210001115,961.5386998001486,963.1730210001115,963.1958822000306,None,963.1958822000306,None,963.1958822000306,None,963.1958822000306,None,963.1958822000306,None,963.1958822000306,None,963.1958822000306,None,963.1958822000306,None,963.1958822000306,None,44,49,62,46,46,74,965.7283675000072,None,1.0,0.5658660000190139,965.7283675000072,None,965.7283675000072,None,965.7283675000072,None,965.7283675000072,None,None,None,966.3179354001768,None,,,,,,,112,f,1,2022_Dec_11_1356,RL,2021.2.3,59.99750411276244,
1,104,0,104,0,,,,,,,,,,,,,,,None,None,None,None,None,968.1648585000075,None,968.1648585000075,None,968.1648585000075,None,968.1648585000075,None,i,0.28657810017466545,968.1648585000075,None,968.1648585000075,None,968.5102286001202,None,968.5102286001202,None,968.5102286001202,None,968.5102286001202,None,968.5102286001202,None,968.5102286001202,None,968.7936135001946,970.6279379001353,968.7936135001946,970.6279379001353,970.6529473999981,None,970.6529473999981,None,970.6529473999981,None,970.6529473999981,None,970.6529473999981,None,970.6529473999981,None,970.6529473999981,None,970.6529473999981,None,970.6529473999981,None,52,54,59,42,59,77,973.1727654000279,None,1.0,0.7114777998067439,973.1727654000279,None,973.1727654000279,None,973.1727654000279,None,973.1727654000279,None,None,None,973.8971361999866,None,,,,,,,112,f,1,2022_Dec_11_1356,RL,2021.2.3,59.99750411276244,
1,105,0,105,0,,,,,,,,,,,,,,,None,None,None,None,None,975.7647091001272,None,975.7647091001272,None,975.7647091001272,None,975.7647091001272,None,f,0.3567433001007885,975.7647091001272,None,975.7647091001272,None,976.1785546001047,None,976.1785546001047,None,976.1785546001047,None,976.1785546001047,None,976.1785546001047,None,976.1785546001047,None,976.4656240001787,977.7830269001424,976.4656240001787,977.7830269001424,977.8110822001472,None,977.8110822001472,None,977.8110822001472,None,977.8110822001472,None,977.8110822001472,None,977.8110822001472,None,977.8110822001472,None,977.8110822001472,None,977.8110822001472,None,53,55,55,34,55,77,980.3303984000813,None,1.0,0.6052607998717576,980.3303984000813,None,980.3303984000813,None,980.3303984000813,None,980.3303984000813,None,None,None,980.9555740000214,None,,,,,,,112,f,1,2022_Dec_11_1356,RL,2021.2.3,59.99750411276244,
1,106,0,106,0,,,,,,,,,,,,,,,None,None,None,None,None,982.7716008001007,None,982.7716008001007,None,982.7716008001007,None,982.7716008001007,None,r,0.3498815998900682,982.7716008001007,None,982.7716008001007,None,983.164197999984,None,983.164197999984,None,983.164197999984,None,983.164197999984,None,983.164197999984,None,983.164197999984,None,983.4538026000373,984.9212246001698,983.4538026000373,984.9212246001698,984.9426616001874,None,984.9426616001874,None,984.9426616001874,None,984.9426616001874,None,984.9426616001874,None,984.9426616001874,None,984.9426616001874,None,984.9426616001874,None,984.9426616001874,None,53,56,55,41,53,75,987.4731728001498,None,1.0,0.6402985998429358,987.4731728001498,None,987.4731728001498,None,987.4731728001498,None,987.4731728001498,None,None,None,988.1239720999729,None,,,,,,,112,f,1,2022_Dec_11_1356,RL,2021.2.3,59.99750411276244,
1,107,0,107,0,,,,,,,,,,,,,,,None,None,None,None,None,989.8603626000695,None,989.8603626000695,None,989.8603626000695,None,989.8603626000695,None,i,0.3210304998792708,989.8603626000695,None,989.8603626000695,None,990.233048700029,None,990.233048700029,None,990.233048700029,None,990.233048700029,None,990.233048700029,None,990.233048700029,None,990.5253958001267,None,990.5253958001267,None,991.5193437000271,None,991.5193437000271,None,991.5193437000271,None,991.5193437000271,None,991.5193437000271,None,991.5193437000271,None,991.5193437000271,None,991.5193437000271,None,991.5193437000271,None,51,58,55,36,55,81,994.0550628001802,None,1.0,0.5705395000986755,994.0550628001802,None,994.0550628001802,None,994.0550628001802,None,994.0550628001802,None,None,None,994.6308613000438,None,,,,,,,112,f,1,2022_Dec_11_1356,RL,2021.2.3,59.99750411276244,
1,108,0,108,0,,,,,,,,,,,,,,,None,None,None,None,None,996.4985326000024,None,996.4985326000024,None,996.4985326000024,None,996.4985326000024,None,f,0.33302409993484616,996.4985326000024,None,996.4985326000024,None,996.8964790999889,None,996.8964790999889,None,996.8964790999889,None,996.8964790999889,None,996.8964790999889,None,996.8964790999889,None,997.179870299995,998.1474860999733,997.179870299995,998.1474860999733,998.1816563999746,None,998.1816563999746,None,998.1816563999746,None,998.1816563999746,None,998.1816563999746,None,998.1816563999746,None,998.1816563999746,None,998.1816563999746,None,998.1816563999746,None,59,64,57,31,64,72,1000.7007279000245,None,1.0,0.46222919994033873,1000.7007279000245,None,1000.7007279000245,None,1000.7007279000245,None,1000.7007279000245,None,None,None,1001.1948927000631,None,,,,,,,112,f,1,2022_Dec_11_1356,RL,2021.2.3,59.99750411276244,
1,109,0,109,0,,,,,,,,,,,,,,,None,None,None,None,None,1002.720596200088,None,1002.720596200088,None,1002.720596200088,None,1002.720596200088,None,i,0.35209050006233156,1002.720596200088,None,1002.720596200088,None,1003.1175639000721,None,1003.1175639000721,None,1003.1175639000721,None,1003.1175639000721,None,1003.1175639000721,None,1003.1175639000721,None,1003.4175774999894,None,1003.4175774999894,None,1004.3588605001569,None,1004.3588605001569,None,1004.3588605001569,None,1004.3588605001569,None,1004.3588605001569,None,1004.3588605001569,None,1004.3588605001569,None,1004.3588605001569,None,1004.3588605001569,None,59,55,51,36,51,61,1006.8873236000072,None,1.0,0.49124540016055107,1006.8873236000072,None,1006.8873236000072,None,1006.8873236000072,None,1006.8873236000072,None,None,None,1007.3935453000013,None,,,,,,,112,f,1,2022_Dec_11_1356,RL,2021.2.3,59.99750411276244,
1,110,0,110,0,,,,,,,,,,,,,,,None,None,None,None,None,1009.2575017001946,None,1009.2575017001946,None,1009.2575017001946,None,1009.2575017001946,None,i,0.36515889992006123,1009.2575017001946,None,1009.2575017001946,None,1009.6526317000389,None,1009.6526317000389,None,1009.6526317000389,None,1009.6526317000389,None,1009.6526317000389,None,1009.6526317000389,None,1009.9388056001626,None,1009.9388056001626,None,1011.2770355001558,None,1011.2770355001558,None,1011.2770355001558,None,1011.2770355001558,None,1011.2770355001558,None,1011.2770355001558,None,1011.2770355001558,None,1011.2770355001558,None,1011.2770355001558,None,56,64,47,31,47,66,1013.8039524999913,None,1.0,0.4611420000437647,1013.8039524999913,None,1013.8039524999913,None,1013.8039524999913,None,1013.8039524999913,None,None,None,1014.2802183001768,None,,,,,,,112,f,1,2022_Dec_11_1356,RL,2021.2.3,59.99750411276244,
1,111,0,111,0,,,,,,,,,,,,,,,None,None,None,None,None,1016.1950453000609,None,1016.1950453000609,None,1016.1950453000609,None,1016.1950453000609,None,f,0.5878465999849141,1016.1950453000609,None,1016.1950453000609,None,1016.8338831001893,None,1016.8338831001893,None,1016.8338831001893,None,1016.8338831001893,None,1016.8338831001893,None,1016.8338831001893,None,1017.1271652001888,None,1017.1271652001888,None,1018.3730476000346,None,1018.3730476000346,None,1018.3730476000346,None,1018.3730476000346,None,1018.3730476000346,None,1018.3730476000346,None,1018.3730476000346,None,1018.3730476000346,None,1018.3730476000346,None,49,62,47,30,62,63,1020.8891145000234,None,1.0,0.42518220003694296,1020.8891145000234,None,1020.8891145000234,None,1020.8891145000234,None,1020.8891145000234,None,None,None,1021.3295303001069,None,,,,,,,112,f,1,2022_Dec_11_1356,RL,2021.2.3,59.99750411276244,
