bandit,trials.thisRepN,trials.thisTrialN,trials.thisN,trials.thisIndex,instru_img1.started,instru_img1.stopped,instru_resp.keys,instru_resp.rt,instru_resp.started,instru_resp.stopped,instru_img2.started,instru_img2.stopped,instru_resp2.keys,instru_resp2.rt,instru_resp2.started,instru_resp2.stopped,fixbefore_2.started,fixbefore_2.stopped,rest_image.started,rest_image.stopped,rest_response.keys,rest_response.started,rest_response.stopped,red.started,red.stopped,green.started,green.stopped,yellow.started,yellow.stopped,blue.started,blue.stopped,choose_bandit.keys,choose_bandit.rt,choose_bandit.started,choose_bandit.stopped,Fixation.started,Fixation.stopped,black.started,black.stopped,red_2.started,red_2.stopped,green_2.started,green_2.stopped,yellow_2.started,yellow_2.stopped,blue_2.started,blue_2.stopped,fixation_2.started,fixation_2.stopped,docs.started,docs.stopped,image_2.started,image_2.stopped,black_com.started,black_com.stopped,reward_sub.started,reward_sub.stopped,palyerb.started,palyerb.stopped,reward__sub.started,reward__sub.stopped,compare.started,compare.stopped,red_compare.started,red_compare.stopped,green_com.started,green_com.stopped,yellow_com.started,yellow_com.stopped,blue_com.started,blue_com.stopped,rewardyellow,rewardred,rewardblue,rewardgreen,subchoose,playerb,image_3.started,image_3.stopped,slider.response,slider.rt,slider.started,slider.stopped,text.started,text.stopped,image_4.started,image_4.stopped,image_5.started,image_5.stopped,bigx.started,bigx.stopped,intertrialfix.started,intertrialfix.stopped,rest_response.rt,image.started,image.stopped,key_resp.keys,key_resp.started,key_resp.stopped,participant,Gender,Age,date,expName,psychopyVersion,frameRate,
,,,,,1565.0809819998685,None,space,19.260518899885938,1565.0809819998685,None,,,,,,,,,,,,,,,,,,,,,,,,,,,,,,,,,,,,,,,,,,,,,,,,,,,,,,,,,,,,,,,,,,,,,,,,,,,,,,,,,,,,,,,,,,113,f,23,2022_Dec_11_1449,RL,2021.2.3,59.90782585654145,
,,,,,,,,,,,1584.3705718999263,None,space,58.02992379991338,1584.3705718999263,None,,,,,,,,,,,,,,,,,,,,,,,,,,,,,,,,,,,,,,,,,,,,,,,,,,,,,,,,,,,,,,,,,,,,,,,,,,,,,,,,,,,,113,f,23,2022_Dec_11_1449,RL,2021.2.3,59.90782585654145,
1,0,0,0,0,,,,,,,,,,,,,1642.4395528999157,None,None,None,None,None,None,1643.4582667998038,None,1643.4582667998038,None,1643.4582667998038,None,1643.4582667998038,None,f,0.37960859993472695,1643.4582667998038,None,1643.4582667998038,None,1643.8895605998114,None,1643.8895605998114,None,1643.8895605998114,None,1643.8895605998114,None,1643.8895605998114,None,1643.8895605998114,None,1644.1768192998134,1645.1107934999745,1644.1768192998134,1645.1107934999745,1645.1489806999452,None,1645.1489806999452,None,1645.1489806999452,None,1645.1489806999452,None,1645.1489806999452,None,1645.1489806999452,None,1645.1489806999452,None,1645.1489806999452,None,1645.1489806999452,None,71,43,59,25,43,34,1647.6857982999645,None,6.0,3.1705876998603344,1647.6857982999645,None,1647.6857982999645,None,1647.6857982999645,None,1647.6857982999645,None,None,None,1650.890675399918,None,,,,,,,113,f,23,2022_Dec_11_1449,RL,2021.2.3,59.90782585654145,
1,1,0,1,0,,,,,,,,,,,,,,,None,None,None,None,None,1652.7858827998862,None,1652.7858827998862,None,1652.7858827998862,None,1652.7858827998862,None,i,0.3619500999338925,1652.7858827998862,None,1652.7858827998862,None,1653.1954836999066,None,1653.1954836999066,None,1653.1954836999066,None,1653.1954836999066,None,1653.1954836999066,None,1653.1954836999066,None,1653.4831911998335,None,1653.4831911998335,None,1655.454522299813,None,1655.454522299813,None,1655.454522299813,None,1655.454522299813,None,1655.454522299813,None,1655.454522299813,None,1655.454522299813,None,1655.454522299813,None,1655.454522299813,None,71,44,57,24,57,48,1657.9664856998716,None,6.0,1.2538774001877755,1657.9664856998716,None,1657.9664856998716,None,1657.9664856998716,None,1657.9664856998716,None,None,None,1659.2365215998143,None,,,,,,,113,f,23,2022_Dec_11_1449,RL,2021.2.3,59.90782585654145,
1,2,0,2,0,,,,,,,,,,,,,,,None,None,None,None,None,1661.1411731999833,None,1661.1411731999833,None,1661.1411731999833,None,1661.1411731999833,None,j,0.43652550014667213,1661.1411731999833,None,1661.1411731999833,None,1661.631507499842,None,1661.631507499842,None,1661.631507499842,None,1661.631507499842,None,1661.631507499842,None,1661.631507499842,None,1661.9223750999663,None,1661.9223750999663,None,1663.9499555998482,None,1663.9499555998482,None,1663.9499555998482,None,1663.9499555998482,None,1663.9499555998482,None,1663.9499555998482,None,1663.9499555998482,None,1663.9499555998482,None,1663.9499555998482,None,59,51,48,20,20,48,1666.454321899917,None,5.0,1.757778299972415,1666.454321899917,None,1666.454321899917,None,1666.454321899917,None,1666.454321899917,None,None,None,1668.229871599935,None,,,,,,,113,f,23,2022_Dec_11_1449,RL,2021.2.3,59.90782585654145,
1,3,0,3,0,,,,,,,,,,,,,,,None,None,None,None,None,1670.0975424000062,None,1670.0975424000062,None,1670.0975424000062,None,1670.0975424000062,None,r,0.5905769001692533,1670.0975424000062,None,1670.0975424000062,None,1670.733108599903,None,1670.733108599903,None,1670.733108599903,None,1670.733108599903,None,1670.733108599903,None,1670.733108599903,None,1671.0286183999851,1672.879852899816,1671.0286183999851,1672.879852899816,1672.921027999837,None,1672.921027999837,None,1672.921027999837,None,1672.921027999837,None,1672.921027999837,None,1672.921027999837,None,1672.921027999837,None,1672.921027999837,None,1672.921027999837,None,62,45,49,20,62,60,1675.4536488000304,None,5.0,1.3519013000186533,1675.4536488000304,None,1675.4536488000304,None,1675.4536488000304,None,1675.4536488000304,None,None,None,1676.815796899842,None,,,,,,,113,f,23,2022_Dec_11_1449,RL,2021.2.3,59.90782585654145,
1,4,0,4,0,,,,,,,,,,,,,,,None,None,None,None,None,1678.6036353998352,None,1678.6036353998352,None,1678.6036353998352,None,1678.6036353998352,None,f,0.3952775001525879,1678.6036353998352,None,1678.6036353998352,None,1679.039662499912,None,1679.039662499912,None,1679.039662499912,None,1679.039662499912,None,1679.039662499912,None,1679.039662499912,None,1679.3344133999199,1680.852299100021,1679.3344133999199,1680.852299100021,1680.8851821999997,None,1680.8851821999997,None,1680.8851821999997,None,1680.8851821999997,None,1680.8851821999997,None,1680.8851821999997,None,1680.8851821999997,None,1680.8851821999997,None,1680.8851821999997,None,68,32,48,17,32,69,1683.39703179989,None,5.0,1.5231145001016557,1683.39703179989,None,1683.39703179989,None,1683.39703179989,None,1683.39703179989,None,None,None,1684.938533199951,None,,,,,,,113,f,23,2022_Dec_11_1449,RL,2021.2.3,59.90782585654145,
1,5,0,5,0,,,,,,,,,,,,,,,None,None,None,None,None,1686.5588801000267,None,1686.5588801000267,None,1686.5588801000267,None,1686.5588801000267,None,j,0.7698830999433994,1686.5588801000267,None,1686.5588801000267,None,1687.3817029998172,None,1687.3817029998172,None,1687.3817029998172,None,1687.3817029998172,None,1687.3817029998172,None,1687.3817029998172,None,1687.6735700999852,None,1687.6735700999852,None,1688.928690199973,None,1688.928690199973,None,1688.928690199973,None,1688.928690199973,None,1688.928690199973,None,1688.928690199973,None,1688.928690199973,None,1688.928690199973,None,1688.928690199973,None,71,41,47,20,20,78,1691.4581114000175,None,5.0,1.7679379999171942,1691.4581114000175,None,1691.4581114000175,None,1691.4581114000175,None,1691.4581114000175,None,None,None,1693.2439369999338,None,,,,,,,113,f,23,2022_Dec_11_1449,RL,2021.2.3,59.90782585654145,
1,6,0,6,0,,,,,,,,,,,,,,,None,None,None,None,None,1695.0650875999127,None,1695.0650875999127,None,1695.0650875999127,None,1695.0650875999127,None,r,0.47382630011998117,1695.0650875999127,None,1695.0650875999127,None,1695.5848685000092,None,1695.5848685000092,None,1695.5848685000092,None,1695.5848685000092,None,1695.5848685000092,None,1695.5848685000092,None,1695.87926899991,1697.546861599898,1695.87926899991,1697.546861599898,1697.5823770000134,None,1697.5823770000134,None,1697.5823770000134,None,1697.5823770000134,None,1697.5823770000134,None,1697.5823770000134,None,1697.5823770000134,None,1697.5823770000134,None,1697.5823770000134,None,60,39,53,26,60,74,1700.1053708000109,None,5.0,2.50024770013988,1700.1053708000109,None,1700.1053708000109,None,1700.1053708000109,None,1700.1053708000109,None,None,None,1702.6167875998653,None,,,,,,,113,f,23,2022_Dec_11_1449,RL,2021.2.3,59.90782585654145,
1,7,0,7,0,,,,,,,,,,,,,,,None,None,None,None,None,1704.5041360999458,None,1704.5041360999458,None,1704.5041360999458,None,1704.5041360999458,None,f,0.49487539986148477,1704.5041360999458,None,1704.5041360999458,None,1705.0399553999305,None,1705.0399553999305,None,1705.0399553999305,None,1705.0399553999305,None,1705.0399553999305,None,1705.0399553999305,None,1705.3357657999732,None,1705.3357657999732,None,1706.9573197998106,None,1706.9573197998106,None,1706.9573197998106,None,1706.9573197998106,None,1706.9573197998106,None,1706.9573197998106,None,1706.9573197998106,None,1706.9573197998106,None,1706.9573197998106,None,67,35,44,17,35,81,1709.466887800023,None,4.0,1.5712818999309093,1709.466887800023,None,1709.466887800023,None,1709.466887800023,None,1709.466887800023,None,None,None,1711.0559353998397,None,,,,,,,113,f,23,2022_Dec_11_1449,RL,2021.2.3,59.90782585654145,
1,8,0,8,0,,,,,,,,,,,,,,,None,None,None,None,None,1712.8930976998527,None,1712.8930976998527,None,1712.8930976998527,None,1712.8930976998527,None,j,0.6761302999220788,1712.8930976998527,None,1712.8930976998527,None,1713.6127503998578,None,1713.6127503998578,None,1713.6127503998578,None,1713.6127503998578,None,1713.6127503998578,None,1713.6127503998578,None,1713.908673599828,1715.8262393998448,1713.908673599828,1715.8262393998448,1715.858782300027,None,1715.858782300027,None,1715.858782300027,None,1715.858782300027,None,1715.858782300027,None,1715.858782300027,None,1715.858782300027,None,1715.858782300027,None,1715.858782300027,None,69,38,37,18,18,83,1718.3762260999065,None,3.0,1.688811499858275,1718.3762260999065,None,1718.3762260999065,None,1718.3762260999065,None,1718.3762260999065,None,None,None,1720.0825574998744,None,,,,,,,113,f,23,2022_Dec_11_1449,RL,2021.2.3,59.90782585654145,
1,9,0,9,0,,,,,,,,,,,,,,,None,None,None,None,None,1721.6499244000297,None,1721.6499244000297,None,1721.6499244000297,None,1721.6499244000297,None,r,0.489116899902001,1721.6499244000297,None,1721.6499244000297,None,1722.184790499974,None,1722.184790499974,None,1722.184790499974,None,1722.184790499974,None,1722.184790499974,None,1722.184790499974,None,1722.4810531998519,None,1722.4810531998519,None,1724.4331743000075,None,1724.4331743000075,None,1724.4331743000075,None,1724.4331743000075,None,1724.4331743000075,None,1724.4331743000075,None,1724.4331743000075,None,1724.4331743000075,None,1724.4331743000075,None,61,28,37,14,61,79,1726.9449526998214,None,4.0,2.7885807999409735,1726.9449526998214,None,1726.9449526998214,None,1726.9449526998214,None,1726.9449526998214,None,None,None,1729.7533966000192,None,,,,,,,113,f,23,2022_Dec_11_1449,RL,2021.2.3,59.90782585654145,
1,10,0,10,0,,,,,,,,,,,,,,,None,None,None,None,None,1731.523121399805,None,1731.523121399805,None,1731.523121399805,None,1731.523121399805,None,j,0.40609519998542964,1731.523121399805,None,1731.523121399805,None,1731.9758581998758,None,1731.9758581998758,None,1731.9758581998758,None,1731.9758581998758,None,1731.9758581998758,None,1731.9758581998758,None,1732.2710869999137,None,1732.2710869999137,None,1733.5859532998875,None,1733.5859532998875,None,1733.5859532998875,None,1733.5859532998875,None,1733.5859532998875,None,1733.5859532998875,None,1733.5859532998875,None,1733.5859532998875,None,1733.5859532998875,None,59,35,51,15,15,81,1736.111031099921,None,5.0,1.8823561000172049,1736.111031099921,None,1736.111031099921,None,1736.111031099921,None,1736.111031099921,None,None,None,1738.0134820998646,None,,,,,,,113,f,23,2022_Dec_11_1449,RL,2021.2.3,59.90782585654145,
1,11,0,11,0,,,,,,,,,,,,,,,None,None,None,None,None,1739.8456894999836,None,1739.8456894999836,None,1739.8456894999836,None,1739.8456894999836,None,i,1.0837256000377238,1739.8456894999836,None,1739.8456894999836,None,1740.982558199903,None,1740.982558199903,None,1740.982558199903,None,1740.982558199903,None,1740.982558199903,None,1740.982558199903,None,1741.2774212998338,None,1741.2774212998338,None,1742.2651003999636,None,1742.2651003999636,None,1742.2651003999636,None,1742.2651003999636,None,1742.2651003999636,None,1742.2651003999636,None,1742.2651003999636,None,1742.2651003999636,None,1742.2651003999636,None,63,36,48,14,48,73,1744.774682899937,None,5.0,1.38891930016689,1744.774682899937,None,1744.774682899937,None,1744.774682899937,None,1744.774682899937,None,None,None,1746.180124499835,None,,,,,,,113,f,23,2022_Dec_11_1449,RL,2021.2.3,59.90782585654145,
1,12,0,12,0,,,,,,,,,,,,,,,None,None,None,None,None,1747.8851335998625,None,1747.8851335998625,None,1747.8851335998625,None,1747.8851335998625,None,f,0.7341571000870317,1747.8851335998625,None,1747.8851335998625,None,1748.670610100031,None,1748.670610100031,None,1748.670610100031,None,1748.670610100031,None,1748.670610100031,None,1748.670610100031,None,1748.9661420998164,1750.5171264000237,1748.9661420998164,1750.5171264000237,1750.5466855999548,None,1750.5466855999548,None,1750.5466855999548,None,1750.5466855999548,None,1750.5466855999548,None,1750.5466855999548,None,1750.5466855999548,None,1750.5466855999548,None,1750.5466855999548,None,58,24,50,27,24,71,1753.0653619999066,None,4.0,1.0927424000110477,1753.0653619999066,None,1753.0653619999066,None,1753.0653619999066,None,1753.0653619999066,None,None,None,1754.169158599805,None,,,,,,,113,f,23,2022_Dec_11_1449,RL,2021.2.3,59.90782585654145,
1,13,0,13,0,,,,,,,,,,,,,,,None,None,None,None,None,1755.7902015999425,None,1755.7902015999425,None,1755.7902015999425,None,1755.7902015999425,None,r,0.4689109001774341,1755.7902015999425,None,1755.7902015999425,None,1756.3103143998887,None,1756.3103143998887,None,1756.3103143998887,None,1756.3103143998887,None,1756.3103143998887,None,1756.3103143998887,None,1756.6047508998308,None,1756.6047508998308,None,1758.3187716000248,None,1758.3187716000248,None,1758.3187716000248,None,1758.3187716000248,None,1758.3187716000248,None,1758.3187716000248,None,1758.3187716000248,None,1758.3187716000248,None,1758.3187716000248,None,66,31,46,18,66,80,1760.8367257998325,None,3.0,0.6892772999126464,1760.8367257998325,None,1760.8367257998325,None,1760.8367257998325,None,1760.8367257998325,None,None,None,1761.5440611999948,None,,,,,,,113,f,23,2022_Dec_11_1449,RL,2021.2.3,59.90782585654145,
1,14,0,14,0,,,,,,,,,,,,,,,None,None,None,None,None,1763.4124041998293,None,1763.4124041998293,None,1763.4124041998293,None,1763.4124041998293,None,j,0.6270233001559973,1763.4124041998293,None,1763.4124041998293,None,1764.0816585998982,None,1764.0816585998982,None,1764.0816585998982,None,1764.0816585998982,None,1764.0816585998982,None,1764.0816585998982,None,1764.3770355999004,None,1764.3770355999004,None,1766.0280490999576,None,1766.0280490999576,None,1766.0280490999576,None,1766.0280490999576,None,1766.0280490999576,None,1766.0280490999576,None,1766.0280490999576,None,1766.0280490999576,None,1766.0280490999576,None,60,26,47,28,28,84,1768.5428520999849,None,3.0,0.6385751001071185,1768.5428520999849,None,1768.5428520999849,None,1768.5428520999849,None,1768.5428520999849,None,None,None,1769.2037386999,None,,,,,,,113,f,23,2022_Dec_11_1449,RL,2021.2.3,59.90782585654145,
1,15,0,15,0,,,,,,,,,,,,,,,None,None,None,None,None,1770.767845199909,None,1770.767845199909,None,1770.767845199909,None,1770.767845199909,None,i,0.44148590019904077,1770.767845199909,None,1770.767845199909,None,1771.2537080999464,None,1771.2537080999464,None,1771.2537080999464,None,1771.2537080999464,None,1771.2537080999464,None,1771.2537080999464,None,1771.5487790999468,1772.4321367999073,1771.5487790999468,1772.4321367999073,1772.465435500024,None,1772.465435500024,None,1772.465435500024,None,1772.465435500024,None,1772.465435500024,None,1772.465435500024,None,1772.465435500024,None,1772.465435500024,None,1772.465435500024,None,58,20,57,28,57,77,1774.985618099803,None,3.0,2.0362368000205606,1774.985618099803,None,1774.985618099803,None,1774.985618099803,None,1774.985618099803,None,None,None,1777.0370191999245,None,,,,,,,113,f,23,2022_Dec_11_1449,RL,2021.2.3,59.90782585654145,
1,16,0,16,0,,,,,,,,,,,,,,,None,None,None,None,None,1778.7232906999998,None,1778.7232906999998,None,1778.7232906999998,None,1778.7232906999998,None,r,0.4361492998432368,1778.7232906999998,None,1778.7232906999998,None,1779.2077968998346,None,1779.2077968998346,None,1779.2077968998346,None,1779.2077968998346,None,1779.2077968998346,None,1779.2077968998346,None,1779.5039026997983,1780.8546511998866,1779.5039026997983,1780.8546511998866,1780.8872663998045,None,1780.8872663998045,None,1780.8872663998045,None,1780.8872663998045,None,1780.8872663998045,None,1780.8872663998045,None,1780.8872663998045,None,1780.8872663998045,None,1780.8872663998045,None,70,41,48,23,70,75,1783.4007711999584,None,4.0,2.7723030999768525,1783.4007711999584,None,1783.4007711999584,None,1783.4007711999584,None,1783.4007711999584,None,None,None,1786.1919744999614,None,,,,,,,113,f,23,2022_Dec_11_1449,RL,2021.2.3,59.90782585654145,
1,17,0,17,0,,,,,,,,,,,,,,,None,None,None,None,None,1787.862415399868,None,1787.862415399868,None,1787.862415399868,None,1787.862415399868,None,f,0.3971430000383407,1787.862415399868,None,1787.862415399868,None,1788.3019061000086,None,1788.3019061000086,None,1788.3019061000086,None,1788.3019061000086,None,1788.3019061000086,None,1788.3019061000086,None,1788.5935547999106,None,1788.5935547999106,None,1790.0241096999962,None,1790.0241096999962,None,1790.0241096999962,None,1790.0241096999962,None,1790.0241096999962,None,1790.0241096999962,None,1790.0241096999962,None,1790.0241096999962,None,1790.0241096999962,None,61,39,45,11,39,66,1792.5456000999548,None,4.0,1.5033946000039577,1792.5456000999548,None,1792.5456000999548,None,1792.5456000999548,None,1792.5456000999548,None,None,None,1794.0633232998662,None,,,,,,,113,f,23,2022_Dec_11_1449,RL,2021.2.3,59.90782585654145,
1,18,0,18,0,,,,,,,,,,,,,,,None,None,None,None,None,1795.9002253999934,None,1795.9002253999934,None,1795.9002253999934,None,1795.9002253999934,None,i,0.3890947001054883,1795.9002253999934,None,1795.9002253999934,None,1796.338693199912,None,1796.338693199912,None,1796.338693199912,None,1796.338693199912,None,1796.338693199912,None,1796.338693199912,None,1796.6324229999445,None,1796.6324229999445,None,1797.5797904999927,None,1797.5797904999927,None,1797.5797904999927,None,1797.5797904999927,None,1797.5797904999927,None,1797.5797904999927,None,1797.5797904999927,None,1797.5797904999927,None,1797.5797904999927,None,49,34,46,15,46,72,1800.101765899919,None,4.0,1.0684938998892903,1800.101765899919,None,1800.101765899919,None,1800.101765899919,None,1800.101765899919,None,None,None,1801.1864738999866,None,,,,,,,113,f,23,2022_Dec_11_1449,RL,2021.2.3,59.90782585654145,
1,19,0,19,0,,,,,,,,,,,,,,,None,None,None,None,None,1803.1736649000086,None,1803.1736649000086,None,1803.1736649000086,None,1803.1736649000086,None,j,0.41612849989905953,1803.1736649000086,None,1803.1736649000086,None,1803.6401355999988,None,1803.6401355999988,None,1803.6401355999988,None,1803.6401355999988,None,1803.6401355999988,None,1803.6401355999988,None,1803.937581999926,None,1803.937581999926,None,1805.3529373998754,None,1805.3529373998754,None,1805.3529373998754,None,1805.3529373998754,None,1805.3529373998754,None,1805.3529373998754,None,1805.3529373998754,None,1805.3529373998754,None,1805.3529373998754,None,56,26,46,19,19,71,1807.875669799978,None,2.0,1.2178634000010788,1807.875669799978,None,1807.875669799978,None,1807.875669799978,None,1807.875669799978,None,None,None,1809.1075350998435,None,,,,,,,113,f,23,2022_Dec_11_1449,RL,2021.2.3,59.90782585654145,
1,20,0,20,0,,,,,,,,,,,,,,,None,None,None,None,None,1810.862004699884,None,1810.862004699884,None,1810.862004699884,None,1810.862004699884,None,r,0.31759259989485145,1810.862004699884,None,1810.862004699884,None,1811.234573799884,None,1811.234573799884,None,1811.234573799884,None,1811.234573799884,None,1811.234573799884,None,1811.234573799884,None,1811.5260073998943,None,1811.5260073998943,None,1813.1562826998997,None,1813.1562826998997,None,1813.1562826998997,None,1813.1562826998997,None,1813.1562826998997,None,1813.1562826998997,None,1813.1562826998997,None,1813.1562826998997,None,1813.1562826998997,None,60,24,47,21,60,72,1815.6779765000101,None,3.0,3.1358171000611037,1815.6779765000101,None,1815.6779765000101,None,1815.6779765000101,None,1815.6779765000101,None,None,None,1818.8315646999981,None,,,,,,,113,f,23,2022_Dec_11_1449,RL,2021.2.3,59.90782585654145,
1,21,0,21,0,,,,,,,,,,,,,,,None,None,None,None,None,1820.4016754999757,None,1820.4016754999757,None,1820.4016754999757,None,1820.4016754999757,None,j,0.8584002999123186,1820.4016754999757,None,1820.4016754999757,None,1821.3033652999438,None,1821.3033652999438,None,1821.3033652999438,None,1821.3033652999438,None,1821.3033652999438,None,1821.3033652999438,None,1821.5998680000193,1822.6503514000215,1821.5998680000193,1822.6503514000215,1822.680407000007,None,1822.680407000007,None,1822.680407000007,None,1822.680407000007,None,1822.680407000007,None,1822.680407000007,None,1822.680407000007,None,1822.680407000007,None,1822.680407000007,None,53,28,53,17,17,62,1825.1970328998286,None,3.0,1.3391128999646753,1825.1970328998286,None,1825.1970328998286,None,1825.1970328998286,None,1825.1970328998286,None,None,None,1826.5535903000273,None,,,,,,,113,f,23,2022_Dec_11_1449,RL,2021.2.3,59.90782585654145,
1,22,0,22,0,,,,,,,,,,,,,,,None,None,None,None,None,1828.173560099909,None,1828.173560099909,None,1828.173560099909,None,1828.173560099909,None,i,0.8559810998849571,1828.173560099909,None,1828.173560099909,None,1829.0757078998722,None,1829.0757078998722,None,1829.0757078998722,None,1829.0757078998722,None,1829.0757078998722,None,1829.0757078998722,None,1829.371963299811,1831.3063291998114,1829.371963299811,1831.3063291998114,1831.3443082999438,None,1831.3443082999438,None,1831.3443082999438,None,1831.3443082999438,None,1831.3443082999438,None,1831.3443082999438,None,1831.3443082999438,None,1831.3443082999438,None,1831.3443082999438,None,54,21,45,10,45,64,1833.8534801998176,None,3.0,0.788068599998951,1833.8534801998176,None,1833.8534801998176,None,1833.8534801998176,None,1833.8534801998176,None,None,None,1834.6586743998341,None,,,,,,,113,f,23,2022_Dec_11_1449,RL,2021.2.3,59.90782585654145,
1,23,0,23,0,,,,,,,,,,,,,,,None,None,None,None,None,1836.6130770999007,None,1836.6130770999007,None,1836.6130770999007,None,1836.6130770999007,None,f,0.3767109999898821,1836.6130770999007,None,1836.6130770999007,None,1837.0350688998587,None,1837.0350688998587,None,1837.0350688998587,None,1837.0350688998587,None,1837.0350688998587,None,1837.0350688998587,None,1837.3273079998326,1838.278059899807,1837.3273079998326,1838.278059899807,1838.3152920999564,None,1838.3152920999564,None,1838.3152920999564,None,1838.3152920999564,None,1838.3152920999564,None,1838.3152920999564,None,1838.3152920999564,None,1838.3152920999564,None,1838.3152920999564,None,55,21,42,20,21,68,1840.8493896999862,None,3.0,0.750616000033915,1840.8493896999862,None,1840.8493896999862,None,1840.8493896999862,None,1840.8493896999862,None,None,None,1841.619738599984,None,,,,,,,113,f,23,2022_Dec_11_1449,RL,2021.2.3,59.90782585654145,
1,24,0,24,0,,,,,,,,,,,,,,,None,None,None,None,None,1843.3995338999666,None,1843.3995338999666,None,1843.3995338999666,None,1843.3995338999666,None,i,0.35020610014908016,1843.3995338999666,None,1843.3995338999666,None,1843.7852182998322,None,1843.7852182998322,None,1843.7852182998322,None,1843.7852182998322,None,1843.7852182998322,None,1843.7852182998322,None,1844.082115399884,None,1844.082115399884,None,1844.948059399845,None,1844.948059399845,None,1844.948059399845,None,1844.948059399845,None,1844.948059399845,None,1844.948059399845,None,1844.948059399845,None,1844.948059399845,None,1844.948059399845,None,55,29,36,13,36,65,1847.460922600003,None,3.0,0.7083857001271099,1847.460922600003,None,1847.460922600003,None,1847.460922600003,None,1847.460922600003,None,None,None,1848.1849175000098,None,,,,,,,113,f,23,2022_Dec_11_1449,RL,2021.2.3,59.90782585654145,
1,25,0,25,0,,,,,,,,,,,,,,,None,None,None,None,None,1849.7557297998574,None,1849.7557297998574,None,1849.7557297998574,None,1849.7557297998574,None,j,0.3643869000952691,1849.7557297998574,None,1849.7557297998574,None,1850.1579260998406,None,1850.1579260998406,None,1850.1579260998406,None,1850.1579260998406,None,1850.1579260998406,None,1850.1579260998406,None,1850.453059699852,1852.1373929998372,1850.453059699852,1852.1373929998372,1852.1676825999748,None,1852.1676825999748,None,1852.1676825999748,None,1852.1676825999748,None,1852.1676825999748,None,1852.1676825999748,None,1852.1676825999748,None,1852.1676825999748,None,1852.1676825999748,None,61,14,34,5,5,54,1854.6836521998048,None,2.0,0.8241999000310898,1854.6836521998048,None,1854.6836521998048,None,1854.6836521998048,None,1854.6836521998048,None,None,None,1855.5320607998874,None,,,,,,,113,f,23,2022_Dec_11_1449,RL,2021.2.3,59.90782585654145,
1,26,0,26,0,,,,,,,,,,,,,,,None,None,None,None,None,1857.1436482998542,None,1857.1436482998542,None,1857.1436482998542,None,1857.1436482998542,None,r,0.3361317999660969,1857.1436482998542,None,1857.1436482998542,None,1857.5282039998565,None,1857.5282039998565,None,1857.5282039998565,None,1857.5282039998565,None,1857.5282039998565,None,1857.5282039998565,None,1857.8249213998206,1859.1923891999759,1857.8249213998206,1859.1923891999759,1859.2244766999502,None,1859.2244766999502,None,1859.2244766999502,None,1859.2244766999502,None,1859.2244766999502,None,1859.2244766999502,None,1859.2244766999502,None,1859.2244766999502,None,1859.2244766999502,None,52,17,40,14,52,50,1861.7425913999323,None,4.0,1.9204158999491483,1861.7425913999323,None,1861.7425913999323,None,1861.7425913999323,None,1861.7425913999323,None,None,None,1863.6787607998122,None,,,,,,,113,f,23,2022_Dec_11_1449,RL,2021.2.3,59.90782585654145,
1,27,0,27,0,,,,,,,,,,,,,,,None,None,None,None,None,1865.2491945999209,None,1865.2491945999209,None,1865.2491945999209,None,1865.2491945999209,None,i,0.37055680016055703,1865.2491945999209,None,1865.2491945999209,None,1865.6679722999688,None,1865.6679722999688,None,1865.6679722999688,None,1865.6679722999688,None,1865.6679722999688,None,1865.6679722999688,None,1865.9638688999694,1867.6815172999632,1865.9638688999694,1867.6815172999632,1867.7113419999368,None,1867.7113419999368,None,1867.7113419999368,None,1867.7113419999368,None,1867.7113419999368,None,1867.7113419999368,None,1867.7113419999368,None,1867.7113419999368,None,1867.7113419999368,None,52,18,41,10,41,67,1870.2302057999186,None,4.0,2.3388233000878245,1870.2302057999186,None,1870.2302057999186,None,1870.2302057999186,None,1870.2302057999186,None,None,None,1872.5845436998643,None,,,,,,,113,f,23,2022_Dec_11_1449,RL,2021.2.3,59.90782585654145,
1,28,0,28,0,,,,,,,,,,,,,,,None,None,None,None,None,1874.4059254999738,None,1874.4059254999738,None,1874.4059254999738,None,1874.4059254999738,None,f,0.38503829995170236,1874.4059254999738,None,1874.4059254999738,None,1874.8419376998208,None,1874.8419376998208,None,1874.8419376998208,None,1874.8419376998208,None,1874.8419376998208,None,1874.8419376998208,None,1875.1368897999637,None,1875.1368897999637,None,1876.1579747998621,None,1876.1579747998621,None,1876.1579747998621,None,1876.1579747998621,None,1876.1579747998621,None,1876.1579747998621,None,1876.1579747998621,None,1876.1579747998621,None,1876.1579747998621,None,61,29,48,20,29,68,1878.6857610000297,None,2.0,0.8893075999803841,1878.6857610000297,None,1878.6857610000297,None,1878.6857610000297,None,1878.6857610000297,None,None,None,1879.5894460999407,None,,,,,,,113,f,23,2022_Dec_11_1449,RL,2021.2.3,59.90782585654145,
1,29,0,29,0,,,,,,,,,,,,,,,None,None,None,None,None,1881.0925038999412,None,1881.0925038999412,None,1881.0925038999412,None,1881.0925038999412,None,r,0.44868439994752407,1881.0925038999412,None,1881.0925038999412,None,1881.580111999996,None,1881.580111999996,None,1881.580111999996,None,1881.580111999996,None,1881.580111999996,None,1881.580111999996,None,1881.8749090000056,None,1881.8749090000056,None,1883.761773899896,None,1883.761773899896,None,1883.761773899896,None,1883.761773899896,None,1883.761773899896,None,1883.761773899896,None,1883.761773899896,None,1883.761773899896,None,1883.761773899896,None,49,26,46,22,49,71,1886.2760800998658,None,2.0,0.7682906999252737,1886.2760800998658,None,1886.2760800998658,None,1886.2760800998658,None,1886.2760800998658,None,None,None,1887.0612078998238,None,,,,,,,113,f,23,2022_Dec_11_1449,RL,2021.2.3,59.90782585654145,
1,30,0,30,0,,,,,,,,,,,,,,,None,None,None,None,None,1888.7162800999358,None,1888.7162800999358,None,1888.7162800999358,None,1888.7162800999358,None,j,0.4045563000254333,1888.7162800999358,None,1888.7162800999358,None,1889.17170549999,None,1889.17170549999,None,1889.17170549999,None,1889.17170549999,None,1889.17170549999,None,1889.17170549999,None,1889.4634061998222,1891.2645248998888,1889.4634061998222,1891.2645248998888,1891.3019436998293,None,1891.3019436998293,None,1891.3019436998293,None,1891.3019436998293,None,1891.3019436998293,None,1891.3019436998293,None,1891.3019436998293,None,1891.3019436998293,None,1891.3019436998293,None,54,27,50,26,26,68,1893.8153692998458,None,2.0,0.6665095998905599,1893.8153692998458,None,1893.8153692998458,None,1893.8153692998458,None,1893.8153692998458,None,None,None,1894.5014908998273,None,,,,,,,113,f,23,2022_Dec_11_1449,RL,2021.2.3,59.90782585654145,
1,31,0,31,0,,,,,,,,,,,,,,,None,None,None,None,None,1896.4047212998848,None,1896.4047212998848,None,1896.4047212998848,None,1896.4047212998848,None,i,0.4466053999494761,1896.4047212998848,None,1896.4047212998848,None,1896.8916817000136,None,1896.8916817000136,None,1896.8916817000136,None,1896.8916817000136,None,1896.8916817000136,None,1896.8916817000136,None,1897.1856863999274,None,1897.1856863999274,None,1898.7171145998873,None,1898.7171145998873,None,1898.7171145998873,None,1898.7171145998873,None,1898.7171145998873,None,1898.7171145998873,None,1898.7171145998873,None,1898.7171145998873,None,1898.7171145998873,None,47,24,49,31,49,60,1901.239540199982,None,2.0,0.8192480001598597,1901.239540199982,None,1901.239540199982,None,1901.239540199982,None,1901.239540199982,None,None,None,1902.0716259998735,None,,,,,,,113,f,23,2022_Dec_11_1449,RL,2021.2.3,59.90782585654145,
1,32,0,32,0,,,,,,,,,,,,,,,None,None,None,None,None,1903.9432188998908,None,1903.9432188998908,None,1903.9432188998908,None,1903.9432188998908,None,f,0.5178110999986529,1903.9432188998908,None,1903.9432188998908,None,1904.5106754000299,None,1904.5106754000299,None,1904.5106754000299,None,1904.5106754000299,None,1904.5106754000299,None,1904.5106754000299,None,1904.8073882998433,None,1904.8073882998433,None,1906.3216470999178,None,1906.3216470999178,None,1906.3216470999178,None,1906.3216470999178,None,1906.3216470999178,None,1906.3216470999178,None,1906.3216470999178,None,1906.3216470999178,None,1906.3216470999178,None,48,19,46,33,19,58,1908.8442110000178,None,2.0,0.5698357000946999,1908.8442110000178,None,1908.8442110000178,None,1908.8442110000178,None,1908.8442110000178,None,None,None,1909.4278054998722,None,,,,,,,113,f,23,2022_Dec_11_1449,RL,2021.2.3,59.90782585654145,
1,33,0,33,0,,,,,,,,,,,,,,,None,None,None,None,None,1911.231231499929,None,1911.231231499929,None,1911.231231499929,None,1911.231231499929,None,r,0.43008920014835894,1911.231231499929,None,1911.231231499929,None,1911.7056263999548,None,1911.7056263999548,None,1911.7056263999548,None,1911.7056263999548,None,1911.7056263999548,None,1911.7056263999548,None,1911.9959213000257,1913.3798435998615,1911.9959213000257,1913.3798435998615,1913.4114016999956,None,1913.4114016999956,None,1913.4114016999956,None,1913.4114016999956,None,1913.4114016999956,None,1913.4114016999956,None,1913.4114016999956,None,1913.4114016999956,None,1913.4114016999956,None,45,21,45,19,45,68,1915.9255945999175,None,2.0,0.4691310999915004,1915.9255945999175,None,1915.9255945999175,None,1915.9255945999175,None,1915.9255945999175,None,None,None,1916.4208694999106,None,,,,,,,113,f,23,2022_Dec_11_1449,RL,2021.2.3,59.90782585654145,
1,34,0,34,0,,,,,,,,,,,,,,,None,None,None,None,None,1918.2698329999112,None,1918.2698329999112,None,1918.2698329999112,None,1918.2698329999112,None,i,0.41146350000053644,1918.2698329999112,None,1918.2698329999112,None,1918.7279737999197,None,1918.7279737999197,None,1918.7279737999197,None,1918.7279737999197,None,1918.7279737999197,None,1918.7279737999197,None,1919.017219599802,1920.4180887998082,1919.017219599802,1920.4180887998082,1920.4491335998755,None,1920.4491335998755,None,1920.4491335998755,None,1920.4491335998755,None,1920.4491335998755,None,1920.4491335998755,None,1920.4491335998755,None,1920.4491335998755,None,1920.4491335998755,None,51,22,43,16,43,70,1922.9663775998633,None,2.0,0.6379275999497622,1922.9663775998633,None,1922.9663775998633,None,1922.9663775998633,None,1922.9663775998633,None,None,None,1923.6289321000222,None,,,,,,,113,f,23,2022_Dec_11_1449,RL,2021.2.3,59.90782585654145,
1,35,0,35,0,,,,,,,,,,,,,,,None,None,None,None,None,1925.2572123999707,None,1925.2572123999707,None,1925.2572123999707,None,1925.2572123999707,None,j,0.4038777998648584,1925.2572123999707,None,1925.2572123999707,None,1925.7108846998308,None,1925.7108846998308,None,1925.7108846998308,None,1925.7108846998308,None,1925.7108846998308,None,1925.7108846998308,None,1926.0053860999178,1926.9224735999014,1926.0053860999178,1926.9224735999014,1926.9547357999254,None,1926.9547357999254,None,1926.9547357999254,None,1926.9547357999254,None,1926.9547357999254,None,1926.9547357999254,None,1926.9547357999254,None,1926.9547357999254,None,1926.9547357999254,None,41,20,39,25,25,62,1929.4702913998626,None,3.0,1.7044391001109034,1929.4702913998626,None,1929.4702913998626,None,1929.4702913998626,None,1929.4702913998626,None,None,None,1931.1919415998273,None,,,,,,,113,f,23,2022_Dec_11_1449,RL,2021.2.3,59.90782585654145,
1,36,0,36,0,,,,,,,,,,,,,,,None,None,None,None,None,1933.179761899868,None,1933.179761899868,None,1933.179761899868,None,1933.179761899868,None,f,0.391649299999699,1933.179761899868,None,1933.179761899868,None,1933.6155598999467,None,1933.6155598999467,None,1933.6155598999467,None,1933.6155598999467,None,1933.6155598999467,None,1933.6155598999467,None,1933.9109485999215,1935.0115503999405,1933.9109485999215,1935.0115503999405,1935.0447849999182,None,1935.0447849999182,None,1935.0447849999182,None,1935.0447849999182,None,1935.0447849999182,None,1935.0447849999182,None,1935.0447849999182,None,1935.0447849999182,None,1935.0447849999182,None,49,12,47,16,12,57,1937.5598438000306,None,5.0,1.8369966000318527,1937.5598438000306,None,1937.5598438000306,None,1937.5598438000306,None,1937.5598438000306,None,None,None,1939.4144229998346,None,,,,,,,113,f,23,2022_Dec_11_1449,RL,2021.2.3,59.90782585654145,
1,37,0,37,0,,,,,,,,,,,,,,,None,None,None,None,None,1941.1352849998511,None,1941.1352849998511,None,1941.1352849998511,None,1941.1352849998511,None,i,0.42613459983840585,1941.1352849998511,None,1941.1352849998511,None,1941.606067799963,None,1941.606067799963,None,1941.606067799963,None,1941.606067799963,None,1941.606067799963,None,1941.606067799963,None,1941.8998640999198,None,1941.8998640999198,None,1942.8803071000148,None,1942.8803071000148,None,1942.8803071000148,None,1942.8803071000148,None,1942.8803071000148,None,1942.8803071000148,None,1942.8803071000148,None,1942.8803071000148,None,1942.8803071000148,None,40,17,44,19,44,56,1945.4013879999984,None,5.0,0.738205999834463,1945.4013879999984,None,1945.4013879999984,None,1945.4013879999984,None,1945.4013879999984,None,None,None,1946.1528247999959,None,,,,,,,113,f,23,2022_Dec_11_1449,RL,2021.2.3,59.90782585654145,
1,38,0,38,0,,,,,,,,,,,,,,,None,None,None,None,None,1948.0897490999196,None,1948.0897490999196,None,1948.0897490999196,None,1948.0897490999196,None,f,0.2816622001118958,1948.0897490999196,None,1948.0897490999196,None,1948.408764399821,None,1948.408764399821,None,1948.408764399821,None,1948.408764399821,None,1948.408764399821,None,1948.408764399821,None,1948.7045595999807,None,1948.7045595999807,None,1950.0494702998549,None,1950.0494702998549,None,1950.0494702998549,None,1950.0494702998549,None,1950.0494702998549,None,1950.0494702998549,None,1950.0494702998549,None,1950.0494702998549,None,1950.0494702998549,None,52,27,43,15,27,60,1952.5699245999567,None,3.0,0.905662499833852,1952.5699245999567,None,1952.5699245999567,None,1952.5699245999567,None,1952.5699245999567,None,None,None,1953.4906619000249,None,,,,,,,113,f,23,2022_Dec_11_1449,RL,2021.2.3,59.90782585654145,
1,39,0,39,0,,,,,,,,,,,,,,,None,None,None,None,None,1955.178174200002,None,1955.178174200002,None,1955.178174200002,None,1955.178174200002,None,r,0.29346229997463524,1955.178174200002,None,1955.178174200002,None,1955.5129089998081,None,1955.5129089998081,None,1955.5129089998081,None,1955.5129089998081,None,1955.5129089998081,None,1955.5129089998081,None,1955.8094962998293,None,1955.8094962998293,None,1957.524225999834,None,1957.524225999834,None,1957.524225999834,None,1957.524225999834,None,1957.524225999834,None,1957.524225999834,None,1957.524225999834,None,1957.524225999834,None,1957.524225999834,None,43,26,52,11,43,54,1960.0417296998203,None,3.0,1.0399694999214262,1960.0417296998203,None,1960.0417296998203,None,1960.0417296998203,None,1960.0417296998203,None,None,None,1961.0960698998533,None,,,,,,,113,f,23,2022_Dec_11_1449,RL,2021.2.3,59.90782585654145,
1,40,0,40,0,,,,,,,,,,,,,,,None,None,None,None,None,1963.0004490998108,None,1963.0004490998108,None,1963.0004490998108,None,1963.0004490998108,None,j,0.49090069998055696,1963.0004490998108,None,1963.0004490998108,None,1963.5354364998639,None,1963.5354364998639,None,1963.5354364998639,None,1963.5354364998639,None,1963.5354364998639,None,1963.5354364998639,None,1963.8316308998037,None,1963.8316308998037,None,1965.1940999999642,None,1965.1940999999642,None,1965.1940999999642,None,1965.1940999999642,None,1965.1940999999642,None,1965.1940999999642,None,1965.1940999999642,None,1965.1940999999642,None,1965.1940999999642,None,54,22,52,16,16,52,1967.7141433998477,None,2.0,1.9735594999510795,1967.7141433998477,None,1967.7141433998477,None,1967.7141433998477,None,1967.7141433998477,None,None,None,1969.7041089998093,None,,,,,,,113,f,23,2022_Dec_11_1449,RL,2021.2.3,59.90782585654145,
1,41,0,41,0,,,,,,,,,,,,,,,None,None,None,None,None,1971.5230666999705,None,1971.5230666999705,None,1971.5230666999705,None,1971.5230666999705,None,r,0.42859119991771877,1971.5230666999705,None,1971.5230666999705,None,1971.9945086999796,None,1971.9945086999796,None,1971.9945086999796,None,1971.9945086999796,None,1971.9945086999796,None,1971.9945086999796,None,1972.2708186998498,1973.9553661998361,1972.2708186998498,1973.9553661998361,1973.9878249999601,None,1973.9878249999601,None,1973.9878249999601,None,1973.9878249999601,None,1973.9878249999601,None,1973.9878249999601,None,1973.9878249999601,None,1973.9878249999601,None,1973.9878249999601,None,62,25,44,18,62,55,1976.5040118999314,None,4.0,2.0400859999936074,1976.5040118999314,None,1976.5040118999314,None,1976.5040118999314,None,1976.5040118999314,None,None,None,1978.5581219999585,None,,,,,,,113,f,23,2022_Dec_11_1449,RL,2021.2.3,59.90782585654145,
1,42,0,42,0,,,,,,,,,,,,,,,None,None,None,None,None,1980.3459031998646,None,1980.3459031998646,None,1980.3459031998646,None,1980.3459031998646,None,j,0.38566439994610846,1980.3459031998646,None,1980.3459031998646,None,1980.7824967999477,None,1980.7824967999477,None,1980.7824967999477,None,1980.7824967999477,None,1980.7824967999477,None,1980.7824967999477,None,1981.0770780998282,None,1981.0770780998282,None,1982.9798271998297,None,1982.9798271998297,None,1982.9798271998297,None,1982.9798271998297,None,1982.9798271998297,None,1982.9798271998297,None,1982.9798271998297,None,1982.9798271998297,None,1982.9798271998297,None,45,19,43,27,27,60,1985.4933056998998,None,2.0,1.9392258999869227,1985.4933056998998,None,1985.4933056998998,None,1985.4933056998998,None,1985.4933056998998,None,None,None,1987.4578749998473,None,,,,,,,113,f,23,2022_Dec_11_1449,RL,2021.2.3,59.90782585654145,
1,43,0,43,0,,,,,,,,,,,,,,,None,None,None,None,None,1989.2185128999408,None,1989.2185128999408,None,1989.2185128999408,None,1989.2185128999408,None,f,0.3733139999676496,1989.2185128999408,None,1989.2185128999408,None,1989.6384699000046,None,1989.6384699000046,None,1989.6384699000046,None,1989.6384699000046,None,1989.6384699000046,None,1989.6384699000046,None,1989.9333829998504,None,1989.9333829998504,None,1991.0480048998725,None,1991.0480048998725,None,1991.0480048998725,None,1991.0480048998725,None,1991.0480048998725,None,1991.0480048998725,None,1991.0480048998725,None,1991.0480048998725,None,1991.0480048998725,None,57,28,42,20,28,43,1993.565626999829,None,3.0,1.9057573000900447,1993.565626999829,None,1993.565626999829,None,1993.565626999829,None,1993.565626999829,None,None,None,1995.4864154998213,None,,,,,,,113,f,23,2022_Dec_11_1449,RL,2021.2.3,59.90782585654145,
1,44,0,44,0,,,,,,,,,,,,,,,None,None,None,None,None,1997.0242512999102,None,1997.0242512999102,None,1997.0242512999102,None,1997.0242512999102,None,r,0.3873762998264283,1997.0242512999102,None,1997.0242512999102,None,1997.4616241999902,None,1997.4616241999902,None,1997.4616241999902,None,1997.4616241999902,None,1997.4616241999902,None,1997.4616241999902,None,1997.7551893999334,None,1997.7551893999334,None,1998.7021242999472,None,1998.7021242999472,None,1998.7021242999472,None,1998.7021242999472,None,1998.7021242999472,None,1998.7021242999472,None,1998.7021242999472,None,1998.7021242999472,None,1998.7021242999472,None,46,34,46,11,46,39,2001.219454899896,None,3.0,2.1907009000424296,2001.219454899896,None,2001.219454899896,None,2001.219454899896,None,2001.219454899896,None,None,None,2003.4255796999205,None,,,,,,,113,f,23,2022_Dec_11_1449,RL,2021.2.3,59.90782585654145,
1,45,0,45,0,,,,,,,,,,,,,,,None,None,None,None,None,2005.3301591000054,None,2005.3301591000054,None,2005.3301591000054,None,2005.3301591000054,None,r,0.3714695000089705,2005.3301591000054,None,2005.3301591000054,None,2005.7527069998905,None,2005.7527069998905,None,2005.7527069998905,None,2005.7527069998905,None,2005.7527069998905,None,2005.7527069998905,None,2006.0442782000173,None,2006.0442782000173,None,2007.3237679998856,None,2007.3237679998856,None,2007.3237679998856,None,2007.3237679998856,None,2007.3237679998856,None,2007.3237679998856,None,2007.3237679998856,None,2007.3237679998856,None,2007.3237679998856,None,43,27,51,10,43,37,2009.8499600000214,None,3.0,2.93267529993318,2009.8499600000214,None,2009.8499600000214,None,2009.8499600000214,None,2009.8499600000214,None,None,None,2012.79878870002,None,,,,,,,113,f,23,2022_Dec_11_1449,RL,2021.2.3,59.90782585654145,
1,46,0,46,0,,,,,,,,,,,,,,,None,None,None,None,None,2014.7197946999222,None,2014.7197946999222,None,2014.7197946999222,None,2014.7197946999222,None,i,0.4319497998803854,2014.7197946999222,None,2014.7197946999222,None,2015.1897656999063,None,2015.1897656999063,None,2015.1897656999063,None,2015.1897656999063,None,2015.1897656999063,None,2015.1897656999063,None,2015.4841230998281,2016.7848713998683,2015.4841230998281,2016.7848713998683,2016.8172434000298,None,2016.8172434000298,None,2016.8172434000298,None,2016.8172434000298,None,2016.8172434000298,None,2016.8172434000298,None,2016.8172434000298,None,2016.8172434000298,None,2016.8172434000298,None,50,34,49,13,49,55,2019.3341151999775,None,3.0,1.7871666001155972,2019.3341151999775,None,2019.3341151999775,None,2019.3341151999775,None,2019.3341151999775,None,None,None,2021.1375504999887,None,,,,,,,113,f,23,2022_Dec_11_1449,RL,2021.2.3,59.90782585654145,
1,47,0,47,0,,,,,,,,,,,,,,,None,None,None,None,None,2022.7591899998952,None,2022.7591899998952,None,2022.7591899998952,None,2022.7591899998952,None,f,0.33253009989857674,2022.7591899998952,None,2022.7591899998952,None,2023.1457121998537,None,2023.1457121998537,None,2023.1457121998537,None,2023.1457121998537,None,2023.1457121998537,None,2023.1457121998537,None,2023.4230849999003,2024.8404403999448,2023.4230849999003,2024.8404403999448,2024.8908148999326,None,2024.8908148999326,None,2024.8908148999326,None,2024.8908148999326,None,2024.8908148999326,None,2024.8908148999326,None,2024.8908148999326,None,2024.8908148999326,None,2024.8908148999326,None,46,31,49,13,31,64,2027.4095544000156,None,5.0,1.7872818000614643,2027.4095544000156,None,2027.4095544000156,None,2027.4095544000156,None,2027.4095544000156,None,None,None,2029.2140297000296,None,,,,,,,113,f,23,2022_Dec_11_1449,RL,2021.2.3,59.90782585654145,
1,48,0,48,0,,,,,,,,,,,,,,,None,None,None,None,None,2030.9145233999006,None,2030.9145233999006,None,2030.9145233999006,None,2030.9145233999006,None,i,0.3277670000679791,2030.9145233999006,None,2030.9145233999006,None,2031.284399899887,None,2031.284399899887,None,2031.284399899887,None,2031.284399899887,None,2031.284399899887,None,2031.284399899887,None,2031.5787070998922,None,2031.5787070998922,None,2032.9272721000016,None,2032.9272721000016,None,2032.9272721000016,None,2032.9272721000016,None,2032.9272721000016,None,2032.9272721000016,None,2032.9272721000016,None,2032.9272721000016,None,2032.9272721000016,None,45,29,41,16,41,45,2035.4440545998514,None,3.0,1.3204647998791188,2035.4440545998514,None,2035.4440545998514,None,2035.4440545998514,None,2035.4440545998514,None,None,None,2036.7815627998207,None,,,,,,,113,f,23,2022_Dec_11_1449,RL,2021.2.3,59.90782585654145,
1,49,0,49,0,,,,,,,,,,,,,,,None,None,None,None,None,2038.5198883998673,None,2038.5198883998673,None,2038.5198883998673,None,2038.5198883998673,None,f,0.4921084998641163,2038.5198883998673,None,2038.5198883998673,None,2039.0586426998489,None,2039.0586426998489,None,2039.0586426998489,None,2039.0586426998489,None,2039.0586426998489,None,2039.0586426998489,None,2039.3507211999968,2040.7348660000134,2039.3507211999968,2040.7348660000134,2040.7647887999192,None,2040.7647887999192,None,2040.7647887999192,None,2040.7647887999192,None,2040.7647887999192,None,2040.7647887999192,None,2040.7647887999192,None,2040.7647887999192,None,2040.7647887999192,None,43,32,51,18,32,40,2043.2826404999942,None,3.0,0.5713601999450475,2043.2826404999942,None,2043.2826404999942,None,2043.2826404999942,None,2043.2826404999942,None,None,None,2043.8702888998669,None,,,,,,,113,f,23,2022_Dec_11_1449,RL,2021.2.3,59.90782585654145,
1,50,0,50,0,,,,,,,,,,,,,,,None,None,None,None,None,2045.824940299848,None,2045.824940299848,None,2045.824940299848,None,2045.824940299848,None,r,0.35707960021682084,2045.824940299848,None,2045.824940299848,None,2046.2296592998318,None,2046.2296592998318,None,2046.2296592998318,None,2046.2296592998318,None,2046.2296592998318,None,2046.2296592998318,None,2046.5056664999574,2048.106644099811,2046.5056664999574,2048.106644099811,2048.138194799889,None,2048.138194799889,None,2048.138194799889,None,2048.138194799889,None,2048.138194799889,None,2048.138194799889,None,2048.138194799889,None,2048.138194799889,None,2048.138194799889,None,49,32,49,21,49,64,2050.660634299973,None,3.0,0.6472763000056148,2050.660634299973,None,2050.660634299973,None,2050.660634299973,None,2050.660634299973,None,None,None,2051.324921499938,None,,,,,,,113,f,23,2022_Dec_11_1449,RL,2021.2.3,59.90782585654145,
1,51,0,51,0,,,,,,,,,,,,,,,None,None,None,None,None,2052.946840299992,None,2052.946840299992,None,2052.946840299992,None,2052.946840299992,None,j,0.7762420999351889,2052.946840299992,None,2052.946840299992,None,2053.7660269998014,None,2053.7660269998014,None,2053.7660269998014,None,2053.7660269998014,None,2053.7660269998014,None,2053.7660269998014,None,2054.060759499902,None,2054.060759499902,None,2055.2736254998017,None,2055.2736254998017,None,2055.2736254998017,None,2055.2736254998017,None,2055.2736254998017,None,2055.2736254998017,None,2055.2736254998017,None,2055.2736254998017,None,2055.2736254998017,None,49,35,51,16,16,56,2057.791244599968,None,2.0,0.6395850002299994,2057.791244599968,None,2057.791244599968,None,2057.791244599968,None,2057.791244599968,None,None,None,2058.455441699829,None,,,,,,,113,f,23,2022_Dec_11_1449,RL,2021.2.3,59.90782585654145,
1,52,0,52,0,,,,,,,,,,,,,,,None,None,None,None,None,2060.4185324998107,None,2060.4185324998107,None,2060.4185324998107,None,2060.4185324998107,None,i,0.3543541000690311,2060.4185324998107,None,2060.4185324998107,None,2060.8219569998328,None,2060.8219569998328,None,2060.8219569998328,None,2060.8219569998328,None,2060.8219569998328,None,2060.8219569998328,None,2061.1157537999097,None,2061.1157537999097,None,2062.8641742998734,None,2062.8641742998734,None,2062.8641742998734,None,2062.8641742998734,None,2062.8641742998734,None,2062.8641742998734,None,2062.8641742998734,None,2062.8641742998734,None,2062.8641742998734,None,49,28,47,16,47,37,2065.3817938999273,None,3.0,2.3735046999063343,2065.3817938999273,None,2065.3817938999273,None,2065.3817938999273,None,2065.3817938999273,None,None,None,2067.7700196998194,None,,,,,,,113,f,23,2022_Dec_11_1449,RL,2021.2.3,59.90782585654145,
1,53,0,53,0,,,,,,,,,,,,,,,None,None,None,None,None,2069.5745814000256,None,2069.5745814000256,None,2069.5745814000256,None,2069.5745814000256,None,f,0.35846230015158653,2069.5745814000256,None,2069.5745814000256,None,2069.982721999986,None,2069.982721999986,None,2069.982721999986,None,2069.982721999986,None,2069.982721999986,None,2069.982721999986,None,2070.2721766999457,None,2070.2721766999457,None,2071.283695399994,None,2071.283695399994,None,2071.283695399994,None,2071.283695399994,None,2071.283695399994,None,2071.283695399994,None,2071.283695399994,None,2071.283695399994,None,2071.283695399994,None,56,29,39,26,29,45,2073.8064378998242,None,2.0,1.803396499948576,2073.8064378998242,None,2073.8064378998242,None,2073.8064378998242,None,2073.8064378998242,None,None,None,2075.625516399974,None,,,,,,,113,f,23,2022_Dec_11_1449,RL,2021.2.3,59.90782585654145,
1,54,0,54,0,,,,,,,,,,,,,,,None,None,None,None,None,2077.329831799958,None,2077.329831799958,None,2077.329831799958,None,2077.329831799958,None,r,0.30328820017166436,2077.329831799958,None,2077.329831799958,None,2077.6845219999086,None,2077.6845219999086,None,2077.6845219999086,None,2077.6845219999086,None,2077.6845219999086,None,2077.6845219999086,None,2077.960802400019,2078.8446463998407,2077.960802400019,2078.8446463998407,2078.8928567999974,None,2078.8928567999974,None,2078.8928567999974,None,2078.8928567999974,None,2078.8928567999974,None,2078.8928567999974,None,2078.8928567999974,None,2078.8928567999974,None,2078.8928567999974,None,45,31,43,20,45,66,2081.4108070000075,None,3.0,1.0203998999204487,2081.4108070000075,None,2081.4108070000075,None,2081.4108070000075,None,2081.4108070000075,None,None,None,2082.446931899991,None,,,,,,,113,f,23,2022_Dec_11_1449,RL,2021.2.3,59.90782585654145,
1,55,0,55,0,,,,,,,,,,,,,,,None,None,None,None,None,2084.4520113999024,None,2084.4520113999024,None,2084.4520113999024,None,2084.4520113999024,None,j,0.3411572000477463,2084.4520113999024,None,2084.4520113999024,None,2084.837274499936,None,2084.837274499936,None,2084.837274499936,None,2084.837274499936,None,2084.837274499936,None,2084.837274499936,None,2085.1325187999755,None,2085.1325187999755,None,2086.32069079997,None,2086.32069079997,None,2086.32069079997,None,2086.32069079997,None,2086.32069079997,None,2086.32069079997,None,2086.32069079997,None,2086.32069079997,None,2086.32069079997,None,47,32,48,16,16,57,2088.834352299804,None,3.0,1.2201044000685215,2088.834352299804,None,2088.834352299804,None,2088.834352299804,None,2088.834352299804,None,None,None,2090.077490199823,None,,,,,,,113,f,23,2022_Dec_11_1449,RL,2021.2.3,59.90782585654145,
1,56,0,56,0,,,,,,,,,,,,,,,None,None,None,None,None,2091.789886799874,None,2091.789886799874,None,2091.789886799874,None,2091.789886799874,None,r,0.39335300005041063,2091.789886799874,None,2091.789886799874,None,2092.2269038998056,None,2092.2269038998056,None,2092.2269038998056,None,2092.2269038998056,None,2092.2269038998056,None,2092.2269038998056,None,2092.5207835999317,2093.3712761998177,2092.5207835999317,2093.3712761998177,2093.4019742999226,None,2093.4019742999226,None,2093.4019742999226,None,2093.4019742999226,None,2093.4019742999226,None,2093.4019742999226,None,2093.4019742999226,None,2093.4019742999226,None,2093.4019742999226,None,49,32,47,19,49,47,2095.9178343999665,None,4.0,1.6739895001519471,2095.9178343999665,None,2095.9178343999665,None,2095.9178343999665,None,2095.9178343999665,None,None,None,2097.610502099851,None,,,,,,,113,f,23,2022_Dec_11_1449,RL,2021.2.3,59.90782585654145,
1,57,0,57,0,,,,,,,,,,,,,,,None,None,None,None,None,2099.1950558000244,None,2099.1950558000244,None,2099.1950558000244,None,2099.1950558000244,None,j,0.4380012000910938,2099.1950558000244,None,2099.1950558000244,None,2099.6805781000294,None,2099.6805781000294,None,2099.6805781000294,None,2099.6805781000294,None,2099.6805781000294,None,2099.6805781000294,None,2099.976069799857,None,2099.976069799857,None,2101.9926509999204,None,2101.9926509999204,None,2101.9926509999204,None,2101.9926509999204,None,2101.9926509999204,None,2101.9926509999204,None,2101.9926509999204,None,2101.9926509999204,None,2101.9926509999204,None,51,25,41,18,18,54,2104.5085336999036,None,4.0,1.0226455999072641,2104.5085336999036,None,2104.5085336999036,None,2104.5085336999036,None,2104.5085336999036,None,None,None,2105.546071599936,None,,,,,,,113,f,23,2022_Dec_11_1449,RL,2021.2.3,59.90782585654145,
1,58,0,58,0,,,,,,,,,,,,,,,None,None,None,None,None,2107.083447000012,None,2107.083447000012,None,2107.083447000012,None,2107.083447000012,None,None,,2107.083447000012,None,2107.083447000012,None,None,None,None,None,None,None,None,None,None,None,None,None,None,None,None,None,None,None,None,None,None,None,None,None,None,None,None,None,None,None,None,None,None,None,51,29,45,12,0,**,None,None,None,None,None,None,None,None,None,None,None,None,2108.6455977000296,None,2113.151400499977,None,,,,,,,113,f,23,2022_Dec_11_1449,RL,2021.2.3,59.90782585654145,
1,59,0,59,0,,,,,,,,,,,,,,,None,None,None,None,None,2114.7725372998975,None,2114.7725372998975,None,2114.7725372998975,None,2114.7725372998975,None,j,0.3007346000522375,2114.7725372998975,None,2114.7725372998975,None,2115.1269266000018,None,2115.1269266000018,None,2115.1269266000018,None,2115.1269266000018,None,2115.1269266000018,None,2115.1269266000018,None,2115.4201479998883,None,2115.4201479998883,None,2116.3417853999417,None,2116.3417853999417,None,2116.3417853999417,None,2116.3417853999417,None,2116.3417853999417,None,2116.3417853999417,None,2116.3417853999417,None,2116.3417853999417,None,2116.3417853999417,None,47,27,44,17,17,54,2118.852606399916,None,3.0,0.688213000074029,2118.852606399916,None,2118.852606399916,None,2118.852606399916,None,2118.852606399916,None,None,None,2119.555783199845,None,,,,,,,113,f,23,2022_Dec_11_1449,RL,2021.2.3,59.90782585654145,
1,60,0,60,0,,,,,,,,,,,,,,,None,None,None,None,None,2121.242763399845,None,2121.242763399845,None,2121.242763399845,None,2121.242763399845,None,i,0.4204256001394242,2121.242763399845,None,2121.242763399845,None,2121.7138466998003,None,2121.7138466998003,None,2121.7138466998003,None,2121.7138466998003,None,2121.7138466998003,None,2121.7138466998003,None,2122.0081905999687,2123.8424771998543,2122.0081905999687,2123.8424771998543,2123.875291300006,None,2123.875291300006,None,2123.875291300006,None,2123.875291300006,None,2123.875291300006,None,2123.875291300006,None,2123.875291300006,None,2123.875291300006,None,2123.875291300006,None,48,26,44,21,44,46,2126.3887534998357,None,3.0,0.4887655999045819,2126.3887534998357,None,2126.3887534998357,None,2126.3887534998357,None,2126.3887534998357,None,None,None,2126.894762999844,None,,,,,,,113,f,23,2022_Dec_11_1449,RL,2021.2.3,59.90782585654145,
1,61,0,61,0,,,,,,,,,,,,,,,None,None,None,None,None,2128.5986672998406,None,2128.5986672998406,None,2128.5986672998406,None,2128.5986672998406,None,r,0.31522170011885464,2128.5986672998406,None,2128.5986672998406,None,2128.9690294999164,None,2128.9690294999164,None,2128.9690294999164,None,2128.9690294999164,None,2128.9690294999164,None,2128.9690294999164,None,2129.263114699861,None,2129.263114699861,None,2130.2930862999056,None,2130.2930862999056,None,2130.2930862999056,None,2130.2930862999056,None,2130.2930862999056,None,2130.2930862999056,None,2130.2930862999056,None,2130.2930862999056,None,2130.2930862999056,None,50,29,48,29,50,43,2132.812132499879,None,4.0,1.7561970998067409,2132.812132499879,None,2132.812132499879,None,2132.812132499879,None,2132.812132499879,None,None,None,2134.5828738999553,None,,,,,,,113,f,23,2022_Dec_11_1449,RL,2021.2.3,59.90782585654145,
1,62,0,62,0,,,,,,,,,,,,,,,None,None,None,None,None,2136.387499499833,None,2136.387499499833,None,2136.387499499833,None,2136.387499499833,None,f,0.3257975000888109,2136.387499499833,None,2136.387499499833,None,2136.7534874998964,None,2136.7534874998964,None,2136.7534874998964,None,2136.7534874998964,None,2136.7534874998964,None,2136.7534874998964,None,2137.0516681999434,None,2137.0516681999434,None,2139.040802499978,None,2139.040802499978,None,2139.040802499978,None,2139.040802499978,None,2139.040802499978,None,2139.040802499978,None,2139.040802499978,None,2139.040802499978,None,2139.040802499978,None,53,23,49,22,23,44,2141.5623680998106,None,4.0,1.4155907002277672,2141.5623680998106,None,2141.5623680998106,None,2141.5623680998106,None,2141.5623680998106,None,None,None,2142.988810499897,None,,,,,,,113,f,23,2022_Dec_11_1449,RL,2021.2.3,59.90782585654145,
1,63,0,63,0,,,,,,,,,,,,,,,None,None,None,None,None,2144.6940095999744,None,2144.6940095999744,None,2144.6940095999744,None,2144.6940095999744,None,j,0.5797336001414806,2144.6940095999744,None,2144.6940095999744,None,2145.3150641999673,None,2145.3150641999673,None,2145.3150641999673,None,2145.3150641999673,None,2145.3150641999673,None,2145.3150641999673,None,2145.607927699806,2147.091954999836,2145.607927699806,2147.091954999836,2147.127004199894,None,2147.127004199894,None,2147.127004199894,None,2147.127004199894,None,2147.127004199894,None,2147.127004199894,None,2147.127004199894,None,2147.127004199894,None,2147.127004199894,None,50,33,49,27,27,52,2149.6460537000094,None,4.0,0.5997836999595165,2149.6460537000094,None,2149.6460537000094,None,2149.6460537000094,None,2149.6460537000094,None,None,None,2150.260701799998,None,,,,,,,113,f,23,2022_Dec_11_1449,RL,2021.2.3,59.90782585654145,
1,64,0,64,0,,,,,,,,,,,,,,,None,None,None,None,None,2152.248346999986,None,2152.248346999986,None,2152.248346999986,None,2152.248346999986,None,i,0.40532299992628396,2152.248346999986,None,2152.248346999986,None,2152.7017059999052,None,2152.7017059999052,None,2152.7017059999052,None,2152.7017059999052,None,2152.7017059999052,None,2152.7017059999052,None,2152.996127899969,None,2152.996127899969,None,2154.4965222999454,None,2154.4965222999454,None,2154.4965222999454,None,2154.4965222999454,None,2154.4965222999454,None,2154.4965222999454,None,2154.4965222999454,None,2154.4965222999454,None,2154.4965222999454,None,49,25,45,16,45,45,2157.010986899957,None,4.0,0.8891696000937372,2157.010986899957,None,2157.010986899957,None,2157.010986899957,None,2157.010986899957,None,None,None,2157.9155702998396,None,,,,,,,113,f,23,2022_Dec_11_1449,RL,2021.2.3,59.90782585654145,
1,65,0,65,0,,,,,,,,,,,,,,,None,None,None,None,None,2159.45373609988,None,2159.45373609988,None,2159.45373609988,None,2159.45373609988,None,r,0.3099615001119673,2159.45373609988,None,2159.45373609988,None,2159.807752699824,None,2159.807752699824,None,2159.807752699824,None,2159.807752699824,None,2159.807752699824,None,2159.807752699824,None,2160.1011714998167,None,2160.1011714998167,None,2162.122759099817,None,2162.122759099817,None,2162.122759099817,None,2162.122759099817,None,2162.122759099817,None,2162.122759099817,None,2162.122759099817,None,2162.122759099817,None,2162.122759099817,None,56,34,51,25,56,46,2164.6362464998383,None,5.0,1.254445199854672,2164.6362464998383,None,2164.6362464998383,None,2164.6362464998383,None,2164.6362464998383,None,None,None,2165.9100496999454,None,,,,,,,113,f,23,2022_Dec_11_1449,RL,2021.2.3,59.90782585654145,
1,66,0,66,0,,,,,,,,,,,,,,,None,None,None,None,None,2167.825502099935,None,2167.825502099935,None,2167.825502099935,None,2167.825502099935,None,f,0.348360100062564,2167.825502099935,None,2167.825502099935,None,2168.212645499967,None,2168.212645499967,None,2168.212645499967,None,2168.212645499967,None,2168.212645499967,None,2168.212645499967,None,2168.507140799891,None,2168.507140799891,None,2170.403856799938,None,2170.403856799938,None,2170.403856799938,None,2170.403856799938,None,2170.403856799938,None,2170.403856799938,None,2170.403856799938,None,2170.403856799938,None,2170.403856799938,None,57,33,38,23,33,48,2172.9226575999055,None,4.0,0.5886559998616576,2172.9226575999055,None,2172.9226575999055,None,2172.9226575999055,None,2172.9226575999055,None,None,None,2173.5265100998804,None,,,,,,,113,f,23,2022_Dec_11_1449,RL,2021.2.3,59.90782585654145,
1,67,0,67,0,,,,,,,,,,,,,,,None,None,None,None,None,2175.114572299877,None,2175.114572299877,None,2175.114572299877,None,2175.114572299877,None,j,0.339030500035733,2175.114572299877,None,2175.114572299877,None,2175.4998439999763,None,2175.4998439999763,None,2175.4998439999763,None,2175.4998439999763,None,2175.4998439999763,None,2175.4998439999763,None,2175.7953560999595,2176.929282899946,2175.7953560999595,2176.929282899946,2176.962408500025,None,2176.962408500025,None,2176.962408500025,None,2176.962408500025,None,2176.962408500025,None,2176.962408500025,None,2176.962408500025,None,2176.962408500025,None,2176.962408500025,None,60,39,38,23,23,37,2179.480595699977,None,4.0,1.0179210000205785,2179.480595699977,None,2179.480595699977,None,2179.480595699977,None,2179.480595699977,None,None,None,2180.5145880999044,None,,,,,,,113,f,23,2022_Dec_11_1449,RL,2021.2.3,59.90782585654145,
1,68,0,68,0,,,,,,,,,,,,,,,None,None,None,None,None,2182.468776399968,None,2182.468776399968,None,2182.468776399968,None,2182.468776399968,None,i,0.31509879999794066,2182.468776399968,None,2182.468776399968,None,2182.8231206999626,None,2182.8231206999626,None,2182.8231206999626,None,2182.8231206999626,None,2182.8231206999626,None,2182.8231206999626,None,2183.116978699807,2184.667994200019,2183.116978699807,2184.667994200019,2184.699481199961,None,2184.699481199961,None,2184.699481199961,None,2184.699481199961,None,2184.699481199961,None,2184.699481199961,None,2184.699481199961,None,2184.699481199961,None,2184.699481199961,None,56,34,51,14,51,54,2187.2142994999886,None,3.0,0.5213359000626951,2187.2142994999886,None,2187.2142994999886,None,2187.2142994999886,None,2187.2142994999886,None,None,None,2187.753003399819,None,,,,,,,113,f,23,2022_Dec_11_1449,RL,2021.2.3,59.90782585654145,
1,69,0,69,0,,,,,,,,,,,,,,,None,None,None,None,None,2189.4575238998514,None,2189.4575238998514,None,2189.4575238998514,None,2189.4575238998514,None,r,0.3763625000137836,2189.4575238998514,None,2189.4575238998514,None,2189.8765248998534,None,2189.8765248998534,None,2189.8765248998534,None,2189.8765248998534,None,2189.8765248998534,None,2189.8765248998534,None,2190.172011199873,None,2190.172011199873,None,2191.8522222000174,None,2191.8522222000174,None,2191.8522222000174,None,2191.8522222000174,None,2191.8522222000174,None,2191.8522222000174,None,2191.8522222000174,None,2191.8522222000174,None,2191.8522222000174,None,57,42,49,27,57,45,2194.3714425999206,None,4.0,0.9720006000716239,2194.3714425999206,None,2194.3714425999206,None,2194.3714425999206,None,2194.3714425999206,None,None,None,2195.360030999873,None,,,,,,,113,f,23,2022_Dec_11_1449,RL,2021.2.3,59.90782585654145,
1,70,0,70,0,,,,,,,,,,,,,,,None,None,None,None,None,2196.979855499929,None,2196.979855499929,None,2196.979855499929,None,2196.979855499929,None,j,0.3240125000011176,2196.979855499929,None,2196.979855499929,None,2197.3516602998134,None,2197.3516602998134,None,2197.3516602998134,None,2197.3516602998134,None,2197.3516602998134,None,2197.3516602998134,None,2197.6437835998368,None,2197.6437835998368,None,2199.4256505998783,None,2199.4256505998783,None,2199.4256505998783,None,2199.4256505998783,None,2199.4256505998783,None,2199.4256505998783,None,2199.4256505998783,None,2199.4256505998783,None,2199.4256505998783,None,54,50,61,26,26,50,2201.944942599861,None,3.0,2.538219999987632,2201.944942599861,None,2201.944942599861,None,2201.944942599861,None,2201.944942599861,None,None,None,2204.504410999827,None,,,,,,,113,f,23,2022_Dec_11_1449,RL,2021.2.3,59.90782585654145,
1,71,0,71,0,,,,,,,,,,,,,,,None,None,None,None,None,2206.319108000025,None,2206.319108000025,None,2206.319108000025,None,2206.319108000025,None,None,,2206.319108000025,None,2206.319108000025,None,None,None,None,None,None,None,None,None,None,None,None,None,None,None,None,None,None,None,None,None,None,None,None,None,None,None,None,None,None,None,None,None,None,None,55,50,56,26,0,**,None,None,None,None,None,None,None,None,None,None,None,None,2207.873108699918,None,2212.3868171998765,None,,,,,,,113,f,23,2022_Dec_11_1449,RL,2021.2.3,59.90782585654145,
1,72,0,72,0,,,,,,,,,,,,,,,None,None,None,None,None,2214.224554499844,None,2214.224554499844,None,2214.224554499844,None,2214.224554499844,None,f,0.4794199999887496,2214.224554499844,None,2214.224554499844,None,2214.7452559999656,None,2214.7452559999656,None,2214.7452559999656,None,2214.7452559999656,None,2214.7452559999656,None,2214.7452559999656,None,2215.0391668998636,None,2215.0391668998636,None,2216.994805000024,None,2216.994805000024,None,2216.994805000024,None,2216.994805000024,None,2216.994805000024,None,2216.994805000024,None,2216.994805000024,None,2216.994805000024,None,2216.994805000024,None,56,43,60,22,43,52,2219.5095824999735,None,3.0,0.6336028999648988,2219.5095824999735,None,2219.5095824999735,None,2219.5095824999735,None,2219.5095824999735,None,None,None,2220.1587054999545,None,,,,,,,113,f,23,2022_Dec_11_1449,RL,2021.2.3,59.90782585654145,
1,73,0,73,0,,,,,,,,,,,,,,,None,None,None,None,None,2222.130361299962,None,2222.130361299962,None,2222.130361299962,None,2222.130361299962,None,i,0.30339430016465485,2222.130361299962,None,2222.130361299962,None,2222.483212299878,None,2222.483212299878,None,2222.483212299878,None,2222.483212299878,None,2222.483212299878,None,2222.483212299878,None,2222.7781189000234,None,2222.7781189000234,None,2224.698074199958,None,2224.698074199958,None,2224.698074199958,None,2224.698074199958,None,2224.698074199958,None,2224.698074199958,None,2224.698074199958,None,2224.698074199958,None,2224.698074199958,None,60,42,54,29,54,48,2227.2104571999516,None,4.0,1.172084600199014,2227.2104571999516,None,2227.2104571999516,None,2227.2104571999516,None,2227.2104571999516,None,None,None,2228.3978238999844,None,,,,,,,113,f,23,2022_Dec_11_1449,RL,2021.2.3,59.90782585654145,
1,74,0,74,0,,,,,,,,,,,,,,,None,None,None,None,None,2229.918841399951,None,2229.918841399951,None,2229.918841399951,None,2229.918841399951,None,r,0.3760592001490295,2229.918841399951,None,2229.918841399951,None,2230.336944299983,None,2230.336944299983,None,2230.336944299983,None,2230.336944299983,None,2230.336944299983,None,2230.336944299983,None,2230.6333686998114,2232.15120740002,2230.6333686998114,2232.15120740002,2232.1839114998,None,2232.1839114998,None,2232.1839114998,None,2232.1839114998,None,2232.1839114998,None,2232.1839114998,None,2232.1839114998,None,2232.1839114998,None,2232.1839114998,None,67,45,54,33,67,43,2234.699125799816,None,4.0,0.5213647000491619,2234.699125799816,None,2234.699125799816,None,2234.699125799816,None,2234.699125799816,None,None,None,2235.235963899875,None,,,,,,,113,f,23,2022_Dec_11_1449,RL,2021.2.3,59.90782585654145,
1,75,0,75,0,,,,,,,,,,,,,,,2237.0042001998518,None,q,2237.0042001998518,None,2308.1059810000006,None,2308.1059810000006,None,2308.1059810000006,None,2308.1059810000006,None,j,0.5656804000027478,2308.1059810000006,None,2308.1059810000006,None,2308.7055746999104,None,2308.7055746999104,None,2308.7055746999104,None,2308.7055746999104,None,2308.7055746999104,None,2308.7055746999104,None,2309.0043695999775,None,2309.0043695999775,None,2310.88756549987,None,2310.88756549987,None,2310.88756549987,None,2310.88756549987,None,2310.88756549987,None,2310.88756549987,None,2310.88756549987,None,2310.88756549987,None,2310.88756549987,None,59,43,56,34,34,40,2313.4054016999435,None,5.0,1.9524193999823183,2313.4054016999435,None,2313.4054016999435,None,2313.4054016999435,None,2313.4054016999435,None,None,None,2315.378964699805,None,71.0792448001448,,,,,,113,f,23,2022_Dec_11_1449,RL,2021.2.3,59.90782585654145,
1,76,0,76,0,,,,,,,,,,,,,,,None,None,None,None,None,2317.062127099838,None,2317.062127099838,None,2317.062127099838,None,2317.062127099838,None,r,0.5094572999514639,2317.062127099838,None,2317.062127099838,None,2317.6144865998067,None,2317.6144865998067,None,2317.6144865998067,None,2317.6144865998067,None,2317.6144865998067,None,2317.6144865998067,None,2317.910393500002,2319.4782177000307,2317.910393500002,2319.4782177000307,2319.509047899861,None,2319.509047899861,None,2319.509047899861,None,2319.509047899861,None,2319.509047899861,None,2319.509047899861,None,2319.509047899861,None,2319.509047899861,None,2319.509047899861,None,64,49,60,35,64,28,2322.024847500026,None,5.0,0.7911648999433964,2322.024847500026,None,2322.024847500026,None,2322.024847500026,None,2322.024847500026,None,None,None,2322.8300083999056,None,,,,,,,113,f,23,2022_Dec_11_1449,RL,2021.2.3,59.90782585654145,
1,77,0,77,0,,,,,,,,,,,,,,,None,None,None,None,None,2324.5181296998635,None,2324.5181296998635,None,2324.5181296998635,None,2324.5181296998635,None,j,0.4332110001705587,2324.5181296998635,None,2324.5181296998635,None,2325.0033871999476,None,2325.0033871999476,None,2325.0033871999476,None,2325.0033871999476,None,2325.0033871999476,None,2325.0033871999476,None,2325.2988591999747,2327.233507799916,2325.2988591999747,2327.233507799916,2327.2648097998463,None,2327.2648097998463,None,2327.2648097998463,None,2327.2648097998463,None,2327.2648097998463,None,2327.2648097998463,None,2327.2648097998463,None,2327.2648097998463,None,2327.2648097998463,None,58,49,46,41,41,25,2329.7802875998896,None,4.0,0.5069102998822927,2329.7802875998896,None,2329.7802875998896,None,2329.7802875998896,None,2329.7802875998896,None,None,None,2330.3059085998684,None,,,,,,,113,f,23,2022_Dec_11_1449,RL,2021.2.3,59.90782585654145,
1,78,0,78,0,,,,,,,,,,,,,,,None,None,None,None,None,2331.972624799935,None,2331.972624799935,None,2331.972624799935,None,2331.972624799935,None,f,0.39913100004196167,2331.972624799935,None,2331.972624799935,None,2332.4262133999728,None,2332.4262133999728,None,2332.4262133999728,None,2332.4262133999728,None,2332.4262133999728,None,2332.4262133999728,None,2332.720565699972,2333.9047960999887,2332.720565699972,2333.9047960999887,2333.9354348999914,None,2333.9354348999914,None,2333.9354348999914,None,2333.9354348999914,None,2333.9354348999914,None,2333.9354348999914,None,2333.9354348999914,None,2333.9354348999914,None,2333.9354348999914,None,52,49,46,32,49,31,2336.454549100017,None,4.0,0.7028411000501364,2336.454549100017,None,2336.454549100017,None,2336.454549100017,None,2336.454549100017,None,None,None,2337.1734559999313,None,,,,,,,113,f,23,2022_Dec_11_1449,RL,2021.2.3,59.90782585654145,
1,79,0,79,0,,,,,,,,,,,,,,,None,None,None,None,None,2338.7281064998824,None,2338.7281064998824,None,2338.7281064998824,None,2338.7281064998824,None,i,0.30356430006213486,2338.7281064998824,None,2338.7281064998824,None,2339.083594699856,None,2339.083594699856,None,2339.083594699856,None,2339.083594699856,None,2339.083594699856,None,2339.083594699856,None,2339.3752856999636,None,2339.3752856999636,None,2340.6629531998187,None,2340.6629531998187,None,2340.6629531998187,None,2340.6629531998187,None,2340.6629531998187,None,2340.6629531998187,None,2340.6629531998187,None,2340.6629531998187,None,2340.6629531998187,None,54,50,37,43,37,34,2343.189261500025,None,4.0,0.5550909999292344,2343.189261500025,None,2343.189261500025,None,2343.189261500025,None,2343.189261500025,None,None,None,2343.7617018998135,None,,,,,,,113,f,23,2022_Dec_11_1449,RL,2021.2.3,59.90782585654145,
1,80,0,80,0,,,,,,,,,,,,,,,None,None,None,None,None,2345.349217799958,None,2345.349217799958,None,2345.349217799958,None,2345.349217799958,None,r,0.34248280012980103,2345.349217799958,None,2345.349217799958,None,2345.7360456997994,None,2345.7360456997994,None,2345.7360456997994,None,2345.7360456997994,None,2345.7360456997994,None,2345.7360456997994,None,2346.029959099833,None,2346.029959099833,None,2347.627531899838,None,2347.627531899838,None,2347.627531899838,None,2347.627531899838,None,2347.627531899838,None,2347.627531899838,None,2347.627531899838,None,2347.627531899838,None,2347.627531899838,None,52,56,39,39,52,46,2350.14550769981,None,4.0,0.5047553000040352,2350.14550769981,None,2350.14550769981,None,2350.14550769981,None,2350.14550769981,None,None,None,2350.6657906000037,None,,,,,,,113,f,23,2022_Dec_11_1449,RL,2021.2.3,59.90782585654145,
1,81,0,81,0,,,,,,,,,,,,,,,None,None,None,None,None,2352.4203198999166,None,2352.4203198999166,None,2352.4203198999166,None,2352.4203198999166,None,j,0.5211970000527799,2352.4203198999166,None,2352.4203198999166,None,2352.9891158998944,None,2352.9891158998944,None,2352.9891158998944,None,2352.9891158998944,None,2352.9891158998944,None,2352.9891158998944,None,2353.2851748999674,None,2353.2851748999674,None,2355.183680600021,None,2355.183680600021,None,2355.183680600021,None,2355.183680600021,None,2355.183680600021,None,2355.183680600021,None,2355.183680600021,None,2355.183680600021,None,2355.183680600021,None,53,57,31,35,35,45,2357.7009397000074,None,4.0,0.6370963000226766,2357.7009397000074,None,2357.7009397000074,None,2357.7009397000074,None,2357.7009397000074,None,None,None,2358.3549914998002,None,,,,,,,113,f,23,2022_Dec_11_1449,RL,2021.2.3,59.90782585654145,
1,82,0,82,0,,,,,,,,,,,,,,,None,None,None,None,None,2360.10944489995,None,2360.10944489995,None,2360.10944489995,None,2360.10944489995,None,None,,2360.10944489995,None,2360.10944489995,None,None,None,None,None,None,None,None,None,None,None,None,None,None,None,None,None,None,None,None,None,None,None,None,None,None,None,None,None,None,None,None,None,None,None,57,53,43,38,0,**,None,None,None,None,None,None,None,None,None,None,None,None,2361.666503199842,None,2366.176871899981,None,,,,,,,113,f,23,2022_Dec_11_1449,RL,2021.2.3,59.90782585654145,
1,83,0,83,0,,,,,,,,,,,,,,,None,None,None,None,None,2367.8805376000237,None,2367.8805376000237,None,2367.8805376000237,None,2367.8805376000237,None,f,0.52119359979406,2367.8805376000237,None,2367.8805376000237,None,2368.45165599999,None,2368.45165599999,None,2368.45165599999,None,2368.45165599999,None,2368.45165599999,None,2368.45165599999,None,2368.74561610003,None,2368.74561610003,None,2370.2508751000278,None,2370.2508751000278,None,2370.2508751000278,None,2370.2508751000278,None,2370.2508751000278,None,2370.2508751000278,None,2370.2508751000278,None,2370.2508751000278,None,2370.2508751000278,None,56,55,46,42,55,46,2372.7656968999654,None,4.0,0.5349159000907093,2372.7656968999654,None,2372.7656968999654,None,2372.7656968999654,None,2372.7656968999654,None,None,None,2373.3148966999725,None,,,,,,,113,f,23,2022_Dec_11_1449,RL,2021.2.3,59.90782585654145,
1,84,0,84,0,,,,,,,,,,,,,,,None,None,None,None,None,2375.1351442998275,None,2375.1351442998275,None,2375.1351442998275,None,2375.1351442998275,None,i,0.3165891000535339,2375.1351442998275,None,2375.1351442998275,None,2375.4893677998334,None,2375.4893677998334,None,2375.4893677998334,None,2375.4893677998334,None,2375.4893677998334,None,2375.4893677998334,None,2375.7838549998123,None,2375.7838549998123,None,2377.7164371998515,None,2377.7164371998515,None,2377.7164371998515,None,2377.7164371998515,None,2377.7164371998515,None,2377.7164371998515,None,2377.7164371998515,None,2377.7164371998515,None,2377.7164371998515,None,46,53,37,38,37,41,2380.2377738999203,None,3.0,0.7001382000744343,2380.2377738999203,None,2380.2377738999203,None,2380.2377738999203,None,2380.2377738999203,None,None,None,2380.9578778999858,None,,,,,,,113,f,23,2022_Dec_11_1449,RL,2021.2.3,59.90782585654145,
1,85,0,85,0,,,,,,,,,,,,,,,None,None,None,None,None,2382.9236434998456,None,2382.9236434998456,None,2382.9236434998456,None,2382.9236434998456,None,r,0.39800629997625947,2382.9236434998456,None,2382.9236434998456,None,2383.3530358998105,None,2383.3530358998105,None,2383.3530358998105,None,2383.3530358998105,None,2383.3530358998105,None,2383.3530358998105,None,2383.639591099927,None,2383.639591099927,None,2385.2868905998766,None,2385.2868905998766,None,2385.2868905998766,None,2385.2868905998766,None,2385.2868905998766,None,2385.2868905998766,None,2385.2868905998766,None,2385.2868905998766,None,2385.2868905998766,None,45,53,49,40,45,50,2387.8079112998676,None,3.0,1.185566000174731,2387.8079112998676,None,2387.8079112998676,None,2387.8079112998676,None,2387.8079112998676,None,None,None,2389.0094645000063,None,,,,,,,113,f,23,2022_Dec_11_1449,RL,2021.2.3,59.90782585654145,
1,86,0,86,0,,,,,,,,,,,,,,,None,None,None,None,None,2390.563790399814,None,2390.563790399814,None,2390.563790399814,None,2390.563790399814,None,i,0.6282037000637501,2390.563790399814,None,2390.563790399814,None,2391.2324683999177,None,2391.2324683999177,None,2391.2324683999177,None,2391.2324683999177,None,2391.2324683999177,None,2391.2324683999177,None,2391.5283100998495,None,2391.5283100998495,None,2392.925978799816,None,2392.925978799816,None,2392.925978799816,None,2392.925978799816,None,2392.925978799816,None,2392.925978799816,None,2392.925978799816,None,2392.925978799816,None,2392.925978799816,None,54,52,37,48,37,50,2395.4484542999417,None,4.0,2.8012618999928236,2395.4484542999417,None,2395.4484542999417,None,2395.4484542999417,None,2395.4484542999417,None,None,None,2398.2655686999205,None,,,,,,,113,f,23,2022_Dec_11_1449,RL,2021.2.3,59.90782585654145,
1,87,0,87,0,,,,,,,,,,,,,,,None,None,None,None,None,2400.036862100009,None,2400.036862100009,None,2400.036862100009,None,2400.036862100009,None,f,0.4553533000871539,2400.036862100009,None,2400.036862100009,None,2400.5388920998666,None,2400.5388920998666,None,2400.5388920998666,None,2400.5388920998666,None,2400.5388920998666,None,2400.5388920998666,None,2400.8346090998966,2402.0353247998282,2400.8346090998966,2402.0353247998282,2402.067393800011,None,2402.067393800011,None,2402.067393800011,None,2402.067393800011,None,2402.067393800011,None,2402.067393800011,None,2402.067393800011,None,2402.067393800011,None,2402.067393800011,None,44,59,41,37,59,30,2404.584666499868,None,4.0,1.7225885998923331,2404.584666499868,None,2404.584666499868,None,2404.584666499868,None,2404.584666499868,None,None,None,2406.3224641999695,None,,,,,,,113,f,23,2022_Dec_11_1449,RL,2021.2.3,59.90782585654145,
1,88,0,88,0,,,,,,,,,,,,,,,None,None,None,None,None,2408.1591679998673,None,2408.1591679998673,None,2408.1591679998673,None,2408.1591679998673,None,i,0.41311599989421666,2408.1591679998673,None,2408.1591679998673,None,2408.6118530000094,None,2408.6118530000094,None,2408.6118530000094,None,2408.6118530000094,None,2408.6118530000094,None,2408.6118530000094,None,2408.9067722999025,None,2408.9067722999025,None,2410.45430699992,None,2410.45430699992,None,2410.45430699992,None,2410.45430699992,None,2410.45430699992,None,2410.45430699992,None,2410.45430699992,None,2410.45430699992,None,2410.45430699992,None,46,41,47,44,47,33,2412.9742668999825,None,4.0,0.7841651998460293,2412.9742668999825,None,2412.9742668999825,None,2412.9742668999825,None,2412.9742668999825,None,None,None,2413.777373999823,None,,,,,,,113,f,23,2022_Dec_11_1449,RL,2021.2.3,59.90782585654145,
1,89,0,89,0,,,,,,,,,,,,,,,None,None,None,None,None,2415.480453599943,None,2415.480453599943,None,2415.480453599943,None,2415.480453599943,None,r,0.6016871999017894,2415.480453599943,None,2415.480453599943,None,2416.132106699981,None,2416.132106699981,None,2416.132106699981,None,2416.132106699981,None,2416.132106699981,None,2416.132106699981,None,2416.428751199972,None,2416.428751199972,None,2417.860851199832,None,2417.860851199832,None,2417.860851199832,None,2417.860851199832,None,2417.860851199832,None,2417.860851199832,None,2417.860851199832,None,2417.860851199832,None,2417.860851199832,None,41,54,40,41,41,43,2420.3793977999594,None,4.0,1.4227062000427395,2420.3793977999594,None,2420.3793977999594,None,2420.3793977999594,None,2420.3793977999594,None,None,None,2421.815239199903,None,,,,,,,113,f,23,2022_Dec_11_1449,RL,2021.2.3,59.90782585654145,
1,90,0,90,0,,,,,,,,,,,,,,,None,None,None,None,None,2423.370129399933,None,2423.370129399933,None,2423.370129399933,None,2423.370129399933,None,i,0.5019932000432163,2423.370129399933,None,2423.370129399933,None,2423.9233406998683,None,2423.9233406998683,None,2423.9233406998683,None,2423.9233406998683,None,2423.9233406998683,None,2423.9233406998683,None,2424.217324899975,None,2424.217324899975,None,2425.3856275000144,None,2425.3856275000144,None,2425.3856275000144,None,2425.3856275000144,None,2425.3856275000144,None,2425.3856275000144,None,2425.3856275000144,None,2425.3856275000144,None,2425.3856275000144,None,48,52,50,49,50,47,2427.9020902998745,None,4.0,0.8526750998571515,2427.9020902998745,None,2427.9020902998745,None,2427.9020902998745,None,2427.9020902998745,None,None,None,2428.7699571999256,None,,,,,,,113,f,23,2022_Dec_11_1449,RL,2021.2.3,59.90782585654145,
1,91,0,91,0,,,,,,,,,,,,,,,None,None,None,None,None,2430.5741256999318,None,2430.5741256999318,None,2430.5741256999318,None,2430.5741256999318,None,f,0.3792755000758916,2430.5741256999318,None,2430.5741256999318,None,2430.99629619997,None,2430.99629619997,None,2430.99629619997,None,2430.99629619997,None,2430.99629619997,None,2430.99629619997,None,2431.2890832999256,2432.4230327999685,2431.2890832999256,2432.4230327999685,2432.4589762999676,None,2432.4589762999676,None,2432.4589762999676,None,2432.4589762999676,None,2432.4589762999676,None,2432.4589762999676,None,2432.4589762999676,None,2432.4589762999676,None,2432.4589762999676,None,50,55,38,55,55,59,2434.971112899948,None,5.0,1.4407160999253392,2434.971112899948,None,2434.971112899948,None,2434.971112899948,None,2434.971112899948,None,None,None,2436.425534099806,None,,,,,,,113,f,23,2022_Dec_11_1449,RL,2021.2.3,59.90782585654145,
1,92,0,92,0,,,,,,,,,,,,,,,None,None,None,None,None,2438.0629398999736,None,2438.0629398999736,None,2438.0629398999736,None,2438.0629398999736,None,j,0.40057200007140636,2438.0629398999736,None,2438.0629398999736,None,2438.516049399972,None,2438.516049399972,None,2438.516049399972,None,2438.516049399972,None,2438.516049399972,None,2438.516049399972,None,2438.8109944998287,None,2438.8109944998287,None,2439.7072957998607,None,2439.7072957998607,None,2439.7072957998607,None,2439.7072957998607,None,2439.7072957998607,None,2439.7072957998607,None,2439.7072957998607,None,2439.7072957998607,None,2439.7072957998607,None,44,50,42,63,63,48,2442.2268641998526,None,5.0,1.6889114000368863,2442.2268641998526,None,2442.2268641998526,None,2442.2268641998526,None,2442.2268641998526,None,None,None,2443.930596599821,None,,,,,,,113,f,23,2022_Dec_11_1449,RL,2021.2.3,59.90782585654145,
1,93,0,93,0,,,,,,,,,,,,,,,None,None,None,None,None,2445.9358157999814,None,2445.9358157999814,None,2445.9358157999814,None,2445.9358157999814,None,r,0.45777609990909696,2445.9358157999814,None,2445.9358157999814,None,2446.436173300026,None,2446.436173300026,None,2446.436173300026,None,2446.436173300026,None,2446.436173300026,None,2446.436173300026,None,2446.733120799996,2447.7002899998333,2446.733120799996,2447.7002899998333,2447.734948299825,None,2447.734948299825,None,2447.734948299825,None,2447.734948299825,None,2447.734948299825,None,2447.734948299825,None,2447.734948299825,None,2447.734948299825,None,2447.734948299825,None,42,47,49,56,42,43,2450.243945800001,None,4.0,0.9759539999067783,2450.243945800001,None,2450.243945800001,None,2450.243945800001,None,2450.243945800001,None,None,None,2451.2355370000005,None,,,,,,,113,f,23,2022_Dec_11_1449,RL,2021.2.3,59.90782585654145,
1,94,0,94,0,,,,,,,,,,,,,,,None,None,None,None,None,2452.973415999906,None,2452.973415999906,None,2452.973415999906,None,2452.973415999906,None,i,0.35009189997799695,2452.973415999906,None,2452.973415999906,None,2453.3763656998053,None,2453.3763656998053,None,2453.3763656998053,None,2453.3763656998053,None,2453.3763656998053,None,2453.3763656998053,None,2453.6712011999916,None,2453.6712011999916,None,2455.454873099923,None,2455.454873099923,None,2455.454873099923,None,2455.454873099923,None,2455.454873099923,None,2455.454873099923,None,2455.454873099923,None,2455.454873099923,None,2455.454873099923,None,46,50,53,52,53,47,2457.9696363999974,None,4.0,0.7707556998357177,2457.9696363999974,None,2457.9696363999974,None,2457.9696363999974,None,2457.9696363999974,None,None,None,2458.7576958998106,None,,,,,,,113,f,23,2022_Dec_11_1449,RL,2021.2.3,59.90782585654145,
1,95,0,95,0,,,,,,,,,,,,,,,None,None,None,None,None,2460.379318999825,None,2460.379318999825,None,2460.379318999825,None,2460.379318999825,None,f,0.34405529987998307,2460.379318999825,None,2460.379318999825,None,2460.765096799936,None,2460.765096799936,None,2460.765096799936,None,2460.765096799936,None,2460.765096799936,None,2460.765096799936,None,2461.059875899926,None,2461.059875899926,None,2462.363884499995,None,2462.363884499995,None,2462.363884499995,None,2462.363884499995,None,2462.363884499995,None,2462.363884499995,None,2462.363884499995,None,2462.363884499995,None,2462.363884499995,None,45,49,52,54,49,48,2464.8834340998437,None,4.0,0.4983614000957459,2464.8834340998437,None,2464.8834340998437,None,2464.8834340998437,None,2464.8834340998437,None,None,None,2465.3954368999694,None,,,,,,,113,f,23,2022_Dec_11_1449,RL,2021.2.3,59.90782585654145,
1,96,0,96,0,,,,,,,,,,,,,,,None,None,None,None,None,2467.1004041999113,None,2467.1004041999113,None,2467.1004041999113,None,2467.1004041999113,None,r,0.5930266999639571,2467.1004041999113,None,2467.1004041999113,None,2467.7318587999325,None,2467.7318587999325,None,2467.7318587999325,None,2467.7318587999325,None,2467.7318587999325,None,2467.7318587999325,None,2468.0313948998228,None,2468.0313948998228,None,2469.968433199916,None,2469.968433199916,None,2469.968433199916,None,2469.968433199916,None,2469.968433199916,None,2469.968433199916,None,2469.968433199916,None,2469.968433199916,None,2469.968433199916,None,37,45,51,55,37,51,2472.479231499834,None,3.0,0.9905354999937117,2472.479231499834,None,2472.479231499834,None,2472.479231499834,None,2472.479231499834,None,None,None,2473.488072599983,None,,,,,,,113,f,23,2022_Dec_11_1449,RL,2021.2.3,59.90782585654145,
1,97,0,97,0,,,,,,,,,,,,,,,None,None,None,None,None,2475.272434799932,None,2475.272434799932,None,2475.272434799932,None,2475.272434799932,None,j,0.3909565000794828,2475.272434799932,None,2475.272434799932,None,2475.7103932998143,None,2475.7103932998143,None,2475.7103932998143,None,2475.7103932998143,None,2475.7103932998143,None,2475.7103932998143,None,2475.9866269999184,2477.804479499813,2475.9866269999184,2477.804479499813,2477.8350151998457,None,2477.8350151998457,None,2477.8350151998457,None,2477.8350151998457,None,2477.8350151998457,None,2477.8350151998457,None,2477.8350151998457,None,2477.8350151998457,None,2477.8350151998457,None,56,34,50,55,55,48,2480.352544599911,None,4.0,1.4042807000223547,2480.352544599911,None,2480.352544599911,None,2480.352544599911,None,2480.352544599911,None,None,None,2481.773426799802,None,,,,,,,113,f,23,2022_Dec_11_1449,RL,2021.2.3,59.90782585654145,
1,98,0,98,0,,,,,,,,,,,,,,,None,None,None,None,None,2483.527843199903,None,2483.527843199903,None,2483.527843199903,None,2483.527843199903,None,f,0.40537870000116527,2483.527843199903,None,2483.527843199903,None,2483.9813732998446,None,2483.9813732998446,None,2483.9813732998446,None,2483.9813732998446,None,2483.9813732998446,None,2483.9813732998446,None,2484.2760757999495,None,2484.2760757999495,None,2486.0556188998744,None,2486.0556188998744,None,2486.0556188998744,None,2486.0556188998744,None,2486.0556188998744,None,2486.0556188998744,None,2486.0556188998744,None,2486.0556188998744,None,2486.0556188998744,None,49,42,47,54,42,42,2488.5742766999174,None,4.0,0.5072749999817461,2488.5742766999174,None,2488.5742766999174,None,2488.5742766999174,None,2488.5742766999174,None,None,None,2489.095563699957,None,,,,,,,113,f,23,2022_Dec_11_1449,RL,2021.2.3,59.90782585654145,
1,99,0,99,0,,,,,,,,,,,,,,,None,None,None,None,None,2491.099313999992,None,2491.099313999992,None,2491.099313999992,None,2491.099313999992,None,i,0.314564700005576,2491.099313999992,None,2491.099313999992,None,2491.454232899938,None,2491.454232899938,None,2491.454232899938,None,2491.454232899938,None,2491.454232899938,None,2491.454232899938,None,2491.747543199919,2493.615331399953,2491.747543199919,2493.615331399953,2493.6465846998617,None,2493.6465846998617,None,2493.6465846998617,None,2493.6465846998617,None,2493.6465846998617,None,2493.6465846998617,None,2493.6465846998617,None,2493.6465846998617,None,2493.6465846998617,None,57,44,40,55,40,45,2496.1627179998904,None,4.0,1.3715918001253158,2496.1627179998904,None,2496.1627179998904,None,2496.1627179998904,None,2496.1627179998904,None,None,None,2497.551158099901,None,,,,,,,113,f,23,2022_Dec_11_1449,RL,2021.2.3,59.90782585654145,
1,100,0,100,0,,,,,,,,,,,,,,,None,None,None,None,None,2499.3888304999564,None,2499.3888304999564,None,2499.3888304999564,None,2499.3888304999564,None,f,0.4650621998589486,2499.3888304999564,None,2499.3888304999564,None,2499.8969576000236,None,2499.8969576000236,None,2499.8969576000236,None,2499.8969576000236,None,2499.8969576000236,None,2499.8969576000236,None,2500.1868298999034,None,2500.1868298999034,None,2501.5017291000113,None,2501.5017291000113,None,2501.5017291000113,None,2501.5017291000113,None,2501.5017291000113,None,2501.5017291000113,None,2501.5017291000113,None,2501.5017291000113,None,2501.5017291000113,None,52,35,47,61,35,44,2504.0203335999977,None,4.0,1.3526324999984354,2504.0203335999977,None,2504.0203335999977,None,2504.0203335999977,None,2504.0203335999977,None,None,None,2505.390098299831,None,,,,,,,113,f,23,2022_Dec_11_1449,RL,2021.2.3,59.90782585654145,
1,101,0,101,0,,,,,,,,,,,,,,,None,None,None,None,None,2507.1613474998157,None,2507.1613474998157,None,2507.1613474998157,None,2507.1613474998157,None,f,1.1721946999896318,2507.1613474998157,None,2507.1613474998157,None,2508.380993099883,None,2508.380993099883,None,2508.380993099883,None,2508.380993099883,None,2508.380993099883,None,2508.380993099883,None,2508.676030699862,2509.9266959999222,2508.676030699862,2509.9266959999222,2509.9579979998525,None,2509.9579979998525,None,2509.9579979998525,None,2509.9579979998525,None,2509.9579979998525,None,2509.9579979998525,None,2509.9579979998525,None,2509.9579979998525,None,2509.9579979998525,None,42,37,61,54,37,41,2512.4735355998855,None,4.0,0.8046336001716554,2512.4735355998855,None,2512.4735355998855,None,2512.4735355998855,None,2512.4735355998855,None,None,None,2513.295362799894,None,,,,,,,113,f,23,2022_Dec_11_1449,RL,2021.2.3,59.90782585654145,
1,102,0,102,0,,,,,,,,,,,,,,,None,None,None,None,None,2515.166699899826,None,2515.166699899826,None,2515.166699899826,None,2515.166699899826,None,j,0.39706020010635257,2515.166699899826,None,2515.166699899826,None,2515.6055735999253,None,2515.6055735999253,None,2515.6055735999253,None,2515.6055735999253,None,2515.6055735999253,None,2515.6055735999253,None,2515.8976249999832,None,2515.8976249999832,None,2517.3319887998514,None,2517.3319887998514,None,2517.3319887998514,None,2517.3319887998514,None,2517.3319887998514,None,2517.3319887998514,None,2517.3319887998514,None,2517.3319887998514,None,2517.3319887998514,None,45,46,58,60,60,39,2519.846789999865,None,4.0,1.272067999932915,2519.846789999865,None,2519.846789999865,None,2519.846789999865,None,2519.846789999865,None,None,None,2521.134030399844,None,,,,,,,113,f,23,2022_Dec_11_1449,RL,2021.2.3,59.90782585654145,
1,103,0,103,0,,,,,,,,,,,,,,,None,None,None,None,None,2522.788861699868,None,2522.788861699868,None,2522.788861699868,None,2522.788861699868,None,j,0.44511660002171993,2522.788861699868,None,2522.788861699868,None,2523.2747372998856,None,2523.2747372998856,None,2523.2747372998856,None,2523.2747372998856,None,2523.2747372998856,None,2523.2747372998856,None,2523.569701100001,2525.1706397000235,2523.569701100001,2525.1706397000235,2525.2016625998076,None,2525.2016625998076,None,2525.2016625998076,None,2525.2016625998076,None,2525.2016625998076,None,2525.2016625998076,None,2525.2016625998076,None,2525.2016625998076,None,2525.2016625998076,None,47,33,55,60,60,40,2527.728431899799,None,4.0,1.001574199879542,2527.728431899799,None,2527.728431899799,None,2527.728431899799,None,2527.728431899799,None,None,None,2528.7476182000246,None,,,,,,,113,f,23,2022_Dec_11_1449,RL,2021.2.3,59.90782585654145,
1,104,0,104,0,,,,,,,,,,,,,,,None,None,None,None,None,2530.6776663998608,None,2530.6776663998608,None,2530.6776663998608,None,2530.6776663998608,None,i,0.34572180011309683,2530.6776663998608,None,2530.6776663998608,None,2531.0632799998857,None,2531.0632799998857,None,2531.0632799998857,None,2531.0632799998857,None,2531.0632799998857,None,2531.0632799998857,None,2531.35834099981,None,2531.35834099981,None,2532.876429699827,None,2532.876429699827,None,2532.876429699827,None,2532.876429699827,None,2532.876429699827,None,2532.876429699827,None,2532.876429699827,None,2532.876429699827,None,2532.876429699827,None,44,34,51,60,51,28,2535.3899598999415,None,5.0,1.2372604999691248,2535.3899598999415,None,2535.3899598999415,None,2535.3899598999415,None,2535.3899598999415,None,None,None,2536.6464299999643,None,,,,,,,113,f,23,2022_Dec_11_1449,RL,2021.2.3,59.90782585654145,
1,105,0,105,0,,,,,,,,,,,,,,,None,None,None,None,None,2538.482223399915,None,2538.482223399915,None,2538.482223399915,None,2538.482223399915,None,r,0.42151609994471073,2538.482223399915,None,2538.482223399915,None,2538.953080999898,None,2538.953080999898,None,2538.953080999898,None,2538.953080999898,None,2538.953080999898,None,2538.953080999898,None,2539.2472105999477,2540.414610199863,2539.2472105999477,2540.414610199863,2540.4520239999983,None,2540.4520239999983,None,2540.4520239999983,None,2540.4520239999983,None,2540.4520239999983,None,2540.4520239999983,None,2540.4520239999983,None,2540.4520239999983,None,2540.4520239999983,None,38,31,55,63,38,24,2542.979322299827,None,5.0,1.957986099878326,2542.979322299827,None,2542.979322299827,None,2542.979322299827,None,2542.979322299827,None,None,None,2544.9625356998295,None,,,,,,,113,f,23,2022_Dec_11_1449,RL,2021.2.3,59.90782585654145,
1,106,0,106,0,,,,,,,,,,,,,,,None,None,None,None,None,2546.6219448000193,None,2546.6219448000193,None,2546.6219448000193,None,2546.6219448000193,None,j,0.2718724000733346,2546.6219448000193,None,2546.6219448000193,None,2546.9477378998417,None,2546.9477378998417,None,2546.9477378998417,None,2546.9477378998417,None,2546.9477378998417,None,2546.9477378998417,None,2547.236157099949,None,2547.236157099949,None,2548.217270700028,None,2548.217270700028,None,2548.217270700028,None,2548.217270700028,None,2548.217270700028,None,2548.217270700028,None,2548.217270700028,None,2548.217270700028,None,2548.217270700028,None,48,32,51,64,64,28,2550.735397399869,None,4.0,1.7720218000467867,2550.735397399869,None,2550.735397399869,None,2550.735397399869,None,2550.735397399869,None,None,None,2552.5231804000214,None,,,,,,,113,f,23,2022_Dec_11_1449,RL,2021.2.3,59.90782585654145,
1,107,0,107,0,,,,,,,,,,,,,,,None,None,None,None,None,2554.3427442000248,None,2554.3427442000248,None,2554.3427442000248,None,2554.3427442000248,None,i,0.3707588000688702,2554.3427442000248,None,2554.3427442000248,None,2554.7627081000246,None,2554.7627081000246,None,2554.7627081000246,None,2554.7627081000246,None,2554.7627081000246,None,2554.7627081000246,None,2555.0580758999567,None,2555.0580758999567,None,2556.1727309999987,None,2556.1727309999987,None,2556.1727309999987,None,2556.1727309999987,None,2556.1727309999987,None,2556.1727309999987,None,2556.1727309999987,None,2556.1727309999987,None,2556.1727309999987,None,54,22,58,62,58,47,2558.6906651000027,None,4.0,0.6894330999348313,2558.6906651000027,None,2558.6906651000027,None,2558.6906651000027,None,2558.6906651000027,None,None,None,2559.4007782000117,None,,,,,,,113,f,23,2022_Dec_11_1449,RL,2021.2.3,59.90782585654145,
1,108,0,108,0,,,,,,,,,,,,,,,None,None,None,None,None,2561.282113599824,None,2561.282113599824,None,2561.282113599824,None,2561.282113599824,None,f,0.3017956998664886,2561.282113599824,None,2561.282113599824,None,2561.6355896999594,None,2561.6355896999594,None,2561.6355896999594,None,2561.6355896999594,None,2561.6355896999594,None,2561.6355896999594,None,2561.929628999904,None,2561.929628999904,None,2563.5933649998624,None,2563.5933649998624,None,2563.5933649998624,None,2563.5933649998624,None,2563.5933649998624,None,2563.5933649998624,None,2563.5933649998624,None,2563.5933649998624,None,2563.5933649998624,None,61,23,51,74,23,17,2566.1099880998954,None,4.0,0.5383612001314759,2566.1099880998954,None,2566.1099880998954,None,2566.1099880998954,None,2566.1099880998954,None,None,None,2566.666266999906,None,,,,,,,113,f,23,2022_Dec_11_1449,RL,2021.2.3,59.90782585654145,
1,109,0,109,0,,,,,,,,,,,,,,,None,None,None,None,None,2568.2035422998015,None,2568.2035422998015,None,2568.2035422998015,None,2568.2035422998015,None,i,0.4002755999099463,2568.2035422998015,None,2568.2035422998015,None,2568.657826999901,None,2568.657826999901,None,2568.657826999901,None,2568.657826999901,None,2568.657826999901,None,2568.657826999901,None,2568.934493199922,2570.6854856999125,2568.934493199922,2570.6854856999125,2570.715341700008,None,2570.715341700008,None,2570.715341700008,None,2570.715341700008,None,2570.715341700008,None,2570.715341700008,None,2570.715341700008,None,2570.715341700008,None,2570.715341700008,None,49,23,59,57,59,41,2573.2393644999247,None,3.0,1.2327358999755234,2573.2393644999247,None,2573.2393644999247,None,2573.2393644999247,None,2573.2393644999247,None,None,None,2574.4879232998937,None,,,,,,,113,f,23,2022_Dec_11_1449,RL,2021.2.3,59.90782585654145,
1,110,0,110,0,,,,,,,,,,,,,,,None,None,None,None,None,2576.3246404000092,None,2576.3246404000092,None,2576.3246404000092,None,2576.3246404000092,None,f,0.34937960002571344,2576.3246404000092,None,2576.3246404000092,None,2576.7118398998864,None,2576.7118398998864,None,2576.7118398998864,None,2576.7118398998864,None,2576.7118398998864,None,2576.7118398998864,None,2577.00668199989,None,2577.00668199989,None,2578.9373816000298,None,2578.9373816000298,None,2578.9373816000298,None,2578.9373816000298,None,2578.9373816000298,None,2578.9373816000298,None,2578.9373816000298,None,2578.9373816000298,None,2578.9373816000298,None,53,29,49,67,29,26,2581.4607330998406,None,4.0,1.5677024000324309,2581.4607330998406,None,2581.4607330998406,None,2581.4607330998406,None,2581.4607330998406,None,None,None,2583.043758200016,None,,,,,,,113,f,23,2022_Dec_11_1449,RL,2021.2.3,59.90782585654145,
