bandit,trials.thisRepN,trials.thisTrialN,trials.thisN,trials.thisIndex,instru_img1.started,instru_resp.started,instru_resp.keys,instru_resp.rt,instru_img2.started,instru_resp2.started,instru_resp2.keys,instru_resp2.rt,fixbefore_2.started,rest_response.keys,red.started,green.started,yellow.started,blue.started,choose_bandit.started,Fixation.started,choose_bandit.keys,choose_bandit.rt,black.started,red_2.started,green_2.started,yellow_2.started,blue_2.started,fixation_2.started,docs.started,image_2.started,docs.stopped,image_2.stopped,black.stopped,red_2.stopped,green_2.stopped,yellow_2.stopped,blue_2.stopped,fixation_2.stopped,black_com.started,reward_sub.started,palyerb.started,reward__sub.started,compare.started,red_compare.started,green_com.started,yellow_com.started,blue_com.started,image_3.started,slider.started,text.started,image_4.started,image_5.started,rewardyellow,rewardred,rewardblue,rewardgreen,subchoose,playerb,slider.response,slider.rt,intertrialfix.started,intertrialfix.stopped,rest_image.started,rest_response.started,rest_response.rt,image.started,key_resp.started,key_resp.keys,participant,Gender,Age,date,expName,psychopyVersion,frameRate,
,,,,,1568.3847953001969,1568.3847953001969,space,38.69304460007697,,,,,,,,,,,,,,,,,,,,,,,,,,,,,,,,,,,,,,,,,,,,,,,,,,,,,,,,,,,,,114,f,1,2022-12-11_14h50.10.264,RL,2022.2.4,60.005424643461325,
,,,,,,,,,1607.113676500041,1607.113676500041,space,24.935457000043243,,,,,,,,,,,,,,,,,,,,,,,,,,,,,,,,,,,,,,,,,,,,,,,,,,,,,,,,,114,f,1,2022-12-11_14h50.10.264,RL,2022.2.4,60.005424643461325,
1,0,0,0,0,,,,,,,,,1632.0722942999564,None,1633.0917708999477,1633.0917708999477,1633.0917708999477,1633.0917708999477,1633.0917708999477,1633.0917708999477,r,0.3020204002968967,1633.4766742000356,1633.4766742000356,1633.4766742000356,1633.4766742000356,1633.4766742000356,1633.4766742000356,1633.7188281002454,1633.7188281002454,1634.99836420035,1634.99836420035,1635.0715332999825,1635.0715332999825,1635.0715332999825,1635.0715332999825,1635.0715332999825,1635.0715332999825,1635.0715332999825,1635.0715332999825,1635.0715332999825,1635.0715332999825,1635.0715332999825,1635.0715332999825,1635.0715332999825,1635.0715332999825,1635.0715332999825,1637.5747390002944,1637.5747390002944,1637.5747390002944,1637.5747390002944,1637.5747390002944,35,66,47,63,35,47,3.0,3.0572735997848213,1640.6969000999816,1642.361428800039,,,,,,,114,f,1,2022-12-11_14h50.10.264,RL,2022.2.4,60.005424643461325,
1,1,0,1,0,,,,,,,,,,None,1642.361428800039,1642.361428800039,1642.361428800039,1642.361428800039,1642.361428800039,1642.361428800039,r,0.4604515000246465,1642.844724399969,1642.844724399969,1642.844724399969,1642.844724399969,1642.844724399969,1642.844724399969,1643.143160500098,1643.143160500098,1644.688234000001,1644.688234000001,1644.688234000001,1644.688234000001,1644.688234000001,1644.688234000001,1644.688234000001,1644.688234000001,1644.688234000001,1644.688234000001,1644.688234000001,1644.688234000001,1644.688234000001,1644.688234000001,1644.688234000001,1644.688234000001,1644.688234000001,1647.1977268001065,1647.1977268001065,1647.1977268001065,1647.1977268001065,1647.1977268001065,29,74,51,58,29,71,2.0,2.342594299931079,1649.5577885000966,1651.3370465002954,,,,,,,114,f,1,2022-12-11_14h50.10.264,RL,2022.2.4,60.005424643461325,
1,2,0,2,0,,,,,,,,,,None,1651.3370465002954,1651.3370465002954,1651.3370465002954,1651.3370465002954,1651.3370465002954,1651.3370465002954,j,0.33978559961542487,1651.703480700031,1651.703480700031,1651.703480700031,1651.703480700031,1651.703480700031,1651.703480700031,1652.0023898999207,1652.0023898999207,1653.8135329000652,1653.8135329000652,1653.8135329000652,1653.8135329000652,1653.8135329000652,1653.8135329000652,1653.8135329000652,1653.8135329000652,1653.8135329000652,1653.8135329000652,1653.8135329000652,1653.8135329000652,1653.8135329000652,1653.8135329000652,1653.8135329000652,1653.8135329000652,1653.8135329000652,1656.3233429002576,1656.3233429002576,1656.3233429002576,1656.3233429002576,1656.3233429002576,31,60,37,50,50,66,3.0,2.192991000134498,1658.5332474000752,1660.4955583000556,,,,,,,114,f,1,2022-12-11_14h50.10.264,RL,2022.2.4,60.005424643461325,
1,3,0,3,0,,,,,,,,,,None,1660.4955583000556,1660.4955583000556,1660.4955583000556,1660.4955583000556,1660.4955583000556,1660.4955583000556,j,0.3006815998815,1660.8307958999649,1660.8307958999649,1660.8307958999649,1660.8307958999649,1660.8307958999649,1660.8307958999649,1661.1270238002762,1661.1270238002762,1663.1215758002363,1663.1215758002363,1663.1215758002363,1663.1215758002363,1663.1215758002363,1663.1215758002363,1663.1215758002363,1663.1215758002363,1663.1215758002363,1663.1215758002363,1663.1215758002363,1663.1215758002363,1663.1215758002363,1663.1215758002363,1663.1215758002363,1663.1215758002363,1663.1215758002363,1665.6308224000968,1665.6308224000968,1665.6308224000968,1665.6308224000968,1665.6308224000968,32,71,48,50,50,68,3.0,1.3950980002991855,1667.0434348001145,1668.5897093000822,,,,,,,114,f,1,2022-12-11_14h50.10.264,RL,2022.2.4,60.005424643461325,
1,4,0,4,0,,,,,,,,,,None,1668.5897093000822,1668.5897093000822,1668.5897093000822,1668.5897093000822,1668.5897093000822,1668.5897093000822,f,0.42215210013091564,1669.0402513002045,1669.0402513002045,1669.0402513002045,1669.0402513002045,1669.0402513002045,1669.0402513002045,1669.3381743999198,1669.3381743999198,1670.2023006998934,1670.2023006998934,1670.2023006998934,1670.2023006998934,1670.2023006998934,1670.2023006998934,1670.2023006998934,1670.2023006998934,1670.2023006998934,1670.2023006998934,1670.2023006998934,1670.2023006998934,1670.2023006998934,1670.2023006998934,1670.2023006998934,1670.2023006998934,1670.2023006998934,1672.7116630999371,1672.7116630999371,1672.7116630999371,1672.7116630999371,1672.7116630999371,27,73,50,55,73,64,5.0,1.7448161002248526,1674.473474800121,1676.385009400081,,,,,,,114,f,1,2022-12-11_14h50.10.264,RL,2022.2.4,60.005424643461325,
1,5,0,5,0,,,,,,,,,,None,1676.385009400081,1676.385009400081,1676.385009400081,1676.385009400081,1676.385009400081,1676.385009400081,j,0.31807419983670115,1676.7395744002424,1676.7395744002424,1676.7395744002424,1676.7395744002424,1676.7395744002424,1676.7395744002424,1677.034123999998,1677.034123999998,1678.5959081999026,1678.5959081999026,1678.5959081999026,1678.5959081999026,1678.5959081999026,1678.5959081999026,1678.5959081999026,1678.5959081999026,1678.5959081999026,1678.5959081999026,1678.5959081999026,1678.5959081999026,1678.5959081999026,1678.5959081999026,1678.5959081999026,1678.5959081999026,1678.5959081999026,1681.1055128001608,1681.1055128001608,1681.1055128001608,1681.1055128001608,1681.1055128001608,29,60,48,56,56,77,3.0,2.641328999772668,1683.7643953999504,1685.5439641000703,,,,,,,114,f,1,2022-12-11_14h50.10.264,RL,2022.2.4,60.005424643461325,
1,6,0,6,0,,,,,,,,,,None,1685.5439641000703,1685.5439641000703,1685.5439641000703,1685.5439641000703,1685.5439641000703,1685.5439641000703,i,0.3587916996330023,1685.9278196003288,1685.9278196003288,1685.9278196003288,1685.9278196003288,1685.9278196003288,1685.9278196003288,1686.2252287999727,1686.2252287999727,1687.5716460999101,1687.5716460999101,1687.5716460999101,1687.5716460999101,1687.5716460999101,1687.5716460999101,1687.5716460999101,1687.5716460999101,1687.5716460999101,1687.5716460999101,1687.5716460999101,1687.5716460999101,1687.5716460999101,1687.5716460999101,1687.5716460999101,1687.5716460999101,1687.5716460999101,1690.0808037999086,1690.0808037999086,1690.0808037999086,1690.0808037999086,1690.0808037999086,27,67,43,47,43,78,2.0,1.5282033998519182,1691.6264418000355,1693.3889795001596,,,,,,,114,f,1,2022-12-11_14h50.10.264,RL,2022.2.4,60.005424643461325,
1,7,0,7,0,,,,,,,,,,None,1693.3889795001596,1693.3889795001596,1693.3889795001596,1693.3889795001596,1693.3889795001596,1693.3889795001596,f,0.31445399997755885,1693.7260762001388,1693.7260762001388,1693.7260762001388,1693.7260762001388,1693.7260762001388,1693.7260762001388,1694.0205795001239,1694.0205795001239,1695.2842276999727,1695.2842276999727,1695.2842276999727,1695.2842276999727,1695.2842276999727,1695.2842276999727,1695.2842276999727,1695.2842276999727,1695.2842276999727,1695.2842276999727,1695.2842276999727,1695.2842276999727,1695.2842276999727,1695.2842276999727,1695.2842276999727,1695.2842276999727,1695.2842276999727,1697.7933567003347,1697.7933567003347,1697.7933567003347,1697.7933567003347,1697.7933567003347,21,67,49,35,67,42,5.0,1.8274796004407108,1699.6377910003066,1701.3174922000617,,,,,,,114,f,1,2022-12-11_14h50.10.264,RL,2022.2.4,60.005424643461325,
1,8,0,8,0,,,,,,,,,,None,1701.3174922000617,1701.3174922000617,1701.3174922000617,1701.3174922000617,1701.3174922000617,1701.3174922000617,f,0.6214986001141369,1701.967696300242,1701.967696300242,1701.967696300242,1701.967696300242,1701.967696300242,1701.967696300242,1702.2648587999865,1702.2648587999865,1703.8441852000542,1703.8441852000542,1703.8441852000542,1703.8441852000542,1703.8441852000542,1703.8441852000542,1703.8441852000542,1703.8441852000542,1703.8441852000542,1703.8441852000542,1703.8441852000542,1703.8441852000542,1703.8441852000542,1703.8441852000542,1703.8441852000542,1703.8441852000542,1703.8441852000542,1706.3528249002993,1706.3528249002993,1706.3528249002993,1706.3528249002993,1706.3528249002993,21,76,44,44,76,72,4.0,1.3454968999139965,1707.715816500131,1709.6277350001037,,,,,,,114,f,1,2022-12-11_14h50.10.264,RL,2022.2.4,60.005424643461325,
1,9,0,9,0,,,,,,,,,,None,1709.6277350001037,1709.6277350001037,1709.6277350001037,1709.6277350001037,1709.6277350001037,1709.6277350001037,f,0.2960883001796901,1709.9466031999327,1709.9466031999327,1709.9466031999327,1709.9466031999327,1709.9466031999327,1709.9466031999327,1710.2433481002226,1710.2433481002226,1711.4233618001454,1711.4233618001454,1711.4233618001454,1711.4233618001454,1711.4233618001454,1711.4233618001454,1711.4233618001454,1711.4233618001454,1711.4233618001454,1711.4233618001454,1711.4233618001454,1711.4233618001454,1711.4233618001454,1711.4233618001454,1711.4233618001454,1711.4233618001454,1711.4233618001454,1713.931875300128,1713.931875300128,1713.931875300128,1713.931875300128,1713.931875300128,27,66,59,47,66,43,5.0,1.844901599921286,1715.7939829002135,1717.4231497002766,,,,,,,114,f,1,2022-12-11_14h50.10.264,RL,2022.2.4,60.005424643461325,
1,10,0,10,0,,,,,,,,,,None,1717.4231497002766,1717.4231497002766,1717.4231497002766,1717.4231497002766,1717.4231497002766,1717.4231497002766,f,0.5565265002660453,1718.0064216000028,1718.0064216000028,1718.0064216000028,1718.0064216000028,1718.0064216000028,1718.0064216000028,1718.304656200111,1718.304656200111,1719.6676024002954,1719.6676024002954,1719.6676024002954,1719.6676024002954,1719.6676024002954,1719.6676024002954,1719.6676024002954,1719.6676024002954,1719.6676024002954,1719.6676024002954,1719.6676024002954,1719.6676024002954,1719.6676024002954,1719.6676024002954,1719.6676024002954,1719.6676024002954,1719.6676024002954,1722.1766794002615,1722.1766794002615,1722.1766794002615,1722.1766794002615,1722.1766794002615,28,53,47,41,53,64,3.0,1.3792827003635466,1723.5729261003435,1725.5177219002508,,,,,,,114,f,1,2022-12-11_14h50.10.264,RL,2022.2.4,60.005424643461325,
1,11,0,11,0,,,,,,,,,,None,1725.5177219002508,1725.5177219002508,1725.5177219002508,1725.5177219002508,1725.5177219002508,1725.5177219002508,r,0.2884768000803888,1725.8361335000955,1725.8361335000955,1725.8361335000955,1725.8361335000955,1725.8361335000955,1725.8361335000955,1726.133362499997,1726.133362499997,1727.3801035000943,1727.3801035000943,1727.3801035000943,1727.3801035000943,1727.3801035000943,1727.3801035000943,1727.3801035000943,1727.3801035000943,1727.3801035000943,1727.3801035000943,1727.3801035000943,1727.3801035000943,1727.3801035000943,1727.3801035000943,1727.3801035000943,1727.3801035000943,1727.3801035000943,1729.8884944003075,1729.8884944003075,1729.8884944003075,1729.8884944003075,1729.8884944003075,34,61,58,38,34,66,2.0,3.2736531998962164,1733.17953950027,1734.9922406999394,,,,,,,114,f,1,2022-12-11_14h50.10.264,RL,2022.2.4,60.005424643461325,
1,12,0,12,0,,,,,,,,,,None,1734.9922406999394,1734.9922406999394,1734.9922406999394,1734.9922406999394,1734.9922406999394,1734.9922406999394,i,0.2687483998015523,1735.2929154001176,1735.2929154001176,1735.2929154001176,1735.2929154001176,1735.2929154001176,1735.2929154001176,1735.5904462002218,1735.5904462002218,1736.9369856999256,1736.9369856999256,1736.9369856999256,1736.9369856999256,1736.9369856999256,1736.9369856999256,1736.9369856999256,1736.9369856999256,1736.9369856999256,1736.9369856999256,1736.9369856999256,1736.9369856999256,1736.9369856999256,1736.9369856999256,1736.9369856999256,1736.9369856999256,1736.9369856999256,1739.4461047002114,1739.4461047002114,1739.4461047002114,1739.4461047002114,1739.4461047002114,25,49,59,46,59,42,4.0,1.2448530998080969,1740.709567999933,1742.4884453001432,,,,,,,114,f,1,2022-12-11_14h50.10.264,RL,2022.2.4,60.005424643461325,
1,13,0,13,0,,,,,,,,,,None,1742.4884453001432,1742.4884453001432,1742.4884453001432,1742.4884453001432,1742.4884453001432,1742.4884453001432,j,0.4429781003855169,1742.9567737001926,1742.9567737001926,1742.9567737001926,1742.9567737001926,1742.9567737001926,1742.9567737001926,1743.2529700002633,1743.2529700002633,1744.316732100211,1744.316732100211,1744.316732100211,1744.316732100211,1744.316732100211,1744.316732100211,1744.316732100211,1744.316732100211,1744.316732100211,1744.316732100211,1744.316732100211,1744.316732100211,1744.316732100211,1744.316732100211,1744.316732100211,1744.316732100211,1744.316732100211,1746.8257769001648,1746.8257769001648,1746.8257769001648,1746.8257769001648,1746.8257769001648,31,49,51,42,42,73,2.0,2.2254150002263486,1749.0695839999244,1750.7157984003425,,,,,,,114,f,1,2022-12-11_14h50.10.264,RL,2022.2.4,60.005424643461325,
1,14,0,14,0,,,,,,,,,,None,1750.7157984003425,1750.7157984003425,1750.7157984003425,1750.7157984003425,1750.7157984003425,1750.7157984003425,i,0.27120620012283325,1751.0172429000959,1751.0172429000959,1751.0172429000959,1751.0172429000959,1751.0172429000959,1751.0172429000959,1751.3145826999098,1751.3145826999098,1752.4112375001423,1752.4112375001423,1752.4112375001423,1752.4112375001423,1752.4112375001423,1752.4112375001423,1752.4112375001423,1752.4112375001423,1752.4112375001423,1752.4112375001423,1752.4112375001423,1752.4112375001423,1752.4112375001423,1752.4112375001423,1752.4112375001423,1752.4112375001423,1752.4112375001423,1754.920437199995,1754.920437199995,1754.920437199995,1754.920437199995,1754.920437199995,28,54,39,44,39,37,4.0,1.5285614002496004,1756.4660578002222,1758.31155960029,,,,,,,114,f,1,2022-12-11_14h50.10.264,RL,2022.2.4,60.005424643461325,
1,15,0,15,0,,,,,,,,,,None,1758.31155960029,1758.31155960029,1758.31155960029,1758.31155960029,1758.31155960029,1758.31155960029,f,0.2773322998546064,1758.6143889003433,1758.6143889003433,1758.6143889003433,1758.6143889003433,1758.6143889003433,1758.6143889003433,1758.9103840999305,1758.9103840999305,1760.1740260003135,1760.1740260003135,1760.1740260003135,1760.1740260003135,1760.1740260003135,1760.1740260003135,1760.1740260003135,1760.1740260003135,1760.1740260003135,1760.1740260003135,1760.1740260003135,1760.1740260003135,1760.1740260003135,1760.1740260003135,1760.1740260003135,1760.1740260003135,1760.1740260003135,1762.6828872002661,1762.6828872002661,1762.6828872002661,1762.6828872002661,1762.6828872002661,39,49,50,45,49,72,3.0,1.3121881000697613,1764.0123994001187,1765.9073910000734,,,,,,,114,f,1,2022-12-11_14h50.10.264,RL,2022.2.4,60.005424643461325,
1,16,0,16,0,,,,,,,,,,None,1765.9073910000734,1765.9073910000734,1765.9073910000734,1765.9073910000734,1765.9073910000734,1765.9073910000734,r,0.3651195000857115,1766.2940891003236,1766.2940891003236,1766.2940891003236,1766.2940891003236,1766.2940891003236,1766.2940891003236,1766.5894344002008,1766.5894344002008,1767.453894100152,1767.453894100152,1767.453894100152,1767.453894100152,1767.453894100152,1767.453894100152,1767.453894100152,1767.453894100152,1767.453894100152,1767.453894100152,1767.453894100152,1767.453894100152,1767.453894100152,1767.453894100152,1767.453894100152,1767.453894100152,1767.453894100152,1769.9626919003204,1769.9626919003204,1769.9626919003204,1769.9626919003204,1769.9626919003204,32,43,47,44,32,41,3.0,1.1285744002088904,1771.1099172001705,1772.8055773000233,,,,,,,114,f,1,2022-12-11_14h50.10.264,RL,2022.2.4,60.005424643461325,
1,17,0,17,0,,,,,,,,,,None,1772.8055773000233,1772.8055773000233,1772.8055773000233,1772.8055773000233,1772.8055773000233,1772.8055773000233,r,0.45163550041615963,1773.2897896999493,1773.2897896999493,1773.2897896999493,1773.2897896999493,1773.2897896999493,1773.2897896999493,1773.5870475000702,1773.5870475000702,1775.249040500261,1775.249040500261,1775.249040500261,1775.249040500261,1775.249040500261,1775.249040500261,1775.249040500261,1775.249040500261,1775.249040500261,1775.249040500261,1775.249040500261,1775.249040500261,1775.249040500261,1775.249040500261,1775.249040500261,1775.249040500261,1775.249040500261,1777.7581486003473,1777.7581486003473,1777.7581486003473,1777.7581486003473,1777.7581486003473,35,50,49,30,35,56,2.0,2.176365999970585,1779.9522897000425,1781.8642636002041,,,,,,,114,f,1,2022-12-11_14h50.10.264,RL,2022.2.4,60.005424643461325,
1,18,0,18,0,,,,,,,,,,None,1781.8642636002041,1781.8642636002041,1781.8642636002041,1781.8642636002041,1781.8642636002041,1781.8642636002041,f,0.26253459975123405,1782.148848300334,1782.148848300334,1782.148848300334,1782.148848300334,1782.148848300334,1782.148848300334,1782.4459787001833,1782.4459787001833,1783.6265060002916,1783.6265060002916,1783.6265060002916,1783.6265060002916,1783.6265060002916,1783.6265060002916,1783.6265060002916,1783.6265060002916,1783.6265060002916,1783.6265060002916,1783.6265060002916,1783.6265060002916,1783.6265060002916,1783.6265060002916,1783.6265060002916,1783.6265060002916,1783.6265060002916,1786.1356104002334,1786.1356104002334,1786.1356104002334,1786.1356104002334,1786.1356104002334,43,40,48,30,40,46,4.0,1.262081699911505,1787.4150590999052,1789.3770345002413,,,,,,,114,f,1,2022-12-11_14h50.10.264,RL,2022.2.4,60.005424643461325,
1,19,0,19,0,,,,,,,,,,None,1789.3770345002413,1789.3770345002413,1789.3770345002413,1789.3770345002413,1789.3770345002413,1789.3770345002413,f,0.2708417000249028,1789.6787628000602,1789.6787628000602,1789.6787628000602,1789.6787628000602,1789.6787628000602,1789.6787628000602,1789.9758435999975,1789.9758435999975,1791.9538231003098,1791.9538231003098,1791.9538231003098,1791.9538231003098,1791.9538231003098,1791.9538231003098,1791.9538231003098,1791.9538231003098,1791.9538231003098,1791.9538231003098,1791.9538231003098,1791.9538231003098,1791.9538231003098,1791.9538231003098,1791.9538231003098,1791.9538231003098,1791.9538231003098,1794.4624641002156,1794.4624641002156,1794.4624641002156,1794.4624641002156,1794.4624641002156,33,43,55,38,43,49,4.0,1.3622138001956046,1795.842240900267,1797.5214859000407,,,,,,,114,f,1,2022-12-11_14h50.10.264,RL,2022.2.4,60.005424643461325,
1,20,0,20,0,,,,,,,,,,None,1797.5214859000407,1797.5214859000407,1797.5214859000407,1797.5214859000407,1797.5214859000407,1797.5214859000407,j,0.486897399649024,1798.0395991001278,1798.0395991001278,1798.0395991001278,1798.0395991001278,1798.0395991001278,1798.0395991001278,1798.3364929999225,1798.3364929999225,1799.250587800052,1799.250587800052,1799.250587800052,1799.250587800052,1799.250587800052,1799.250587800052,1799.250587800052,1799.250587800052,1799.250587800052,1799.250587800052,1799.250587800052,1799.250587800052,1799.250587800052,1799.250587800052,1799.250587800052,1799.250587800052,1799.250587800052,1801.759862500243,1801.759862500243,1801.759862500243,1801.759862500243,1801.759862500243,39,49,54,34,34,72,2.0,2.226141099818051,1804.0034340000711,1805.8487984002568,,,,,,,114,f,1,2022-12-11_14h50.10.264,RL,2022.2.4,60.005424643461325,
1,21,0,21,0,,,,,,,,,,None,1805.8487984002568,1805.8487984002568,1805.8487984002568,1805.8487984002568,1805.8487984002568,1805.8487984002568,f,0.3953992002643645,1806.2646079999395,1806.2646079999395,1806.2646079999395,1806.2646079999395,1806.2646079999395,1806.2646079999395,1806.5640253000893,1806.5640253000893,1808.3750907001086,1808.3750907001086,1808.3750907001086,1808.3750907001086,1808.3750907001086,1808.3750907001086,1808.3750907001086,1808.3750907001086,1808.3750907001086,1808.3750907001086,1808.3750907001086,1808.3750907001086,1808.3750907001086,1808.3750907001086,1808.3750907001086,1808.3750907001086,1808.3750907001086,1810.884364400059,1810.884364400059,1810.884364400059,1810.884364400059,1810.884364400059,38,50,50,24,50,74,2.0,1.8772533000446856,1812.7795518003404,1814.7744893003255,,,,,,,114,f,1,2022-12-11_14h50.10.264,RL,2022.2.4,60.005424643461325,
1,22,0,22,0,,,,,,,,,,None,1814.7744893003255,1814.7744893003255,1814.7744893003255,1814.7744893003255,1814.7744893003255,1814.7744893003255,i,0.9039011998102069,1815.7100404002704,1815.7100404002704,1815.7100404002704,1815.7100404002704,1815.7100404002704,1815.7100404002704,1816.0044976999052,1816.0044976999052,1817.7999662999064,1817.7999662999064,1817.8165623000823,1817.8165623000823,1817.8165623000823,1817.8165623000823,1817.8165623000823,1817.8165623000823,1817.8165623000823,1817.8165623000823,1817.8165623000823,1817.8165623000823,1817.8165623000823,1817.8165623000823,1817.8165623000823,1817.8165623000823,1817.8165623000823,1820.3253716002218,1820.3253716002218,1820.3253716002218,1820.3253716002218,1820.3253716002218,42,46,56,26,56,58,3.0,2.143266699742526,1822.48604110023,1824.314920899924,,,,,,,114,f,1,2022-12-11_14h50.10.264,RL,2022.2.4,60.005424643461325,
1,23,0,23,0,,,,,,,,,,None,1824.314920899924,1824.314920899924,1824.314920899924,1824.314920899924,1824.314920899924,1824.314920899924,j,0.9073461000807583,1825.2482386999764,1825.2482386999764,1825.2482386999764,1825.2482386999764,1825.2482386999764,1825.2482386999764,1825.5452487999573,1825.5452487999573,1826.5425451002084,1826.5425451002084,1826.5425451002084,1826.5425451002084,1826.5425451002084,1826.5425451002084,1826.5425451002084,1826.5425451002084,1826.5425451002084,1826.5425451002084,1826.5425451002084,1826.5425451002084,1826.5425451002084,1826.5425451002084,1826.5425451002084,1826.5425451002084,1826.5425451002084,1829.051732700318,1829.051732700318,1829.051732700318,1829.051732700318,1829.051732700318,45,47,51,38,38,61,2.0,1.8440080997534096,1830.9130849000067,1832.9081486002542,,,,,,,114,f,1,2022-12-11_14h50.10.264,RL,2022.2.4,60.005424643461325,
1,24,0,24,0,,,,,,,,,,None,1832.9081486002542,1832.9081486002542,1832.9081486002542,1832.9081486002542,1832.9081486002542,1832.9081486002542,j,0.7140621999278665,1833.6421852000058,1833.6421852000058,1833.6421852000058,1833.6421852000058,1833.6421852000058,1833.6421852000058,1833.9389228001237,1833.9389228001237,1834.803431800101,1834.803431800101,1834.803431800101,1834.803431800101,1834.803431800101,1834.803431800101,1834.803431800101,1834.803431800101,1834.803431800101,1834.803431800101,1834.803431800101,1834.803431800101,1834.803431800101,1834.803431800101,1834.803431800101,1834.803431800101,1834.803431800101,1837.3125141002238,1837.3125141002238,1837.3125141002238,1837.3125141002238,1837.3125141002238,40,40,50,30,30,61,2.0,2.4255440002307296,1839.7558764000423,1841.6010627001524,,,,,,,114,f,1,2022-12-11_14h50.10.264,RL,2022.2.4,60.005424643461325,
1,25,0,25,0,,,,,,,,,,None,1841.6010627001524,1841.6010627001524,1841.6010627001524,1841.6010627001524,1841.6010627001524,1841.6010627001524,f,0.4507528003305197,1842.0883307000622,1842.0883307000622,1842.0883307000622,1842.0883307000622,1842.0883307000622,1842.0883307000622,1842.3826574003324,1842.3826574003324,1843.7953107003123,1843.7953107003123,1843.7953107003123,1843.7953107003123,1843.7953107003123,1843.7953107003123,1843.7953107003123,1843.7953107003123,1843.7953107003123,1843.7953107003123,1843.7953107003123,1843.7953107003123,1843.7953107003123,1843.7953107003123,1843.7953107003123,1843.7953107003123,1843.7953107003123,1846.3041970999911,1846.3041970999911,1846.3041970999911,1846.3041970999911,1846.3041970999911,48,45,52,32,45,52,3.0,1.5448815999552608,1847.867261600215,1849.729226599913,,,,,,,114,f,1,2022-12-11_14h50.10.264,RL,2022.2.4,60.005424643461325,
1,26,0,26,0,,,,,,,,,,None,1849.729226599913,1849.729226599913,1849.729226599913,1849.729226599913,1849.729226599913,1849.729226599913,i,0.5681320000439882,1850.3299863003194,1850.3299863003194,1850.3299863003194,1850.3299863003194,1850.3299863003194,1850.3299863003194,1850.6266319002025,1850.6266319002025,1852.1558770001866,1852.1558770001866,1852.1558770001866,1852.1558770001866,1852.1558770001866,1852.1558770001866,1852.1558770001866,1852.1558770001866,1852.1558770001866,1852.1558770001866,1852.1558770001866,1852.1558770001866,1852.1558770001866,1852.1558770001866,1852.1558770001866,1852.1558770001866,1852.1558770001866,1854.6651722001843,1854.6651722001843,1854.6651722001843,1854.6651722001843,1854.6651722001843,43,45,52,32,52,76,2.0,2.1260333000682294,1856.8090590001084,1858.4218878000975,,,,,,,114,f,1,2022-12-11_14h50.10.264,RL,2022.2.4,60.005424643461325,
1,27,0,27,0,,,,,,,,,,None,1858.4218878000975,1858.4218878000975,1858.4218878000975,1858.4218878000975,1858.4218878000975,1858.4218878000975,j,0.8501277002505958,1859.303731100168,1859.303731100168,1859.303731100168,1859.303731100168,1859.303731100168,1859.303731100168,1859.6021761000156,1859.6021761000156,1860.63288510032,1860.63288510032,1860.63288510032,1860.63288510032,1860.63288510032,1860.63288510032,1860.63288510032,1860.63288510032,1860.63288510032,1860.63288510032,1860.63288510032,1860.63288510032,1860.63288510032,1860.63288510032,1860.63288510032,1860.63288510032,1860.63288510032,1863.142163600307,1863.142163600307,1863.142163600307,1863.142163600307,1863.142163600307,43,45,47,34,34,60,4.0,2.459054199978709,1865.6185387000442,1867.4472596999258,,,,,,,114,f,1,2022-12-11_14h50.10.264,RL,2022.2.4,60.005424643461325,
1,28,0,28,0,,,,,,,,,,None,1867.4472596999258,1867.4472596999258,1867.4472596999258,1867.4472596999258,1867.4472596999258,1867.4472596999258,j,0.8694821000099182,1868.3479893999174,1868.3479893999174,1868.3479893999174,1868.3479893999174,1868.3479893999174,1868.3479893999174,1868.6444240999408,1868.6444240999408,1870.3733296999708,1870.3733296999708,1870.3733296999708,1870.3733296999708,1870.3733296999708,1870.3733296999708,1870.3733296999708,1870.3733296999708,1870.3733296999708,1870.3733296999708,1870.3733296999708,1870.3733296999708,1870.3733296999708,1870.3733296999708,1870.3733296999708,1870.3733296999708,1870.3733296999708,1872.882234199904,1872.882234199904,1872.882234199904,1872.882234199904,1872.882234199904,46,46,47,29,29,74,2.0,1.910413000266999,1874.8098643003032,1876.805053200107,,,,,,,114,f,1,2022-12-11_14h50.10.264,RL,2022.2.4,60.005424643461325,
1,29,0,29,0,,,,,,,,,,None,1876.805053200107,1876.805053200107,1876.805053200107,1876.805053200107,1876.805053200107,1876.805053200107,r,0.5459398999810219,1877.3720247000456,1877.3720247000456,1877.3720247000456,1877.3720247000456,1877.3720247000456,1877.3720247000456,1877.6701394002885,1877.6701394002885,1879.4647601000033,1879.4647601000033,1879.4647601000033,1879.4647601000033,1879.4647601000033,1879.4647601000033,1879.4647601000033,1879.4647601000033,1879.4647601000033,1879.4647601000033,1879.4647601000033,1879.4647601000033,1879.4647601000033,1879.4647601000033,1879.4647601000033,1879.4647601000033,1879.4647601000033,1881.9737221002579,1881.9737221002579,1881.9737221002579,1881.9737221002579,1881.9737221002579,42,47,58,18,42,57,3.0,1.9766536001116037,1883.968510299921,1885.5979885002598,,,,,,,114,f,1,2022-12-11_14h50.10.264,RL,2022.2.4,60.005424643461325,
1,30,0,30,0,,,,,,,,,,None,1885.5979885002598,1885.5979885002598,1885.5979885002598,1885.5979885002598,1885.5979885002598,1885.5979885002598,f,0.5978691000491381,1886.2327962000854,1886.2327962000854,1886.2327962000854,1886.2327962000854,1886.2327962000854,1886.2327962000854,1886.5288658002391,1886.5288658002391,1888.5236070998944,1888.5236070998944,1888.5236070998944,1888.5236070998944,1888.5236070998944,1888.5236070998944,1888.5236070998944,1888.5236070998944,1888.5236070998944,1888.5236070998944,1888.5236070998944,1888.5236070998944,1888.5236070998944,1888.5236070998944,1888.5236070998944,1888.5236070998944,1888.5236070998944,1891.0325784999877,1891.0325784999877,1891.0325784999877,1891.0325784999877,1891.0325784999877,40,51,49,20,51,58,3.0,0.9634225000627339,1892.0131509001367,1893.5597697002813,,,,,,,114,f,1,2022-12-11_14h50.10.264,RL,2022.2.4,60.005424643461325,
1,31,0,31,0,,,,,,,,,,None,1893.5597697002813,1893.5597697002813,1893.5597697002813,1893.5597697002813,1893.5597697002813,1893.5597697002813,j,0.6616404000669718,1894.243718800135,1894.243718800135,1894.243718800135,1894.243718800135,1894.243718800135,1894.243718800135,1894.5402518003248,1894.5402518003248,1896.4187489999458,1896.4187489999458,1896.4187489999458,1896.4187489999458,1896.4187489999458,1896.4187489999458,1896.4187489999458,1896.4187489999458,1896.4187489999458,1896.4187489999458,1896.4187489999458,1896.4187489999458,1896.4187489999458,1896.4187489999458,1896.4187489999458,1896.4187489999458,1896.4187489999458,1898.9274657000788,1898.9274657000788,1898.9274657000788,1898.9274657000788,1898.9274657000788,55,44,47,26,26,42,2.0,2.4258244996890426,1901.3710202001967,1902.9503448000178,,,,,,,114,f,1,2022-12-11_14h50.10.264,RL,2022.2.4,60.005424643461325,
1,32,0,32,0,,,,,,,,,,None,1902.9503448000178,1902.9503448000178,1902.9503448000178,1902.9503448000178,1902.9503448000178,1902.9503448000178,i,0.9150874000042677,1903.9000404002145,1903.9000404002145,1903.9000404002145,1903.9000404002145,1903.9000404002145,1903.9000404002145,1904.1975143002346,1904.1975143002346,1905.31086149998,1905.31086149998,1905.31086149998,1905.31086149998,1905.31086149998,1905.31086149998,1905.31086149998,1905.31086149998,1905.31086149998,1905.31086149998,1905.31086149998,1905.31086149998,1905.31086149998,1905.31086149998,1905.31086149998,1905.31086149998,1905.31086149998,1907.819840299897,1907.819840299897,1907.819840299897,1907.819840299897,1907.819840299897,43,41,43,20,43,83,2.0,1.8437367998994887,1909.681828700006,1911.6600413001142,,,,,,,114,f,1,2022-12-11_14h50.10.264,RL,2022.2.4,60.005424643461325,
1,33,0,33,0,,,,,,,,,,None,1911.6600413001142,1911.6600413001142,1911.6600413001142,1911.6600413001142,1911.6600413001142,1911.6600413001142,f,0.6256947000510991,1912.3110540001653,1912.3110540001653,1912.3110540001653,1912.3110540001653,1912.3110540001653,1912.3110540001653,1912.607802100014,1912.607802100014,1913.5219634003006,1913.5219634003006,1913.5384714999236,1913.5384714999236,1913.5384714999236,1913.5384714999236,1913.5384714999236,1913.5384714999236,1913.5384714999236,1913.5384714999236,1913.5384714999236,1913.5384714999236,1913.5384714999236,1913.5384714999236,1913.5384714999236,1913.5384714999236,1913.5384714999236,1916.047787700314,1916.047787700314,1916.047787700314,1916.047787700314,1916.047787700314,42,45,48,27,45,84,2.0,1.8605221998877823,1917.925626100041,1919.9207182000391,,,,,,,114,f,1,2022-12-11_14h50.10.264,RL,2022.2.4,60.005424643461325,
1,34,0,34,0,,,,,,,,,,None,1919.9207182000391,1919.9207182000391,1919.9207182000391,1919.9207182000391,1919.9207182000391,1919.9207182000391,j,1.3548964001238346,1921.3020339002833,1921.3020339002833,1921.3020339002833,1921.3020339002833,1921.3020339002833,1921.3020339002833,1921.5998432999477,1921.5998432999477,1922.97975519998,1922.97975519998,1922.97975519998,1922.97975519998,1922.97975519998,1922.97975519998,1922.97975519998,1922.97975519998,1922.97975519998,1922.97975519998,1922.97975519998,1922.97975519998,1922.97975519998,1922.97975519998,1922.97975519998,1922.97975519998,1922.97975519998,1925.4891981002875,1925.4891981002875,1925.4891981002875,1925.4891981002875,1925.4891981002875,36,53,61,27,27,79,2.0,1.8764441004022956,1927.3833699999377,1929.2121208999306,,,,,,,114,f,1,2022-12-11_14h50.10.264,RL,2022.2.4,60.005424643461325,
1,35,0,35,0,,,,,,,,,,None,1929.2121208999306,1929.2121208999306,1929.2121208999306,1929.2121208999306,1929.2121208999306,1929.2121208999306,r,0.5286878999322653,1929.7623256999068,1929.7623256999068,1929.7623256999068,1929.7623256999068,1929.7623256999068,1929.7623256999068,1930.0601626001298,1930.0601626001298,1931.356208300218,1931.356208300218,1931.356208300218,1931.356208300218,1931.356208300218,1931.356208300218,1931.356208300218,1931.356208300218,1931.356208300218,1931.356208300218,1931.356208300218,1931.356208300218,1931.356208300218,1931.356208300218,1931.356208300218,1931.356208300218,1931.356208300218,1933.8655946999788,1933.8655946999788,1933.8655946999788,1933.8655946999788,1933.8655946999788,38,47,58,28,38,53,2.0,3.1737576997838914,1937.0568331000395,1938.9856680002995,,,,,,,114,f,1,2022-12-11_14h50.10.264,RL,2022.2.4,60.005424643461325,
1,36,0,36,0,,,,,,,,,,None,1938.9856680002995,1938.9856680002995,1938.9856680002995,1938.9856680002995,1938.9856680002995,1938.9856680002995,f,0.33390469988808036,1939.353394899983,1939.353394899983,1939.353394899983,1939.353394899983,1939.353394899983,1939.353394899983,1939.6505340002477,1939.6505340002477,1941.479065600317,1941.479065600317,1941.479065600317,1941.479065600317,1941.479065600317,1941.479065600317,1941.479065600317,1941.479065600317,1941.479065600317,1941.479065600317,1941.479065600317,1941.479065600317,1941.479065600317,1941.479065600317,1941.479065600317,1941.479065600317,1941.479065600317,1943.9880848000757,1943.9880848000757,1943.9880848000757,1943.9880848000757,1943.9880848000757,38,51,66,30,51,57,2.0,1.8106623003259301,1945.8162958999164,1947.7116132001393,,,,,,,114,f,1,2022-12-11_14h50.10.264,RL,2022.2.4,60.005424643461325,
1,37,0,37,0,,,,,,,,,,None,1947.7116132001393,1947.7116132001393,1947.7116132001393,1947.7116132001393,1947.7116132001393,1947.7116132001393,f,0.5496885003522038,1948.2961041000672,1948.2961041000672,1948.2961041000672,1948.2961041000672,1948.2961041000672,1948.2961041000672,1948.593034000136,1948.593034000136,1950.3048658999614,1950.3048658999614,1950.3048658999614,1950.3048658999614,1950.3048658999614,1950.3048658999614,1950.3048658999614,1950.3048658999614,1950.3048658999614,1950.3048658999614,1950.3048658999614,1950.3048658999614,1950.3048658999614,1950.3048658999614,1950.3048658999614,1950.3048658999614,1950.3048658999614,1952.8137858998962,1952.8137858998962,1952.8137858998962,1952.8137858998962,1952.8137858998962,36,49,55,28,49,93,2.0,1.5113148000091314,1954.3432527002878,1955.8893055003136,,,,,,,114,f,1,2022-12-11_14h50.10.264,RL,2022.2.4,60.005424643461325,
1,38,0,38,0,,,,,,,,,,None,1955.8893055003136,1955.8893055003136,1955.8893055003136,1955.8893055003136,1955.8893055003136,1955.8893055003136,j,0.9004128002561629,1956.8244545999914,1956.8244545999914,1956.8244545999914,1956.8244545999914,1956.8244545999914,1956.8244545999914,1957.1194811002351,1957.1194811002351,1959.097458400298,1959.097458400298,1959.097458400298,1959.097458400298,1959.097458400298,1959.097458400298,1959.097458400298,1959.097458400298,1959.097458400298,1959.097458400298,1959.097458400298,1959.097458400298,1959.097458400298,1959.097458400298,1959.097458400298,1959.097458400298,1959.097458400298,1961.6064011999406,1961.6064011999406,1961.6064011999406,1961.6064011999406,1961.6064011999406,34,44,55,24,24,89,1.0,1.3635932998731732,1962.9860649001785,1964.6987310000695,,,,,,,114,f,1,2022-12-11_14h50.10.264,RL,2022.2.4,60.005424643461325,
1,39,0,39,0,,,,,,,,,,None,1964.6987310000695,1964.6987310000695,1964.6987310000695,1964.6987310000695,1964.6987310000695,1964.6987310000695,i,0.4517974001355469,1965.1840824000537,1965.1840824000537,1965.1840824000537,1965.1840824000537,1965.1840824000537,1965.1840824000537,1965.4805176001973,1965.4805176001973,1967.35854679998,1967.35854679998,1967.35854679998,1967.35854679998,1967.35854679998,1967.35854679998,1967.35854679998,1967.35854679998,1967.35854679998,1967.35854679998,1967.35854679998,1967.35854679998,1967.35854679998,1967.35854679998,1967.35854679998,1967.35854679998,1967.35854679998,1969.8677260000259,1969.8677260000259,1969.8677260000259,1969.8677260000259,1969.8677260000259,43,36,51,29,51,92,1.0,2.326284700073302,1972.211141299922,1973.8073958000168,,,,,,,114,f,1,2022-12-11_14h50.10.264,RL,2022.2.4,60.005424643461325,
1,40,0,40,0,,,,,,,,,,None,1973.8073958000168,1973.8073958000168,1973.8073958000168,1973.8073958000168,1973.8073958000168,1973.8073958000168,r,0.5418875999748707,1974.3742527998984,1974.3742527998984,1974.3742527998984,1974.3742527998984,1974.3742527998984,1974.3742527998984,1974.6720334002748,1974.6720334002748,1976.2341428003274,1976.2341428003274,1976.2341428003274,1976.2341428003274,1976.2341428003274,1976.2341428003274,1976.2341428003274,1976.2341428003274,1976.2341428003274,1976.2341428003274,1976.2341428003274,1976.2341428003274,1976.2341428003274,1976.2341428003274,1976.2341428003274,1976.2341428003274,1976.2341428003274,1978.7430402999744,1978.7430402999744,1978.7430402999744,1978.7430402999744,1978.7430402999744,38,43,45,36,38,93,1.0,1.7772425999864936,1980.538295800332,1982.4004862001166,,,,,,,114,f,1,2022-12-11_14h50.10.264,RL,2022.2.4,60.005424643461325,
1,41,0,41,0,,,,,,,,,,None,1982.4004862001166,1982.4004862001166,1982.4004862001166,1982.4004862001166,1982.4004862001166,1982.4004862001166,j,0.5095623997040093,1982.9338786001317,1982.9338786001317,1982.9338786001317,1982.9338786001317,1982.9338786001317,1982.9338786001317,1983.23161779996,1983.23161779996,1984.5449283001944,1984.5449283001944,1984.5449283001944,1984.5449283001944,1984.5449283001944,1984.5449283001944,1984.5449283001944,1984.5449283001944,1984.5449283001944,1984.5449283001944,1984.5449283001944,1984.5449283001944,1984.5449283001944,1984.5449283001944,1984.5449283001944,1984.5449283001944,1984.5449283001944,1987.0538830999285,1987.0538830999285,1987.0538830999285,1987.0538830999285,1987.0538830999285,33,35,54,34,34,89,1.0,1.5278587997891009,1988.5998081001453,1990.3288279003464,,,,,,,114,f,1,2022-12-11_14h50.10.264,RL,2022.2.4,60.005424643461325,
1,42,0,42,0,,,,,,,,,,None,1990.3288279003464,1990.3288279003464,1990.3288279003464,1990.3288279003464,1990.3288279003464,1990.3288279003464,i,0.6026295004412532,1990.9651532000862,1990.9651532000862,1990.9651532000862,1990.9651532000862,1990.9651532000862,1990.9651532000862,1991.2601817999966,1991.2601817999966,1993.237856599968,1993.237856599968,1993.237856599968,1993.237856599968,1993.237856599968,1993.237856599968,1993.237856599968,1993.237856599968,1993.237856599968,1993.237856599968,1993.237856599968,1993.237856599968,1993.237856599968,1993.237856599968,1993.237856599968,1993.237856599968,1993.237856599968,1995.7468424001709,1995.7468424001709,1995.7468424001709,1995.7468424001709,1995.7468424001709,27,29,52,32,52,76,1.0,1.2630060003139079,1997.0267378999852,1998.8887708000839,,,,,,,114,f,1,2022-12-11_14h50.10.264,RL,2022.2.4,60.005424643461325,
1,43,0,43,0,,,,,,,,,,None,1998.8887708000839,1998.8887708000839,1998.8887708000839,1998.8887708000839,1998.8887708000839,1998.8887708000839,f,0.9210604997351766,1999.8397031999193,1999.8397031999193,1999.8397031999193,1999.8397031999193,1999.8397031999193,1999.8397031999193,2000.1360750999302,2000.1360750999302,2001.0332598001696,2001.0332598001696,2001.0332598001696,2001.0332598001696,2001.0332598001696,2001.0332598001696,2001.0332598001696,2001.0332598001696,2001.0332598001696,2001.0332598001696,2001.0332598001696,2001.0332598001696,2001.0332598001696,2001.0332598001696,2001.0332598001696,2001.0332598001696,2001.0332598001696,2003.5420479001477,2003.5420479001477,2003.5420479001477,2003.5420479001477,2003.5420479001477,25,30,64,30,30,47,2.0,1.1789136999286711,2004.739261300303,2006.5508932000957,,,,,,,114,f,1,2022-12-11_14h50.10.264,RL,2022.2.4,60.005424643461325,
1,44,0,44,0,,,,,,,,,,None,2006.5508932000957,2006.5508932000957,2006.5508932000957,2006.5508932000957,2006.5508932000957,2006.5508932000957,i,0.43624719977378845,2007.0171940000728,2007.0171940000728,2007.0171940000728,2007.0171940000728,2007.0171940000728,2007.0171940000728,2007.315651200246,2007.315651200246,2008.2466040002182,2008.2466040002182,2008.2466040002182,2008.2466040002182,2008.2466040002182,2008.2466040002182,2008.2466040002182,2008.2466040002182,2008.2466040002182,2008.2466040002182,2008.2466040002182,2008.2466040002182,2008.2466040002182,2008.2466040002182,2008.2466040002182,2008.2466040002182,2008.2466040002182,2010.7556743999012,2010.7556743999012,2010.7556743999012,2010.7556743999012,2010.7556743999012,37,34,59,28,59,45,3.0,2.3256406001746655,2013.0997703000903,2014.9118006001227,,,,,,,114,f,1,2022-12-11_14h50.10.264,RL,2022.2.4,60.005424643461325,
1,45,0,45,0,,,,,,,,,,None,2014.9118006001227,2014.9118006001227,2014.9118006001227,2014.9118006001227,2014.9118006001227,2014.9118006001227,i,0.490491199772805,2015.4286861000583,2015.4286861000583,2015.4286861000583,2015.4286861000583,2015.4286861000583,2015.4286861000583,2015.7262558001094,2015.7262558001094,2016.9900789000094,2016.9900789000094,2016.9900789000094,2016.9900789000094,2016.9900789000094,2016.9900789000094,2016.9900789000094,2016.9900789000094,2016.9900789000094,2016.9900789000094,2016.9900789000094,2016.9900789000094,2016.9900789000094,2016.9900789000094,2016.9900789000094,2016.9900789000094,2016.9900789000094,2019.4990695002489,2019.4990695002489,2019.4990695002489,2019.4990695002489,2019.4990695002489,32,34,58,32,58,88,2.0,1.0799290998838842,2020.5955322002992,2022.5906084999442,,,,,,,114,f,1,2022-12-11_14h50.10.264,RL,2022.2.4,60.005424643461325,
1,46,0,46,0,,,,,,,,,,None,2022.5906084999442,2022.5906084999442,2022.5906084999442,2022.5906084999442,2022.5906084999442,2022.5906084999442,f,0.6177472998388112,2023.2415205002762,2023.2415205002762,2023.2415205002762,2023.2415205002762,2023.2415205002762,2023.2415205002762,2023.5386673002504,2023.5386673002504,2025.4833057001233,2025.4833057001233,2025.4833057001233,2025.4833057001233,2025.4833057001233,2025.4833057001233,2025.4833057001233,2025.4833057001233,2025.4833057001233,2025.4833057001233,2025.4833057001233,2025.4833057001233,2025.4833057001233,2025.4833057001233,2025.4833057001233,2025.4833057001233,2025.4833057001233,2027.9923054999672,2027.9923054999672,2027.9923054999672,2027.9923054999672,2027.9923054999672,29,38,52,24,38,57,1.0,2.3425055001862347,2030.352449900005,2032.064790900331,,,,,,,114,f,1,2022-12-11_14h50.10.264,RL,2022.2.4,60.005424643461325,
1,47,0,47,0,,,,,,,,,,None,2032.064790900331,2032.064790900331,2032.064790900331,2032.064790900331,2032.064790900331,2032.064790900331,i,0.4480001996271312,2032.5339452000335,2032.5339452000335,2032.5339452000335,2032.5339452000335,2032.5339452000335,2032.5339452000335,2032.8301377999596,2032.8301377999596,2033.8102011000738,2033.8102011000738,2033.8269337001257,2033.8269337001257,2033.8269337001257,2033.8269337001257,2033.8269337001257,2033.8269337001257,2033.8269337001257,2033.8269337001257,2033.8269337001257,2033.8269337001257,2033.8269337001257,2033.8269337001257,2033.8269337001257,2033.8269337001257,2033.8269337001257,2036.3358431002125,2036.3358431002125,2036.3358431002125,2036.3358431002125,2036.3358431002125,37,27,54,28,54,69,2.0,1.262974299956113,2037.6158306002617,2039.1789541002363,,,,,,,114,f,1,2022-12-11_14h50.10.264,RL,2022.2.4,60.005424643461325,
1,48,0,48,0,,,,,,,,,,None,2039.1789541002363,2039.1789541002363,2039.1789541002363,2039.1789541002363,2039.1789541002363,2039.1789541002363,i,0.5756991999223828,2039.779745100066,2039.779745100066,2039.779745100066,2039.779745100066,2039.779745100066,2039.779745100066,2040.0766664003022,2040.0766664003022,2041.7219942002557,2041.7219942002557,2041.7219942002557,2041.7219942002557,2041.7219942002557,2041.7219942002557,2041.7219942002557,2041.7219942002557,2041.7219942002557,2041.7219942002557,2041.7219942002557,2041.7219942002557,2041.7219942002557,2041.7219942002557,2041.7219942002557,2041.7219942002557,2041.7219942002557,2044.2312930999324,2044.2312930999324,2044.2312930999324,2044.2312930999324,2044.2312930999324,42,34,46,26,46,55,2.0,1.2621979997493327,2045.5108219003305,2047.3403003001586,,,,,,,114,f,1,2022-12-11_14h50.10.264,RL,2022.2.4,60.005424643461325,
1,49,0,49,0,,,,,,,,,,None,2047.3403003001586,2047.3403003001586,2047.3403003001586,2047.3403003001586,2047.3403003001586,2047.3403003001586,f,0.42043490009382367,2047.791591499932,2047.791591499932,2047.791591499932,2047.791591499932,2047.791591499932,2047.791591499932,2048.088407800067,2048.088407800067,2049.600642800331,2049.600642800331,2049.600642800331,2049.600642800331,2049.600642800331,2049.600642800331,2049.600642800331,2049.600642800331,2049.600642800331,2049.600642800331,2049.600642800331,2049.600642800331,2049.600642800331,2049.600642800331,2049.600642800331,2049.600642800331,2049.600642800331,2052.1099081002176,2052.1099081002176,2052.1099081002176,2052.1099081002176,2052.1099081002176,36,34,49,38,34,67,1.0,1.876899499911815,2054.004311100114,2055.700335700065,,,,,,,114,f,1,2022-12-11_14h50.10.264,RL,2022.2.4,60.005424643461325,
1,50,0,50,0,,,,,,,,,,None,2055.700335700065,2055.700335700065,2055.700335700065,2055.700335700065,2055.700335700065,2055.700335700065,i,0.6152304001152515,2056.3513067001477,2056.3513067001477,2056.3513067001477,2056.3513067001477,2056.3513067001477,2056.3513067001477,2056.6484027002007,2056.6484027002007,2058.543132800143,2058.543132800143,2058.543132800143,2058.543132800143,2058.543132800143,2058.543132800143,2058.543132800143,2058.543132800143,2058.543132800143,2058.543132800143,2058.543132800143,2058.543132800143,2058.543132800143,2058.543132800143,2058.543132800143,2058.543132800143,2058.543132800143,2061.051939799916,2061.051939799916,2061.051939799916,2061.051939799916,2061.051939799916,34,35,54,37,54,53,2.0,1.112241799943149,2062.1821155999787,2064.060848600231,,,,,,,114,f,1,2022-12-11_14h50.10.264,RL,2022.2.4,60.005424643461325,
1,51,0,51,0,,,,,,,,,,None,2064.060848600231,2064.060848600231,2064.060848600231,2064.060848600231,2064.060848600231,2064.060848600231,i,0.5998550998046994,2064.695305299945,2064.695305299945,2064.695305299945,2064.695305299945,2064.695305299945,2064.695305299945,2064.992303200066,2064.992303200066,2066.504675100092,2066.504675100092,2066.504675100092,2066.504675100092,2066.504675100092,2066.504675100092,2066.504675100092,2066.504675100092,2066.504675100092,2066.504675100092,2066.504675100092,2066.504675100092,2066.504675100092,2066.504675100092,2066.504675100092,2066.504675100092,2066.504675100092,2069.0133714000694,2069.0133714000694,2069.0133714000694,2069.0133714000694,2069.0133714000694,30,37,45,43,45,39,3.0,2.4097270001657307,2071.440032000188,2073.0030539999716,,,,,,,114,f,1,2022-12-11_14h50.10.264,RL,2022.2.4,60.005424643461325,
1,52,0,52,0,,,,,,,,,,None,2073.0030539999716,2073.0030539999716,2073.0030539999716,2073.0030539999716,2073.0030539999716,2073.0030539999716,i,0.7574351001530886,2073.7861120002344,2073.7861120002344,2073.7861120002344,2073.7861120002344,2073.7861120002344,2073.7861120002344,2074.084113799967,2074.084113799967,2076.0121142002754,2076.0121142002754,2076.0121142002754,2076.0121142002754,2076.0121142002754,2076.0121142002754,2076.0121142002754,2076.0121142002754,2076.0121142002754,2076.0121142002754,2076.0121142002754,2076.0121142002754,2076.0121142002754,2076.0121142002754,2076.0121142002754,2076.0121142002754,2076.0121142002754,2078.520853599999,2078.520853599999,2078.520853599999,2078.520853599999,2078.520853599999,29,35,44,40,44,68,2.0,1.294523799791932,2079.833978100214,2081.663298700005,,,,,,,114,f,1,2022-12-11_14h50.10.264,RL,2022.2.4,60.005424643461325,
1,53,0,53,0,,,,,,,,,,None,2081.663298700005,2081.663298700005,2081.663298700005,2081.663298700005,2081.663298700005,2081.663298700005,i,0.6471440996974707,2082.3305013999343,2082.3305013999343,2082.3305013999343,2082.3305013999343,2082.3305013999343,2082.3305013999343,2082.627310700249,2082.627310700249,2083.6743600000627,2083.6743600000627,2083.690614200197,2083.690614200197,2083.690614200197,2083.690614200197,2083.690614200197,2083.690614200197,2083.690614200197,2083.690614200197,2083.690614200197,2083.690614200197,2083.690614200197,2083.690614200197,2083.690614200197,2083.690614200197,2083.690614200197,2086.2000477002002,2086.2000477002002,2086.2000477002002,2086.2000477002002,2086.2000477002002,34,35,39,28,39,67,1.0,1.145830700173974,2087.363723500166,2088.976303699892,,,,,,,114,f,1,2022-12-11_14h50.10.264,RL,2022.2.4,60.005424643461325,
1,54,0,54,0,,,,,,,,,,None,2088.976303699892,2088.976303699892,2088.976303699892,2088.976303699892,2088.976303699892,2088.976303699892,r,0.4407420000061393,2089.4432834000327,2089.4432834000327,2089.4432834000327,2089.4432834000327,2089.4432834000327,2089.4432834000327,2089.7410178999417,2089.7410178999417,2091.1043635001406,2091.1043635001406,2091.1043635001406,2091.1043635001406,2091.1043635001406,2091.1043635001406,2091.1043635001406,2091.1043635001406,2091.1043635001406,2091.1043635001406,2091.1043635001406,2091.1043635001406,2091.1043635001406,2091.1043635001406,2091.1043635001406,2091.1043635001406,2091.1043635001406,2093.613439100329,2093.613439100329,2093.613439100329,2093.613439100329,2093.613439100329,30,48,43,31,30,37,1.0,0.9812126001343131,2094.6102938000113,2096.5226233000867,,,,,,,114,f,1,2022-12-11_14h50.10.264,RL,2022.2.4,60.005424643461325,
1,55,0,55,0,,,,,,,,,,None,2096.5226233000867,2096.5226233000867,2096.5226233000867,2096.5226233000867,2096.5226233000867,2096.5226233000867,j,0.3076541000045836,2096.8573242002167,2096.8573242002167,2096.8573242002167,2096.8573242002167,2096.8573242002167,2096.8573242002167,2097.154522099998,2097.154522099998,2098.450827800203,2098.450827800203,2098.450827800203,2098.450827800203,2098.450827800203,2098.450827800203,2098.450827800203,2098.450827800203,2098.450827800203,2098.450827800203,2098.450827800203,2098.450827800203,2098.450827800203,2098.450827800203,2098.450827800203,2098.450827800203,2098.450827800203,2100.9597153002396,2100.9597153002396,2100.9597153002396,2100.9597153002396,2100.9597153002396,23,58,53,26,26,76,1.0,1.4114399999380112,2102.389530000277,2104.334652699996,,,,,,,114,f,1,2022-12-11_14h50.10.264,RL,2022.2.4,60.005424643461325,
1,56,0,56,0,,,,,,,,,,None,2104.334652699996,2104.334652699996,2104.334652699996,2104.334652699996,2104.334652699996,2104.334652699996,i,1.2738450998440385,2105.6315901000053,2105.6315901000053,2105.6315901000053,2105.6315901000053,2105.6315901000053,2105.6315901000053,2105.9301408003084,2105.9301408003084,2107.3261760002933,2107.3261760002933,2107.3261760002933,2107.3261760002933,2107.3261760002933,2107.3261760002933,2107.3261760002933,2107.3261760002933,2107.3261760002933,2107.3261760002933,2107.3261760002933,2107.3261760002933,2107.3261760002933,2107.3261760002933,2107.3261760002933,2107.3261760002933,2107.3261760002933,2109.835147100035,2109.835147100035,2109.835147100035,2109.835147100035,2109.835147100035,29,49,50,22,50,84,1.0,1.2459726999513805,2111.0986353000626,2112.9777219002135,,,,,,,114,f,1,2022-12-11_14h50.10.264,RL,2022.2.4,60.005424643461325,
1,57,0,57,0,,,,,,,,,,None,2112.9777219002135,2112.9777219002135,2112.9777219002135,2112.9777219002135,2112.9777219002135,2112.9777219002135,f,0.3915780996903777,2113.398012700025,2113.398012700025,2113.398012700025,2113.398012700025,2113.398012700025,2113.398012700025,2113.6924232002348,2113.6924232002348,2115.6869717002846,2115.6869717002846,2115.6869717002846,2115.6869717002846,2115.6869717002846,2115.6869717002846,2115.6869717002846,2115.6869717002846,2115.6869717002846,2115.6869717002846,2115.6869717002846,2115.6869717002846,2115.6869717002846,2115.6869717002846,2115.6869717002846,2115.6869717002846,2115.6869717002846,2118.195734000299,2118.195734000299,2118.195734000299,2118.195734000299,2118.195734000299,13,56,48,24,56,85,1.0,1.2623966997489333,2119.4758896999992,2121.0885467999615,,,,,,,114,f,1,2022-12-11_14h50.10.264,RL,2022.2.4,60.005424643461325,
1,58,0,58,0,,,,,,,,,,None,2121.0885467999615,2121.0885467999615,2121.0885467999615,2121.0885467999615,2121.0885467999615,2121.0885467999615,j,0.5360166002064943,2121.6567077999935,2121.6567077999935,2121.6567077999935,2121.6567077999935,2121.6567077999935,2121.6567077999935,2121.953559800051,2121.953559800051,2123.532630200032,2123.532630200032,2123.532630200032,2123.532630200032,2123.532630200032,2123.532630200032,2123.532630200032,2123.532630200032,2123.532630200032,2123.532630200032,2123.532630200032,2123.532630200032,2123.532630200032,2123.532630200032,2123.532630200032,2123.532630200032,2123.532630200032,2126.0411955001764,2126.0411955001764,2126.0411955001764,2126.0411955001764,2126.0411955001764,25,57,46,26,26,78,1.0,1.3951698997989297,2127.4541131001897,2129.083608600311,,,,,,,114,f,1,2022-12-11_14h50.10.264,RL,2022.2.4,60.005424643461325,
1,59,0,59,0,,,,,,,,,,None,2129.083608600311,2129.083608600311,2129.083608600311,2129.083608600311,2129.083608600311,2129.083608600311,i,0.41163109987974167,2129.517790300306,2129.517790300306,2129.517790300306,2129.517790300306,2129.517790300306,2129.517790300306,2129.8150014001876,2129.8150014001876,2131.676565800328,2131.676565800328,2131.676565800328,2131.676565800328,2131.676565800328,2131.676565800328,2131.676565800328,2131.676565800328,2131.676565800328,2131.676565800328,2131.676565800328,2131.676565800328,2131.676565800328,2131.676565800328,2131.676565800328,2131.676565800328,2131.676565800328,2134.185589800123,2134.185589800123,2134.185589800123,2134.185589800123,2134.185589800123,26,59,53,14,53,70,1.0,0.7637100997380912,2134.9672389002517,2136.4798862999305,,,,,,,114,f,1,2022-12-11_14h50.10.264,RL,2022.2.4,60.005424643461325,
1,60,0,60,0,,,,,,,,,,None,2136.4798862999305,2136.4798862999305,2136.4798862999305,2136.4798862999305,2136.4798862999305,2136.4798862999305,i,0.4569764002226293,2136.9659593999386,2136.9659593999386,2136.9659593999386,2136.9659593999386,2136.9659593999386,2136.9659593999386,2137.2616651002318,2137.2616651002318,2138.807331799995,2138.807331799995,2138.807331799995,2138.807331799995,2138.807331799995,2138.807331799995,2138.807331799995,2138.807331799995,2138.807331799995,2138.807331799995,2138.807331799995,2138.807331799995,2138.807331799995,2138.807331799995,2138.807331799995,2138.807331799995,2138.807331799995,2141.3163173999637,2141.3163173999637,2141.3163173999637,2141.3163173999637,2141.3163173999637,25,54,61,22,61,34,2.0,1.8609700999222696,2143.1943336999975,2144.807308100164,,,,,,,114,f,1,2022-12-11_14h50.10.264,RL,2022.2.4,60.005424643461325,
1,61,0,61,0,,,,,,,,,,None,2144.807308100164,2144.807308100164,2144.807308100164,2144.807308100164,2144.807308100164,2144.807308100164,i,0.8397244000807405,2145.672419300303,2145.672419300303,2145.672419300303,2145.672419300303,2145.672419300303,2145.672419300303,2145.970948399976,2145.970948399976,2147.616629899945,2147.616629899945,2147.616629899945,2147.616629899945,2147.616629899945,2147.616629899945,2147.616629899945,2147.616629899945,2147.616629899945,2147.616629899945,2147.616629899945,2147.616629899945,2147.616629899945,2147.616629899945,2147.616629899945,2147.616629899945,2147.616629899945,2150.1255934000947,2150.1255934000947,2150.1255934000947,2150.1255934000947,2150.1255934000947,30,53,61,23,61,63,2.0,1.5115173999220133,2151.6552027999423,2153.184564600233,,,,,,,114,f,1,2022-12-11_14h50.10.264,RL,2022.2.4,60.005424643461325,
1,62,0,62,0,,,,,,,,,,None,2153.184564600233,2153.184564600233,2153.184564600233,2153.184564600233,2153.184564600233,2153.184564600233,i,0.4886463996954262,2153.702841500286,2153.702841500286,2153.702841500286,2153.702841500286,2153.702841500286,2153.702841500286,2153.999045799952,2153.999045799952,2154.9136051000096,2154.9136051000096,2154.9136051000096,2154.9136051000096,2154.9136051000096,2154.9136051000096,2154.9136051000096,2154.9136051000096,2154.9136051000096,2154.9136051000096,2154.9136051000096,2154.9136051000096,2154.9136051000096,2154.9136051000096,2154.9136051000096,2154.9136051000096,2154.9136051000096,2157.42251940025,2157.42251940025,2157.42251940025,2157.42251940025,2157.42251940025,15,57,70,26,70,61,3.0,0.9628397999331355,2158.403257800266,2160.1489170999266,,,,,,,114,f,1,2022-12-11_14h50.10.264,RL,2022.2.4,60.005424643461325,
1,63,0,63,0,,,,,,,,,,None,2160.1489170999266,2160.1489170999266,2160.1489170999266,2160.1489170999266,2160.1489170999266,2160.1489170999266,i,0.41107420017942786,2160.583992900327,2160.583992900327,2160.583992900327,2160.583992900327,2160.583992900327,2160.583992900327,2160.8806619001552,2160.8806619001552,2162.69231950026,2162.69231950026,2162.69231950026,2162.69231950026,2162.69231950026,2162.69231950026,2162.69231950026,2162.69231950026,2162.69231950026,2162.69231950026,2162.69231950026,2162.69231950026,2162.69231950026,2162.69231950026,2162.69231950026,2162.69231950026,2162.69231950026,2165.2013314003125,2165.2013314003125,2165.2013314003125,2165.2013314003125,2165.2013314003125,23,60,70,32,70,71,4.0,2.0760106998495758,2167.294965500012,2168.8085118001327,,,,,,,114,f,1,2022-12-11_14h50.10.264,RL,2022.2.4,60.005424643461325,
1,64,0,64,0,,,,,,,,,,None,2168.8085118001327,2168.8085118001327,2168.8085118001327,2168.8085118001327,2168.8085118001327,2168.8085118001327,i,0.29226370016112924,2169.12755150022,2169.12755150022,2169.12755150022,2169.12755150022,2169.12755150022,2169.12755150022,2169.424092799891,2169.424092799891,2170.637084899936,2170.637084899936,2170.637084899936,2170.637084899936,2170.637084899936,2170.637084899936,2170.637084899936,2170.637084899936,2170.637084899936,2170.637084899936,2170.637084899936,2170.637084899936,2170.637084899936,2170.637084899936,2170.637084899936,2170.637084899936,2170.637084899936,2173.1460990998894,2173.1460990998894,2173.1460990998894,2173.1460990998894,2173.1460990998894,28,57,64,32,64,35,4.0,1.4951702998951077,2174.6589887999,2176.3713000002317,,,,,,,114,f,1,2022-12-11_14h50.10.264,RL,2022.2.4,60.005424643461325,
1,65,0,65,0,,,,,,,,,,None,2176.3713000002317,2176.3713000002317,2176.3713000002317,2176.3713000002317,2176.3713000002317,2176.3713000002317,i,0.29003849998116493,2176.6888637999073,2176.6888637999073,2176.6888637999073,2176.6888637999073,2176.6888637999073,2176.6888637999073,2176.986381799914,2176.986381799914,2178.448821200058,2178.448821200058,2178.465916499961,2178.465916499961,2178.465916499961,2178.465916499961,2178.465916499961,2178.465916499961,2178.465916499961,2178.465916499961,2178.465916499961,2178.465916499961,2178.465916499961,2178.465916499961,2178.465916499961,2178.465916499961,2178.465916499961,2180.9750508000143,2180.9750508000143,2180.9750508000143,2180.9750508000143,2180.9750508000143,34,64,72,31,72,33,4.0,1.3286781003698707,2182.321014500223,2184.017089200206,,,,,,,114,f,1,2022-12-11_14h50.10.264,RL,2022.2.4,60.005424643461325,
1,66,0,66,0,,,,,,,,,,None,2184.017089200206,2184.017089200206,2184.017089200206,2184.017089200206,2184.017089200206,2184.017089200206,i,0.33995289960876107,2184.3866912000813,2184.3866912000813,2184.3866912000813,2184.3866912000813,2184.3866912000813,2184.3866912000813,2184.682472500019,2184.682472500019,2186.344472200144,2186.344472200144,2186.360636900179,2186.360636900179,2186.360636900179,2186.360636900179,2186.360636900179,2186.360636900179,2186.360636900179,2186.360636900179,2186.360636900179,2186.360636900179,2186.360636900179,2186.360636900179,2186.360636900179,2186.360636900179,2186.360636900179,2188.8699309001677,2188.8699309001677,2188.8699309001677,2188.8699309001677,2188.8699309001677,32,56,72,27,72,70,4.0,0.9463456999510527,2189.8340583001263,2191.8125338000245,,,,,,,114,f,1,2022-12-11_14h50.10.264,RL,2022.2.4,60.005424643461325,
1,67,0,67,0,,,,,,,,,,None,2191.8125338000245,2191.8125338000245,2191.8125338000245,2191.8125338000245,2191.8125338000245,2191.8125338000245,i,0.6806175000965595,2192.513120099902,2192.513120099902,2192.513120099902,2192.513120099902,2192.513120099902,2192.513120099902,2192.8101960001513,2192.8101960001513,2194.0564466002397,2194.0564466002397,2194.0564466002397,2194.0564466002397,2194.0564466002397,2194.0564466002397,2194.0564466002397,2194.0564466002397,2194.0564466002397,2194.0564466002397,2194.0564466002397,2194.0564466002397,2194.0564466002397,2194.0564466002397,2194.0564466002397,2194.0564466002397,2194.0564466002397,2196.565970900003,2196.565970900003,2196.565970900003,2196.565970900003,2196.565970900003,26,54,73,27,73,63,4.0,2.890653799753636,2199.474149900023,2201.103981500026,,,,,,,114,f,1,2022-12-11_14h50.10.264,RL,2022.2.4,60.005424643461325,
1,68,0,68,0,,,,,,,,,,None,2201.103981500026,2201.103981500026,2201.103981500026,2201.103981500026,2201.103981500026,2201.103981500026,i,0.2789857997559011,2201.4050151002593,2201.4050151002593,2201.4050151002593,2201.4050151002593,2201.4050151002593,2201.4050151002593,2201.702329300344,2201.702329300344,2203.4475140003487,2203.4475140003487,2203.464401999954,2203.464401999954,2203.464401999954,2203.464401999954,2203.464401999954,2203.464401999954,2203.464401999954,2203.464401999954,2203.464401999954,2203.464401999954,2203.464401999954,2203.464401999954,2203.464401999954,2203.464401999954,2203.464401999954,2205.9736967002973,2205.9736967002973,2205.9736967002973,2205.9736967002973,2205.9736967002973,24,61,76,27,76,64,5.0,1.2298216996714473,2207.2196023999713,2209.1818365002982,,,,,,,114,f,1,2022-12-11_14h50.10.264,RL,2022.2.4,60.005424643461325,
1,69,0,69,0,,,,,,,,,,None,2209.1818365002982,2209.1818365002982,2209.1818365002982,2209.1818365002982,2209.1818365002982,2209.1818365002982,i,0.4471289999783039,2209.649138400331,2209.649138400331,2209.649138400331,2209.649138400331,2209.649138400331,2209.649138400331,2209.9463777001947,2209.9463777001947,2211.6419462002814,2211.6419462002814,2211.6419462002814,2211.6419462002814,2211.6419462002814,2211.6419462002814,2211.6419462002814,2211.6419462002814,2211.6419462002814,2211.6419462002814,2211.6419462002814,2211.6419462002814,2211.6419462002814,2211.6419462002814,2211.6419462002814,2211.6419462002814,2211.6419462002814,2214.1512076002546,2214.1512076002546,2214.1512076002546,2214.1512076002546,2214.1512076002546,31,63,65,28,65,67,3.0,1.1796381999738514,2215.3476539999247,2217.010172000155,,,,,,,114,f,1,2022-12-11_14h50.10.264,RL,2022.2.4,60.005424643461325,
1,70,0,70,0,,,,,,,,,,None,2217.010172000155,2217.010172000155,2217.010172000155,2217.010172000155,2217.010172000155,2217.010172000155,f,0.3185821999795735,2217.3619893002324,2217.3619893002324,2217.3619893002324,2217.3619893002324,2217.3619893002324,2217.3619893002324,2217.659106499981,2217.659106499981,2218.655850000214,2218.655850000214,2218.6728234002367,2218.6728234002367,2218.6728234002367,2218.6728234002367,2218.6728234002367,2218.6728234002367,2218.6728234002367,2218.6728234002367,2218.6728234002367,2218.6728234002367,2218.6728234002367,2218.6728234002367,2218.6728234002367,2218.6728234002367,2218.6728234002367,2221.1819442003034,2221.1819442003034,2221.1819442003034,2221.1819442003034,2221.1819442003034,39,59,62,36,59,66,3.0,0.9627608000300825,2222.162430500146,2224.10797550017,,,,,,,114,f,1,2022-12-11_14h50.10.264,RL,2022.2.4,60.005424643461325,
1,71,0,71,0,,,,,,,,,,None,2224.10797550017,2224.10797550017,2224.10797550017,2224.10797550017,2224.10797550017,2224.10797550017,i,0.5384567999280989,2224.6754267001525,2224.6754267001525,2224.6754267001525,2224.6754267001525,2224.6754267001525,2224.6754267001525,2224.9719873000868,2224.9719873000868,2226.501064500306,2226.501064500306,2226.5180244999938,2226.5180244999938,2226.5180244999938,2226.5180244999938,2226.5180244999938,2226.5180244999938,2226.5180244999938,2226.5180244999938,2226.5180244999938,2226.5180244999938,2226.5180244999938,2226.5180244999938,2226.5180244999938,2226.5180244999938,2226.5180244999938,2229.0273392000236,2229.0273392000236,2229.0273392000236,2229.0273392000236,2229.0273392000236,37,48,63,34,63,47,4.0,1.0131212999112904,2230.057608200237,2231.8533390001394,,,,,,,114,f,1,2022-12-11_14h50.10.264,RL,2022.2.4,60.005424643461325,
1,72,0,72,0,,,,,,,,,,None,2231.8533390001394,2231.8533390001394,2231.8533390001394,2231.8533390001394,2231.8533390001394,2231.8533390001394,i,0.28363730013370514,2232.171372700017,2232.171372700017,2232.171372700017,2232.171372700017,2232.171372700017,2232.171372700017,2232.4685289002955,2232.4685289002955,2233.7811565999873,2233.7811565999873,2233.798233900219,2233.798233900219,2233.798233900219,2233.798233900219,2233.798233900219,2233.798233900219,2233.798233900219,2233.798233900219,2233.798233900219,2233.798233900219,2233.798233900219,2233.798233900219,2233.798233900219,2233.798233900219,2233.798233900219,2236.307552400045,2236.307552400045,2236.307552400045,2236.307552400045,2236.307552400045,38,65,63,38,63,51,4.0,1.0625865003094077,2237.3874364001676,2239.016964599956,,,,,,,114,f,1,2022-12-11_14h50.10.264,RL,2022.2.4,60.005424643461325,
1,73,0,73,0,,,,,,,,,,None,2239.016964599956,2239.016964599956,2239.016964599956,2239.016964599956,2239.016964599956,2239.016964599956,i,0.321638900320977,2239.3691075001843,2239.3691075001843,2239.3691075001843,2239.3691075001843,2239.3691075001843,2239.3691075001843,2239.6657330002636,2239.6657330002636,2241.477245300077,2241.477245300077,2241.477245300077,2241.477245300077,2241.477245300077,2241.477245300077,2241.477245300077,2241.477245300077,2241.477245300077,2241.477245300077,2241.477245300077,2241.477245300077,2241.477245300077,2241.477245300077,2241.477245300077,2241.477245300077,2241.477245300077,2243.98643109994,2243.98643109994,2243.98643109994,2243.98643109994,2243.98643109994,24,55,63,39,63,65,3.0,1.2122255000285804,2245.216070699971,2246.8956538001075,,,,,,,114,f,1,2022-12-11_14h50.10.264,RL,2022.2.4,60.005424643461325,
1,74,0,74,0,,,,,,,,,,None,2246.8956538001075,2246.8956538001075,2246.8956538001075,2246.8956538001075,2246.8956538001075,2246.8956538001075,f,0.35931039974093437,2247.280475700274,2247.280475700274,2247.280475700274,2247.280475700274,2247.280475700274,2247.280475700274,2247.577102900017,2247.577102900017,2248.8568112002686,2248.8568112002686,2248.8568112002686,2248.8568112002686,2248.8568112002686,2248.8568112002686,2248.8568112002686,2248.8568112002686,2248.8568112002686,2248.8568112002686,2248.8568112002686,2248.8568112002686,2248.8568112002686,2248.8568112002686,2248.8568112002686,2248.8568112002686,2248.8568112002686,2251.366124500055,2251.366124500055,2251.366124500055,2251.366124500055,2251.366124500055,34,58,62,36,58,55,4.0,0.9972004001028836,2252.3797496999614,2254.2918718000874,,,,,,,114,f,1,2022-12-11_14h50.10.264,RL,2022.2.4,60.005424643461325,
1,75,0,75,0,,,,,,,,,,q,2297.9898125999607,2297.9898125999607,2297.9898125999607,2297.9898125999607,2297.9898125999607,2297.9898125999607,f,1.0128548997454345,2299.0222267000936,2299.0222267000936,2299.0222267000936,2299.0222267000936,2299.0222267000936,2299.0222267000936,2299.319672000129,2299.319672000129,2301.2306373999454,2301.2306373999454,2301.2306373999454,2301.2306373999454,2301.2306373999454,2301.2306373999454,2301.2306373999454,2301.2306373999454,2301.2306373999454,2301.2306373999454,2301.2306373999454,2301.2306373999454,2301.2306373999454,2301.2306373999454,2301.2306373999454,2301.2306373999454,2301.2306373999454,2303.7398457000963,2303.7398457000963,2303.7398457000963,2303.7398457000963,2303.7398457000963,34,54,61,38,54,48,4.0,1.0128636001609266,2304.7705335002393,2306.4995609000325,2254.2918718000874,2254.2918718000874,43.671182099729776,,,,114,f,1,2022-12-11_14h50.10.264,RL,2022.2.4,60.005424643461325,
1,76,0,76,0,,,,,,,,,,None,2306.4995609000325,2306.4995609000325,2306.4995609000325,2306.4995609000325,2306.4995609000325,2306.4995609000325,i,0.3636032002978027,2306.88493150007,2306.88493150007,2306.88493150007,2306.88493150007,2306.88493150007,2306.88493150007,2307.181296000257,2307.181296000257,2308.8764186003245,2308.8764186003245,2308.8764186003245,2308.8764186003245,2308.8764186003245,2308.8764186003245,2308.8764186003245,2308.8764186003245,2308.8764186003245,2308.8764186003245,2308.8764186003245,2308.8764186003245,2308.8764186003245,2308.8764186003245,2308.8764186003245,2308.8764186003245,2308.8764186003245,2311.385580800008,2311.385580800008,2311.385580800008,2311.385580800008,2311.385580800008,37,55,60,36,60,42,4.0,0.8636722997762263,2312.2668240000494,2314.228662400041,,,,,,,114,f,1,2022-12-11_14h50.10.264,RL,2022.2.4,60.005424643461325,
1,77,0,77,0,,,,,,,,,,None,2314.228662400041,2314.228662400041,2314.228662400041,2314.228662400041,2314.228662400041,2314.228662400041,i,0.3866158998571336,2314.6473206002265,2314.6473206002265,2314.6473206002265,2314.6473206002265,2314.6473206002265,2314.6473206002265,2314.9437458999455,2314.9437458999455,2316.123445400037,2316.123445400037,2316.1400796999224,2316.1400796999224,2316.1400796999224,2316.1400796999224,2316.1400796999224,2316.1400796999224,2316.1400796999224,2316.1400796999224,2316.1400796999224,2316.1400796999224,2316.1400796999224,2316.1400796999224,2316.1400796999224,2316.1400796999224,2316.1400796999224,2318.6495511000976,2318.6495511000976,2318.6495511000976,2318.6495511000976,2318.6495511000976,32,59,57,37,57,62,3.0,1.3785235998220742,2320.0452879001386,2321.6086361999623,,,,,,,114,f,1,2022-12-11_14h50.10.264,RL,2022.2.4,60.005424643461325,
1,78,0,78,0,,,,,,,,,,None,2321.6086361999623,2321.6086361999623,2321.6086361999623,2321.6086361999623,2321.6086361999623,2321.6086361999623,f,0.34227790031582117,2321.9779350003228,2321.9779350003228,2321.9779350003228,2321.9779350003228,2321.9779350003228,2321.9779350003228,2322.273755500093,2322.273755500093,2324.267679200042,2324.267679200042,2324.267679200042,2324.267679200042,2324.267679200042,2324.267679200042,2324.267679200042,2324.267679200042,2324.267679200042,2324.267679200042,2324.267679200042,2324.267679200042,2324.267679200042,2324.267679200042,2324.267679200042,2324.267679200042,2324.267679200042,2326.777045099996,2326.777045099996,2326.777045099996,2326.777045099996,2326.777045099996,26,62,50,39,62,60,4.0,0.9302068003453314,2327.724303400144,2329.3206071001478,,,,,,,114,f,1,2022-12-11_14h50.10.264,RL,2022.2.4,60.005424643461325,
1,79,0,79,0,,,,,,,,,,None,2329.3206071001478,2329.3206071001478,2329.3206071001478,2329.3206071001478,2329.3206071001478,2329.3206071001478,i,0.35622060019522905,2329.7095205001533,2329.7095205001533,2329.7095205001533,2329.7095205001533,2329.7095205001533,2329.7095205001533,2330.0022460003383,2330.0022460003383,2331.764165100176,2331.764165100176,2331.764165100176,2331.764165100176,2331.764165100176,2331.764165100176,2331.764165100176,2331.764165100176,2331.764165100176,2331.764165100176,2331.764165100176,2331.764165100176,2331.764165100176,2331.764165100176,2331.764165100176,2331.764165100176,2331.764165100176,2334.2730813003145,2334.2730813003145,2334.2730813003145,2334.2730813003145,2334.2730813003145,24,51,54,38,54,57,3.0,1.5616331999190152,2335.8519903002307,2337.432098200079,,,,,,,114,f,1,2022-12-11_14h50.10.264,RL,2022.2.4,60.005424643461325,
1,80,0,80,0,,,,,,,,,,None,2337.432098200079,2337.432098200079,2337.432098200079,2337.432098200079,2337.432098200079,2337.432098200079,i,0.6703143999911845,2338.1325582000427,2338.1325582000427,2338.1325582000427,2338.1325582000427,2338.1325582000427,2338.1325582000427,2338.4297778001055,2338.4297778001055,2339.2436792999506,2339.2436792999506,2339.2436792999506,2339.2436792999506,2339.2436792999506,2339.2436792999506,2339.2436792999506,2339.2436792999506,2339.2436792999506,2339.2436792999506,2339.2436792999506,2339.2436792999506,2339.2436792999506,2339.2436792999506,2339.2436792999506,2339.2436792999506,2339.2436792999506,2341.7533100000583,2341.7533100000583,2341.7533100000583,2341.7533100000583,2341.7533100000583,26,64,60,50,60,43,4.0,0.8803288000635803,2342.6502550002187,2344.2465804000385,,,,,,,114,f,1,2022-12-11_14h50.10.264,RL,2022.2.4,60.005424643461325,
1,81,0,81,0,,,,,,,,,,None,2344.2465804000385,2344.2465804000385,2344.2465804000385,2344.2465804000385,2344.2465804000385,2344.2465804000385,i,0.40768179995939136,2344.6791693000123,2344.6791693000123,2344.6791693000123,2344.6791693000123,2344.6791693000123,2344.6791693000123,2344.978172400035,2344.978172400035,2346.507241100073,2346.507241100073,2346.507241100073,2346.507241100073,2346.507241100073,2346.507241100073,2346.507241100073,2346.507241100073,2346.507241100073,2346.507241100073,2346.507241100073,2346.507241100073,2346.507241100073,2346.507241100073,2346.507241100073,2346.507241100073,2346.507241100073,2349.016195700038,2349.016195700038,2349.016195700038,2349.016195700038,2349.016195700038,35,68,47,52,47,37,4.0,0.8303208998404443,2349.8639676002786,2351.6762963002548,,,,,,,114,f,1,2022-12-11_14h50.10.264,RL,2022.2.4,60.005424643461325,
1,82,0,82,0,,,,,,,,,,None,2351.6762963002548,2351.6762963002548,2351.6762963002548,2351.6762963002548,2351.6762963002548,2351.6762963002548,i,0.39447510009631515,2352.0943261999637,2352.0943261999637,2352.0943261999637,2352.0943261999637,2352.0943261999637,2352.0943261999637,2352.3912559999153,2352.3912559999153,2354.036663699895,2354.036663699895,2354.053115699906,2354.053115699906,2354.053115699906,2354.053115699906,2354.053115699906,2354.053115699906,2354.053115699906,2354.053115699906,2354.053115699906,2354.053115699906,2354.053115699906,2354.053115699906,2354.053115699906,2354.053115699906,2354.053115699906,2356.562577100005,2356.562577100005,2356.562577100005,2356.562577100005,2356.562577100005,31,62,44,51,44,52,3.0,1.2456320999190211,2357.8257856001146,2359.7045673001558,,,,,,,114,f,1,2022-12-11_14h50.10.264,RL,2022.2.4,60.005424643461325,
1,83,0,83,0,,,,,,,,,,None,2359.7045673001558,2359.7045673001558,2359.7045673001558,2359.7045673001558,2359.7045673001558,2359.7045673001558,f,0.26287229964509606,2359.9892678000033,2359.9892678000033,2359.9892678000033,2359.9892678000033,2359.9892678000033,2359.9892678000033,2360.286553100217,2360.286553100217,2361.43365170015,2361.43365170015,2361.43365170015,2361.43365170015,2361.43365170015,2361.43365170015,2361.43365170015,2361.43365170015,2361.43365170015,2361.43365170015,2361.43365170015,2361.43365170015,2361.43365170015,2361.43365170015,2361.43365170015,2361.43365170015,2361.43365170015,2363.9424930000678,2363.9424930000678,2363.9424930000678,2363.9424930000678,2363.9424930000678,30,53,42,58,53,56,3.0,0.7474358999170363,2364.707098300103,2366.5357123999856,,,,,,,114,f,1,2022-12-11_14h50.10.264,RL,2022.2.4,60.005424643461325,
1,84,0,84,0,,,,,,,,,,None,2366.5357123999856,2366.5357123999856,2366.5357123999856,2366.5357123999856,2366.5357123999856,2366.5357123999856,i,0.34871779987588525,2366.921199799981,2366.921199799981,2366.921199799981,2366.921199799981,2366.921199799981,2366.921199799981,2367.217717499938,2367.217717499938,2368.397795600351,2368.397795600351,2368.397795600351,2368.397795600351,2368.397795600351,2368.397795600351,2368.397795600351,2368.397795600351,2368.397795600351,2368.397795600351,2368.397795600351,2368.397795600351,2368.397795600351,2368.397795600351,2368.397795600351,2368.397795600351,2368.397795600351,2370.906892400235,2370.906892400235,2370.906892400235,2370.906892400235,2370.906892400235,36,72,36,57,36,60,2.0,1.295341200195253,2372.2198499003425,2374.21490069991,,,,,,,114,f,1,2022-12-11_14h50.10.264,RL,2022.2.4,60.005424643461325,
1,85,0,85,0,,,,,,,,,,None,2374.21490069991,2374.21490069991,2374.21490069991,2374.21490069991,2374.21490069991,2374.21490069991,r,0.306347600184381,2374.547787300311,2374.547787300311,2374.547787300311,2374.547787300311,2374.547787300311,2374.547787300311,2374.8465654999018,2374.8465654999018,2375.8275191001594,2375.8275191001594,2375.8275191001594,2375.8275191001594,2375.8275191001594,2375.8275191001594,2375.8275191001594,2375.8275191001594,2375.8275191001594,2375.8275191001594,2375.8275191001594,2375.8275191001594,2375.8275191001594,2375.8275191001594,2375.8275191001594,2375.8275191001594,2375.8275191001594,2378.336266099941,2378.336266099941,2378.336266099941,2378.336266099941,2378.336266099941,31,66,37,53,31,61,2.0,1.2457647998817265,2379.599863700103,2381.5118803000078,,,,,,,114,f,1,2022-12-11_14h50.10.264,RL,2022.2.4,60.005424643461325,
1,86,0,86,0,,,,,,,,,,None,2381.5118803000078,2381.5118803000078,2381.5118803000078,2381.5118803000078,2381.5118803000078,2381.5118803000078,i,0.46503750002011657,2382.0153875001706,2382.0153875001706,2382.0153875001706,2382.0153875001706,2382.0153875001706,2382.0153875001706,2382.3101201001555,2382.3101201001555,2384.287651800085,2384.287651800085,2384.287651800085,2384.287651800085,2384.287651800085,2384.287651800085,2384.287651800085,2384.287651800085,2384.287651800085,2384.287651800085,2384.287651800085,2384.287651800085,2384.287651800085,2384.287651800085,2384.287651800085,2384.287651800085,2384.287651800085,2386.7969149001874,2386.7969149001874,2386.7969149001874,2386.7969149001874,2386.7969149001874,35,64,46,47,46,49,3.0,0.979475500062108,2387.793990800157,2389.3738090000115,,,,,,,114,f,1,2022-12-11_14h50.10.264,RL,2022.2.4,60.005424643461325,
1,87,0,87,0,,,,,,,,,,None,2389.3738090000115,2389.3738090000115,2389.3738090000115,2389.3738090000115,2389.3738090000115,2389.3738090000115,j,0.3248180001974106,2389.72551369993,2389.72551369993,2389.72551369993,2389.72551369993,2389.72551369993,2389.72551369993,2390.0219816002063,2390.0219816002063,2391.135897700209,2391.135897700209,2391.135897700209,2391.135897700209,2391.135897700209,2391.135897700209,2391.135897700209,2391.135897700209,2391.135897700209,2391.135897700209,2391.135897700209,2391.135897700209,2391.135897700209,2391.135897700209,2391.135897700209,2391.135897700209,2391.135897700209,2393.644388299901,2393.644388299901,2393.644388299901,2393.644388299901,2393.644388299901,34,59,46,61,61,61,3.0,0.7303606998175383,2394.392654400319,2396.371129400097,,,,,,,114,f,1,2022-12-11_14h50.10.264,RL,2022.2.4,60.005424643461325,
1,88,0,88,0,,,,,,,,,,None,2396.371129400097,2396.371129400097,2396.371129400097,2396.371129400097,2396.371129400097,2396.371129400097,i,0.26895949989557266,2396.6732479999773,2396.6732479999773,2396.6732479999773,2396.6732479999773,2396.6732479999773,2396.6732479999773,2396.9694659002125,2396.9694659002125,2398.68175850017,2398.68175850017,2398.68175850017,2398.68175850017,2398.68175850017,2398.68175850017,2398.68175850017,2398.68175850017,2398.68175850017,2398.68175850017,2398.68175850017,2398.68175850017,2398.68175850017,2398.68175850017,2398.68175850017,2398.68175850017,2398.68175850017,2401.1908212001435,2401.1908212001435,2401.1908212001435,2401.1908212001435,2401.1908212001435,39,60,40,50,40,51,2.0,1.1787329004146159,2402.387191399932,2404.166426700074,,,,,,,114,f,1,2022-12-11_14h50.10.264,RL,2022.2.4,60.005424643461325,
1,89,0,89,0,,,,,,,,,,None,2404.166426700074,2404.166426700074,2404.166426700074,2404.166426700074,2404.166426700074,2404.166426700074,f,0.3946308000013232,2404.583297899924,2404.583297899924,2404.583297899924,2404.583297899924,2404.583297899924,2404.583297899924,2404.881759500131,2404.881759500131,2405.89513859991,2405.89513859991,2405.89513859991,2405.89513859991,2405.89513859991,2405.89513859991,2405.89513859991,2405.89513859991,2405.89513859991,2405.89513859991,2405.89513859991,2405.89513859991,2405.89513859991,2405.89513859991,2405.89513859991,2405.89513859991,2405.89513859991,2408.404185099993,2408.404185099993,2408.404185099993,2408.404185099993,2408.404185099993,38,62,40,59,62,50,4.0,2.2097228998318315,2410.6317469999194,2412.2941479003057,,,,,,,114,f,1,2022-12-11_14h50.10.264,RL,2022.2.4,60.005424643461325,
1,90,0,90,0,,,,,,,,,,None,2412.2941479003057,2412.2941479003057,2412.2941479003057,2412.2941479003057,2412.2941479003057,2412.2941479003057,f,0.3969747996889055,2412.711919100024,2412.711919100024,2412.711919100024,2412.711919100024,2412.711919100024,2412.711919100024,2413.0095097003505,2413.0095097003505,2413.9066190002486,2413.9066190002486,2413.9066190002486,2413.9066190002486,2413.9066190002486,2413.9066190002486,2413.9066190002486,2413.9066190002486,2413.9066190002486,2413.9066190002486,2413.9066190002486,2413.9066190002486,2413.9066190002486,2413.9066190002486,2413.9066190002486,2413.9066190002486,2413.9066190002486,2416.4157056999393,2416.4157056999393,2416.4157056999393,2416.4157056999393,2416.4157056999393,29,65,48,58,65,44,5.0,1.0795281999744475,2417.5132218003273,2419.208844299894,,,,,,,114,f,1,2022-12-11_14h50.10.264,RL,2022.2.4,60.005424643461325,
1,91,0,91,0,,,,,,,,,,None,2419.208844299894,2419.208844299894,2419.208844299894,2419.208844299894,2419.208844299894,2419.208844299894,i,0.26998290000483394,2419.5116636003368,2419.5116636003368,2419.5116636003368,2419.5116636003368,2419.5116636003368,2419.5116636003368,2419.8073072000407,2419.8073072000407,2421.552624099888,2421.552624099888,2421.552624099888,2421.552624099888,2421.552624099888,2421.552624099888,2421.552624099888,2421.552624099888,2421.552624099888,2421.552624099888,2421.552624099888,2421.552624099888,2421.552624099888,2421.552624099888,2421.552624099888,2421.552624099888,2421.552624099888,2424.0617709001526,2424.0617709001526,2424.0617709001526,2424.0617709001526,2424.0617709001526,28,66,46,50,46,38,5.0,1.1294056996703148,2425.2087512002327,2426.8881005002186,,,,,,,114,f,1,2022-12-11_14h50.10.264,RL,2022.2.4,60.005424643461325,
1,92,0,92,0,,,,,,,,,,None,2426.8881005002186,2426.8881005002186,2426.8881005002186,2426.8881005002186,2426.8881005002186,2426.8881005002186,i,0.29692710004746914,2427.2079338999465,2427.2079338999465,2427.2079338999465,2427.2079338999465,2427.2079338999465,2427.2079338999465,2427.5033307000995,2427.5033307000995,2428.8495395001955,2428.8495395001955,2428.8495395001955,2428.8495395001955,2428.8495395001955,2428.8495395001955,2428.8495395001955,2428.8495395001955,2428.8495395001955,2428.8495395001955,2428.8495395001955,2428.8495395001955,2428.8495395001955,2428.8495395001955,2428.8495395001955,2428.8495395001955,2428.8495395001955,2431.3585127000697,2431.3585127000697,2431.3585127000697,2431.3585127000697,2431.3585127000697,37,66,50,57,50,49,4.0,1.5276676998473704,2432.9040443999693,2434.7499764999375,,,,,,,114,f,1,2022-12-11_14h50.10.264,RL,2022.2.4,60.005424643461325,
1,93,0,93,0,,,,,,,,,,None,2434.7499764999375,2434.7499764999375,2434.7499764999375,2434.7499764999375,2434.7499764999375,2434.7499764999375,f,0.34511040011420846,2435.11713650031,2435.11713650031,2435.11713650031,2435.11713650031,2435.11713650031,2435.11713650031,2435.4149555000477,2435.4149555000477,2436.910725600086,2436.910725600086,2436.910725600086,2436.910725600086,2436.910725600086,2436.910725600086,2436.910725600086,2436.910725600086,2436.910725600086,2436.910725600086,2436.910725600086,2436.910725600086,2436.910725600086,2436.910725600086,2436.910725600086,2436.910725600086,2436.910725600086,2439.4195940000936,2439.4195940000936,2439.4195940000936,2439.4195940000936,2439.4195940000936,30,62,53,53,62,48,5.0,1.0953483004122972,2440.5332478000782,2442.212603300344,,,,,,,114,f,1,2022-12-11_14h50.10.264,RL,2022.2.4,60.005424643461325,
1,94,0,94,0,,,,,,,,,,None,2442.212603300344,2442.212603300344,2442.212603300344,2442.212603300344,2442.212603300344,2442.212603300344,f,0.40371409989893436,2442.6451816000044,2442.6451816000044,2442.6451816000044,2442.6451816000044,2442.6451816000044,2442.6451816000044,2442.944153000135,2442.944153000135,2444.007877700031,2444.007877700031,2444.007877700031,2444.007877700031,2444.007877700031,2444.007877700031,2444.007877700031,2444.007877700031,2444.007877700031,2444.007877700031,2444.007877700031,2444.007877700031,2444.007877700031,2444.007877700031,2444.007877700031,2444.007877700031,2444.007877700031,2446.5172565001994,2446.5172565001994,2446.5172565001994,2446.5172565001994,2446.5172565001994,30,72,46,53,72,60,5.0,0.7306300001218915,2447.2651558001526,2449.226850999985,,,,,,,114,f,1,2022-12-11_14h50.10.264,RL,2022.2.4,60.005424643461325,
1,95,0,95,0,,,,,,,,,,None,2449.226850999985,2449.226850999985,2449.226850999985,2449.226850999985,2449.226850999985,2449.226850999985,i,0.601227100007236,2449.861070000101,2449.861070000101,2449.861070000101,2449.861070000101,2449.861070000101,2449.861070000101,2450.1583062000573,2450.1583062000573,2451.769952800125,2451.769952800125,2451.769952800125,2451.769952800125,2451.769952800125,2451.769952800125,2451.769952800125,2451.769952800125,2451.769952800125,2451.769952800125,2451.769952800125,2451.769952800125,2451.769952800125,2451.769952800125,2451.769952800125,2451.769952800125,2451.769952800125,2454.2791701001115,2454.2791701001115,2454.2791701001115,2454.2791701001115,2454.2791701001115,30,75,47,52,47,65,3.0,1.4292077999562025,2455.725337800104,2457.3216281998903,,,,,,,114,f,1,2022-12-11_14h50.10.264,RL,2022.2.4,60.005424643461325,
1,96,0,96,0,,,,,,,,,,None,2457.3216281998903,2457.3216281998903,2457.3216281998903,2457.3216281998903,2457.3216281998903,2457.3216281998903,f,0.28240189980715513,2457.639429700095,2457.639429700095,2457.639429700095,2457.639429700095,2457.639429700095,2457.639429700095,2457.936623699963,2457.936623699963,2459.1497436999343,2459.1497436999343,2459.1497436999343,2459.1497436999343,2459.1497436999343,2459.1497436999343,2459.1497436999343,2459.1497436999343,2459.1497436999343,2459.1497436999343,2459.1497436999343,2459.1497436999343,2459.1497436999343,2459.1497436999343,2459.1497436999343,2459.1497436999343,2459.1497436999343,2461.659326199908,2461.659326199908,2461.659326199908,2461.659326199908,2461.659326199908,39,75,47,48,75,60,5.0,0.8960102996788919,2462.5733353001997,2464.2192172999494,,,,,,,114,f,1,2022-12-11_14h50.10.264,RL,2022.2.4,60.005424643461325,
1,97,0,97,0,,,,,,,,,,None,2464.2192172999494,2464.2192172999494,2464.2192172999494,2464.2192172999494,2464.2192172999494,2464.2192172999494,f,0.36091670021414757,2464.6036570002325,2464.6036570002325,2464.6036570002325,2464.6036570002325,2464.6036570002325,2464.6036570002325,2464.9008820001036,2464.9008820001036,2466.5961303003132,2466.5961303003132,2466.5961303003132,2466.5961303003132,2466.5961303003132,2466.5961303003132,2466.5961303003132,2466.5961303003132,2466.5961303003132,2466.5961303003132,2466.5961303003132,2466.5961303003132,2466.5961303003132,2466.5961303003132,2466.5961303003132,2466.5961303003132,2466.5961303003132,2469.105272700079,2469.105272700079,2469.105272700079,2469.105272700079,2469.105272700079,36,75,46,47,75,28,6.0,1.0954635003581643,2470.2193621001206,2472.0312487003393,,,,,,,114,f,1,2022-12-11_14h50.10.264,RL,2022.2.4,60.005424643461325,
1,98,0,98,0,,,,,,,,,,None,2472.0312487003393,2472.0312487003393,2472.0312487003393,2472.0312487003393,2472.0312487003393,2472.0312487003393,f,0.30442679999396205,2472.3652213001624,2472.3652213001624,2472.3652213001624,2472.3652213001624,2472.3652213001624,2472.3652213001624,2472.663424000144,2472.663424000144,2473.942956600338,2473.942956600338,2473.942956600338,2473.942956600338,2473.942956600338,2473.942956600338,2473.942956600338,2473.942956600338,2473.942956600338,2473.942956600338,2473.942956600338,2473.942956600338,2473.942956600338,2473.942956600338,2473.942956600338,2473.942956600338,2473.942956600338,2476.45236020023,2476.45236020023,2476.45236020023,2476.45236020023,2476.45236020023,33,70,47,50,70,36,6.0,1.66075100004673,2478.13090489991,2479.976280800067,,,,,,,114,f,1,2022-12-11_14h50.10.264,RL,2022.2.4,60.005424643461325,
1,99,0,99,0,,,,,,,,,,None,2479.976280800067,2479.976280800067,2479.976280800067,2479.976280800067,2479.976280800067,2479.976280800067,f,0.30485970014706254,2480.310543200001,2480.310543200001,2480.310543200001,2480.310543200001,2480.310543200001,2480.310543200001,2480.6080038999207,2480.6080038999207,2482.336496000178,2482.336496000178,2482.336496000178,2482.336496000178,2482.336496000178,2482.336496000178,2482.336496000178,2482.336496000178,2482.336496000178,2482.336496000178,2482.336496000178,2482.336496000178,2482.336496000178,2482.336496000178,2482.336496000178,2482.336496000178,2482.336496000178,2484.845798500348,2484.845798500348,2484.845798500348,2484.845798500348,2484.845798500348,27,78,62,59,78,70,5.0,1.8103135996498168,2486.6740876999684,2488.469796600286,,,,,,,114,f,1,2022-12-11_14h50.10.264,RL,2022.2.4,60.005424643461325,
1,100,0,100,0,,,,,,,,,,None,2488.469796600286,2488.469796600286,2488.469796600286,2488.469796600286,2488.469796600286,2488.469796600286,f,0.3315205001272261,2488.8193387002684,2488.8193387002684,2488.8193387002684,2488.8193387002684,2488.8193387002684,2488.8193387002684,2489.118447000161,2489.118447000161,2490.3650894002058,2490.3650894002058,2490.3650894002058,2490.3650894002058,2490.3650894002058,2490.3650894002058,2490.3650894002058,2490.3650894002058,2490.3650894002058,2490.3650894002058,2490.3650894002058,2490.3650894002058,2490.3650894002058,2490.3650894002058,2490.3650894002058,2490.3650894002058,2490.3650894002058,2492.873869500123,2492.873869500123,2492.873869500123,2492.873869500123,2492.873869500123,44,78,64,58,78,43,6.0,1.4449124997481704,2494.336338600144,2496.18226090027,,,,,,,114,f,1,2022-12-11_14h50.10.264,RL,2022.2.4,60.005424643461325,
1,101,0,101,0,,,,,,,,,,None,2496.18226090027,2496.18226090027,2496.18226090027,2496.18226090027,2496.18226090027,2496.18226090027,f,0.41568109998479486,2496.6332491002977,2496.6332491002977,2496.6332491002977,2496.6332491002977,2496.6332491002977,2496.6332491002977,2496.9301841999404,2496.9301841999404,2497.7946242000908,2497.7946242000908,2497.7946242000908,2497.7946242000908,2497.7946242000908,2497.7946242000908,2497.7946242000908,2497.7946242000908,2497.7946242000908,2497.7946242000908,2497.7946242000908,2497.7946242000908,2497.7946242000908,2497.7946242000908,2497.7946242000908,2497.7946242000908,2497.7946242000908,2500.3034453000873,2500.3034453000873,2500.3034453000873,2500.3034453000873,2500.3034453000873,39,80,47,62,80,39,6.0,2.4924017996527255,2502.8136646999046,2504.4759353003465,,,,,,,114,f,1,2022-12-11_14h50.10.264,RL,2022.2.4,60.005424643461325,
1,102,0,102,0,,,,,,,,,,None,2504.4759353003465,2504.4759353003465,2504.4759353003465,2504.4759353003465,2504.4759353003465,2504.4759353003465,f,0.2971350001171231,2504.796229599975,2504.796229599975,2504.796229599975,2504.796229599975,2504.796229599975,2504.796229599975,2505.091608799994,2505.091608799994,2506.3047915003262,2506.3047915003262,2506.3214664999396,2506.3214664999396,2506.3214664999396,2506.3214664999396,2506.3214664999396,2506.3214664999396,2506.3214664999396,2506.3214664999396,2506.3214664999396,2506.3214664999396,2506.3214664999396,2506.3214664999396,2506.3214664999396,2506.3214664999396,2506.3214664999396,2508.8301156000234,2508.8301156000234,2508.8301156000234,2508.8301156000234,2508.8301156000234,39,81,55,65,81,55,6.0,1.1962210000492632,2510.0439523002133,2511.939797699917,,,,,,,114,f,1,2022-12-11_14h50.10.264,RL,2022.2.4,60.005424643461325,
1,103,0,103,0,,,,,,,,,,None,2511.939797699917,2511.939797699917,2511.939797699917,2511.939797699917,2511.939797699917,2511.939797699917,f,0.30969230039045215,2512.273405000102,2512.273405000102,2512.273405000102,2512.273405000102,2512.273405000102,2512.273405000102,2512.5709115001373,2512.5709115001373,2513.867688000202,2513.867688000202,2513.867688000202,2513.867688000202,2513.867688000202,2513.867688000202,2513.867688000202,2513.867688000202,2513.867688000202,2513.867688000202,2513.867688000202,2513.867688000202,2513.867688000202,2513.867688000202,2513.867688000202,2513.867688000202,2513.867688000202,2516.376411099918,2516.376411099918,2516.376411099918,2516.376411099918,2516.376411099918,39,76,56,61,76,42,6.0,1.0631056996062398,2517.4566152002662,2519.25253659999,,,,,,,114,f,1,2022-12-11_14h50.10.264,RL,2022.2.4,60.005424643461325,
1,104,0,104,0,,,,,,,,,,None,2519.25253659999,2519.25253659999,2519.25253659999,2519.25253659999,2519.25253659999,2519.25253659999,r,0.31462909979745746,2519.5869535002857,2519.5869535002857,2519.5869535002857,2519.5869535002857,2519.5869535002857,2519.5869535002857,2519.8845918001607,2519.8845918001607,2520.7815648000687,2520.7815648000687,2520.7815648000687,2520.7815648000687,2520.7815648000687,2520.7815648000687,2520.7815648000687,2520.7815648000687,2520.7815648000687,2520.7815648000687,2520.7815648000687,2520.7815648000687,2520.7815648000687,2520.7815648000687,2520.7815648000687,2520.7815648000687,2520.7815648000687,2523.2912481999956,2523.2912481999956,2523.2912481999956,2523.2912481999956,2523.2912481999956,35,82,54,56,35,56,3.0,1.3291094000451267,2524.637133900076,2526.4828786998987,,,,,,,114,f,1,2022-12-11_14h50.10.264,RL,2022.2.4,60.005424643461325,
1,105,0,105,0,,,,,,,,,,None,2526.4828786998987,2526.4828786998987,2526.4828786998987,2526.4828786998987,2526.4828786998987,2526.4828786998987,f,0.3148051998578012,2526.8336962000467,2526.8336962000467,2526.8336962000467,2526.8336962000467,2526.8336962000467,2526.8336962000467,2527.131593500264,2527.131593500264,2528.1284850002266,2528.1284850002266,2528.1284850002266,2528.1284850002266,2528.1284850002266,2528.1284850002266,2528.1284850002266,2528.1284850002266,2528.1284850002266,2528.1284850002266,2528.1284850002266,2528.1284850002266,2528.1284850002266,2528.1284850002266,2528.1284850002266,2528.1284850002266,2528.1284850002266,2530.637469300069,2530.637469300069,2530.637469300069,2530.637469300069,2530.637469300069,47,80,44,57,80,56,5.0,1.727438600268215,2532.3831364000216,2534.0786578003317,,,,,,,114,f,1,2022-12-11_14h50.10.264,RL,2022.2.4,60.005424643461325,
1,106,0,106,0,,,,,,,,,,None,2534.0786578003317,2534.0786578003317,2534.0786578003317,2534.0786578003317,2534.0786578003317,2534.0786578003317,f,0.29589630011469126,2534.3959993002936,2534.3959993002936,2534.3959993002936,2534.3959993002936,2534.3959993002936,2534.3959993002936,2534.6942219003104,2534.6942219003104,2536.1065639001317,2536.1065639001317,2536.1065639001317,2536.1065639001317,2536.1065639001317,2536.1065639001317,2536.1065639001317,2536.1065639001317,2536.1065639001317,2536.1065639001317,2536.1065639001317,2536.1065639001317,2536.1065639001317,2536.1065639001317,2536.1065639001317,2536.1065639001317,2536.1065639001317,2538.6158197000623,2538.6158197000623,2538.6158197000623,2538.6158197000623,2538.6158197000623,43,74,50,55,74,49,5.0,1.3124739998020232,2539.945406100247,2541.6083313999698,,,,,,,114,f,1,2022-12-11_14h50.10.264,RL,2022.2.4,60.005424643461325,
1,107,0,107,0,,,,,,,,,,None,2541.6083313999698,2541.6083313999698,2541.6083313999698,2541.6083313999698,2541.6083313999698,2541.6083313999698,f,0.30628810031339526,2541.944016800262,2541.944016800262,2541.944016800262,2541.944016800262,2541.944016800262,2541.944016800262,2542.239939799998,2542.239939799998,2543.320552200079,2543.320552200079,2543.320552200079,2543.320552200079,2543.320552200079,2543.320552200079,2543.320552200079,2543.320552200079,2543.320552200079,2543.320552200079,2543.320552200079,2543.320552200079,2543.320552200079,2543.320552200079,2543.320552200079,2543.320552200079,2543.320552200079,2545.829395700246,2545.829395700246,2545.829395700246,2545.829395700246,2545.829395700246,32,77,47,58,77,61,5.0,0.7308614999055862,2546.5774079998955,2548.223476700019,,,,,,,114,f,1,2022-12-11_14h50.10.264,RL,2022.2.4,60.005424643461325,
1,108,0,108,0,,,,,,,,,,None,2548.223476700019,2548.223476700019,2548.223476700019,2548.223476700019,2548.223476700019,2548.223476700019,f,0.29786309972405434,2548.54129939992,2548.54129939992,2548.54129939992,2548.54129939992,2548.54129939992,2548.54129939992,2548.8385731000453,2548.8385731000453,2550.168626199942,2550.168626199942,2550.168626199942,2550.168626199942,2550.168626199942,2550.168626199942,2550.168626199942,2550.168626199942,2550.168626199942,2550.168626199942,2550.168626199942,2550.168626199942,2550.168626199942,2550.168626199942,2550.168626199942,2550.168626199942,2550.168626199942,2552.677732999902,2552.677732999902,2552.677732999902,2552.677732999902,2552.677732999902,36,73,45,55,73,46,6.0,1.0960639999248087,2553.7909657000564,2555.3041612999514,,,,,,,114,f,1,2022-12-11_14h50.10.264,RL,2022.2.4,60.005424643461325,
1,109,0,109,0,,,,,,,,,,None,2555.3041612999514,2555.3041612999514,2555.3041612999514,2555.3041612999514,2555.3041612999514,2555.3041612999514,f,0.3740224000066519,2555.7057382003404,2555.7057382003404,2555.7057382003404,2555.7057382003404,2555.7057382003404,2555.7057382003404,2556.0023395000026,2556.0023395000026,2557.8642402999103,2557.8642402999103,2557.8642402999103,2557.8642402999103,2557.8642402999103,2557.8642402999103,2557.8642402999103,2557.8642402999103,2557.8642402999103,2557.8642402999103,2557.8642402999103,2557.8642402999103,2557.8642402999103,2557.8642402999103,2557.8642402999103,2557.8642402999103,2557.8642402999103,2560.3732414999977,2560.3732414999977,2560.3732414999977,2560.3732414999977,2560.3732414999977,35,74,44,58,74,53,5.0,0.962691199965775,2561.3539696000516,2562.999917600304,,,,,,,114,f,1,2022-12-11_14h50.10.264,RL,2022.2.4,60.005424643461325,
1,110,0,110,0,,,,,,,,,,None,2562.999917600304,2562.999917600304,2562.999917600304,2562.999917600304,2562.999917600304,2562.999917600304,f,0.31983389984816313,2563.351685100235,2563.351685100235,2563.351685100235,2563.351685100235,2563.351685100235,2563.351685100235,2563.6483118003234,2563.6483118003234,2564.844743900001,2564.844743900001,2564.8619439001195,2564.8619439001195,2564.8619439001195,2564.8619439001195,2564.8619439001195,2564.8619439001195,2564.8619439001195,2564.8619439001195,2564.8619439001195,2564.8619439001195,2564.8619439001195,2564.8619439001195,2564.8619439001195,2564.8619439001195,2564.8619439001195,2567.370589400176,2567.370589400176,2567.370589400176,2567.370589400176,2567.370589400176,39,71,41,56,71,57,5.0,0.6976615996100008,2568.085336300079,2569.6481000003405,,,,,,,114,f,1,2022-12-11_14h50.10.264,RL,2022.2.4,60.005424643461325,
1,111,0,111,0,,,,,,,,,,None,2569.6481000003405,2569.6481000003405,2569.6481000003405,2569.6481000003405,2569.6481000003405,2569.6481000003405,f,0.4231194001622498,2570.1000308003277,2570.1000308003277,2570.1000308003277,2570.1000308003277,2570.1000308003277,2570.1000308003277,2570.3965531000867,2570.3965531000867,2572.274485700298,2572.274485700298,2572.2913513001986,2572.2913513001986,2572.2913513001986,2572.2913513001986,2572.2913513001986,2572.2913513001986,2572.2913513001986,2572.2913513001986,2572.2913513001986,2572.2913513001986,2572.2913513001986,2572.2913513001986,2572.2913513001986,2572.2913513001986,2572.2913513001986,2574.800343800336,2574.800343800336,2574.800343800336,2574.800343800336,2574.800343800336,44,67,38,60,67,60,4.0,1.3624521000310779,2576.1797557002865,2578.091699700337,,,,,,,114,f,1,2022-12-11_14h50.10.264,RL,2022.2.4,60.005424643461325,
1,112,0,112,0,,,,,,,,,,None,2578.091699700337,2578.091699700337,2578.091699700337,2578.091699700337,2578.091699700337,2578.091699700337,f,0.3546913997270167,2578.4769123001024,2578.4769123001024,2578.4769123001024,2578.4769123001024,2578.4769123001024,2578.4769123001024,2578.7736701001413,2578.7736701001413,2580.020380300004,2580.020380300004,2580.036746900063,2580.036746900063,2580.036746900063,2580.036746900063,2580.036746900063,2580.036746900063,2580.036746900063,2580.036746900063,2580.036746900063,2580.036746900063,2580.036746900063,2580.036746900063,2580.036746900063,2580.036746900063,2580.036746900063,2582.54581100028,2582.54581100028,2582.54581100028,2582.54581100028,2582.54581100028,37,74,31,59,74,64,5.0,1.7443964998237789,2584.3079031999223,2586.1703038001433,,,,,,,114,f,1,2022-12-11_14h50.10.264,RL,2022.2.4,60.005424643461325,
