bandit,trials.thisRepN,trials.thisTrialN,trials.thisN,trials.thisIndex,instru_img1.started,instru_img1.stopped,instru_resp.keys,instru_resp.rt,instru_resp.started,instru_resp.stopped,instru_img2.started,instru_img2.stopped,instru_resp2.keys,instru_resp2.rt,instru_resp2.started,instru_resp2.stopped,fixbefore_2.started,fixbefore_2.stopped,rest_image.started,rest_image.stopped,rest_response.keys,rest_response.started,rest_response.stopped,red.started,red.stopped,green.started,green.stopped,yellow.started,yellow.stopped,blue.started,blue.stopped,choose_bandit.keys,choose_bandit.rt,choose_bandit.started,choose_bandit.stopped,Fixation.started,Fixation.stopped,black.started,black.stopped,red_2.started,red_2.stopped,green_2.started,green_2.stopped,yellow_2.started,yellow_2.stopped,blue_2.started,blue_2.stopped,fixation_2.started,fixation_2.stopped,docs.started,docs.stopped,image_2.started,image_2.stopped,black_com.started,black_com.stopped,reward_sub.started,reward_sub.stopped,palyerb.started,palyerb.stopped,reward__sub.started,reward__sub.stopped,compare.started,compare.stopped,red_compare.started,red_compare.stopped,green_com.started,green_com.stopped,yellow_com.started,yellow_com.stopped,blue_com.started,blue_com.stopped,rewardyellow,rewardred,rewardblue,rewardgreen,subchoose,playerb,image_3.started,image_3.stopped,slider.response,slider.rt,slider.started,slider.stopped,text.started,text.stopped,image_4.started,image_4.stopped,image_5.started,image_5.stopped,bigx.started,bigx.stopped,intertrialfix.started,intertrialfix.stopped,rest_response.rt,image.started,image.stopped,key_resp.keys,key_resp.started,key_resp.stopped,participant,Gender,Age,date,expName,psychopyVersion,frameRate,
,,,,,18.61801639990881,None,space,0.9911390000488609,18.61801639990881,None,,,,,,,,,,,,,,,,,,,,,,,,,,,,,,,,,,,,,,,,,,,,,,,,,,,,,,,,,,,,,,,,,,,,,,,,,,,,,,,,,,,,,,,,,,115,f,22,2022_Dec_11_1526,RL,2021.2.3,59.943880516485606,
,,,,,,,,,,,19.628671899903566,None,space,5.0303901000879705,19.628671899903566,None,,,,,,,,,,,,,,,,,,,,,,,,,,,,,,,,,,,,,,,,,,,,,,,,,,,,,,,,,,,,,,,,,,,,,,,,,,,,,,,,,,,,115,f,22,2022_Dec_11_1526,RL,2021.2.3,59.943880516485606,
1,0,0,0,0,,,,,,,,,,,,,24.691677700029686,None,None,None,None,None,None,25.70519130001776,None,25.70519130001776,None,25.70519130001776,None,25.70519130001776,None,r,0.2937861999962479,25.70519130001776,None,25.70519130001776,None,26.044484599959105,None,26.044484599959105,None,26.044484599959105,None,26.044484599959105,None,26.044484599959105,None,26.044484599959105,None,26.33111699996516,27.164903600001708,26.33111699996516,27.164903600001708,27.20144940004684,None,27.20144940004684,None,27.20144940004684,None,27.20144940004684,None,27.20144940004684,None,27.20144940004684,None,27.20144940004684,None,27.20144940004684,None,27.20144940004684,None,65,50,59,35,65,64,29.720753700006753,None,7.0,3.007326800143346,29.720753700006753,None,29.720753700006753,None,29.720753700006753,None,29.720753700006753,None,None,None,32.77220389991999,None,,,,,,,115,f,22,2022_Dec_11_1526,RL,2021.2.3,59.943880516485606,
1,1,0,1,0,,,,,,,,,,,,,,,None,None,None,None,None,34.65630710008554,None,34.65630710008554,None,34.65630710008554,None,34.65630710008554,None,f,0.7629369001369923,34.65630710008554,None,34.65630710008554,None,35.46047169994563,None,35.46047169994563,None,35.46047169994563,None,35.46047169994563,None,35.46047169994563,None,35.46047169994563,None,35.75425520003773,None,35.75425520003773,None,37.641159899998456,None,37.641159899998456,None,37.641159899998456,None,37.641159899998456,None,37.641159899998456,None,37.641159899998456,None,37.641159899998456,None,37.641159899998456,None,37.641159899998456,None,74,48,58,31,48,76,40.15426030009985,None,4.0,1.0527653999160975,40.15426030009985,None,40.15426030009985,None,40.15426030009985,None,40.15426030009985,None,None,None,41.22406779997982,None,,,,,,,115,f,22,2022_Dec_11_1526,RL,2021.2.3,59.943880516485606,
1,2,0,2,0,,,,,,,,,,,,,,,None,None,None,None,None,43.128956800093874,None,43.128956800093874,None,43.128956800093874,None,43.128956800093874,None,r,0.9200603999197483,43.128956800093874,None,43.128956800093874,None,44.097879300126806,None,44.097879300126806,None,44.097879300126806,None,44.097879300126806,None,44.097879300126806,None,44.097879300126806,None,44.393583700060844,46.3114008998964,44.393583700060844,46.3114008998964,46.34575490001589,None,46.34575490001589,None,46.34575490001589,None,46.34575490001589,None,46.34575490001589,None,46.34575490001589,None,46.34575490001589,None,46.34575490001589,None,46.34575490001589,None,69,59,63,45,69,29,48.86861169990152,None,6.0,1.417153300018981,48.86861169990152,None,48.86861169990152,None,48.86861169990152,None,48.86861169990152,None,None,None,50.297378400107846,None,,,,,,,115,f,22,2022_Dec_11_1526,RL,2021.2.3,59.943880516485606,
1,3,0,3,0,,,,,,,,,,,,,,,None,None,None,None,None,52.235242099966854,None,52.235242099966854,None,52.235242099966854,None,52.235242099966854,None,r,0.39411610015667975,52.235242099966854,None,52.235242099966854,None,52.672376200091094,None,52.672376200091094,None,52.672376200091094,None,52.672376200091094,None,52.672376200091094,None,52.672376200091094,None,52.966153600020334,54.600518400082365,52.966153600020334,54.600518400082365,54.633691400056705,None,54.633691400056705,None,54.633691400056705,None,54.633691400056705,None,54.633691400056705,None,54.633691400056705,None,54.633691400056705,None,54.633691400056705,None,54.633691400056705,None,67,54,55,41,67,37,57.14847839996219,None,4.0,1.3551574999000877,57.14847839996219,None,57.14847839996219,None,57.14847839996219,None,57.14847839996219,None,None,None,58.51949830004014,None,,,,,,,115,f,22,2022_Dec_11_1526,RL,2021.2.3,59.943880516485606,
1,4,0,4,0,,,,,,,,,,,,,,,None,None,None,None,None,60.407567099900916,None,60.407567099900916,None,60.407567099900916,None,60.407567099900916,None,r,1.051576599944383,60.407567099900916,None,60.407567099900916,None,61.513848199974746,None,61.513848199974746,None,61.513848199974746,None,61.513848199974746,None,61.513848199974746,None,61.513848199974746,None,61.805680100107566,None,61.805680100107566,None,63.7522639001254,None,63.7522639001254,None,63.7522639001254,None,63.7522639001254,None,63.7522639001254,None,63.7522639001254,None,63.7522639001254,None,63.7522639001254,None,63.7522639001254,None,73,50,58,42,73,26,66.2741926999297,None,7.0,1.3516691999975592,66.2741926999297,None,66.2741926999297,None,66.2741926999297,None,66.2741926999297,None,None,None,67.64245330006815,None,,,,,,,115,f,22,2022_Dec_11_1526,RL,2021.2.3,59.943880516485606,
1,5,0,5,0,,,,,,,,,,,,,,,None,None,None,None,None,69.63042040006258,None,69.63042040006258,None,69.63042040006258,None,69.63042040006258,None,r,0.5287905000150204,69.63042040006258,None,69.63042040006258,None,70.20078620011918,None,70.20078620011918,None,70.20078620011918,None,70.20078620011918,None,70.20078620011918,None,70.20078620011918,None,70.49494379991665,None,70.49494379991665,None,72.34886180004105,None,72.34886180004105,None,72.34886180004105,None,72.34886180004105,None,72.34886180004105,None,72.34886180004105,None,72.34886180004105,None,72.34886180004105,None,72.34886180004105,None,71,51,68,38,71,37,74.85922669991851,None,7.0,1.2725126000586897,74.85922669991851,None,74.85922669991851,None,74.85922669991851,None,74.85922669991851,None,None,None,76.1487018999178,None,,,,,,,115,f,22,2022_Dec_11_1526,RL,2021.2.3,59.943880516485606,
1,6,0,6,0,,,,,,,,,,,,,,,None,None,None,None,None,78.08675860008225,None,78.08675860008225,None,78.08675860008225,None,78.08675860008225,None,r,0.23262739996425807,78.08675860008225,None,78.08675860008225,None,78.37685470003635,None,78.37685470003635,None,78.37685470003635,None,78.37685470003635,None,78.37685470003635,None,78.37685470003635,None,78.66753900004551,None,78.66753900004551,None,79.96417990000919,None,79.96417990000919,None,79.96417990000919,None,79.96417990000919,None,79.96417990000919,None,79.96417990000919,None,79.96417990000919,None,79.96417990000919,None,79.96417990000919,None,65,43,65,35,65,84,82.48430839995854,None,3.0,1.5872107001487166,82.48430839995854,None,82.48430839995854,None,82.48430839995854,None,82.48430839995854,None,None,None,84.0877161999233,None,,,,,,,115,f,22,2022_Dec_11_1526,RL,2021.2.3,59.943880516485606,
1,7,0,7,0,,,,,,,,,,,,,,,None,None,None,None,None,85.64182260003872,None,85.64182260003872,None,85.64182260003872,None,85.64182260003872,None,i,0.32764980010688305,85.64182260003872,None,85.64182260003872,None,86.01420750003308,None,86.01420750003308,None,86.01420750003308,None,86.01420750003308,None,86.01420750003308,None,86.01420750003308,None,86.30614429991692,None,86.30614429991692,None,87.45703610009514,None,87.45703610009514,None,87.45703610009514,None,87.45703610009514,None,87.45703610009514,None,87.45703610009514,None,87.45703610009514,None,87.45703610009514,None,87.45703610009514,None,69,48,63,50,63,54,89.97099950001575,None,6.0,1.17322689993307,89.97099950001575,None,89.97099950001575,None,89.97099950001575,None,89.97099950001575,None,None,None,91.16461619990878,None,,,,,,,115,f,22,2022_Dec_11_1526,RL,2021.2.3,59.943880516485606,
1,8,0,8,0,,,,,,,,,,,,,,,None,None,None,None,None,92.81372340000235,None,92.81372340000235,None,92.81372340000235,None,92.81372340000235,None,i,0.3255602999124676,92.81372340000235,None,92.81372340000235,None,93.18444920005277,None,93.18444920005277,None,93.18444920005277,None,93.18444920005277,None,93.18444920005277,None,93.18444920005277,None,93.47763009998016,None,93.47763009998016,None,94.86489520012401,None,94.86489520012401,None,94.86489520012401,None,94.86489520012401,None,94.86489520012401,None,94.86489520012401,None,94.86489520012401,None,94.86489520012401,None,94.86489520012401,None,75,43,66,44,66,75,97.37796809989959,None,5.0,1.9702086998149753,97.37796809989959,None,97.37796809989959,None,97.37796809989959,None,97.37796809989959,None,None,None,99.36470409994945,None,,,,,,,115,f,22,2022_Dec_11_1526,RL,2021.2.3,59.943880516485606,
1,9,0,9,0,,,,,,,,,,,,,,,None,None,None,None,None,100.96890720003285,None,100.96890720003285,None,100.96890720003285,None,100.96890720003285,None,j,0.3305875000078231,100.96890720003285,None,100.96890720003285,None,101.34053519996814,None,101.34053519996814,None,101.34053519996814,None,101.34053519996814,None,101.34053519996814,None,101.34053519996814,None,101.61658490006812,103.16759829991497,101.61658490006812,103.16759829991497,103.21557080000639,None,103.21557080000639,None,103.21557080000639,None,103.21557080000639,None,103.21557080000639,None,103.21557080000639,None,103.21557080000639,None,103.21557080000639,None,103.21557080000639,None,81,48,56,46,46,28,105.73130719992332,None,5.0,1.123300800099969,105.73130719992332,None,105.73130719992332,None,105.73130719992332,None,105.73130719992332,None,None,None,106.87836179998703,None,,,,,,,115,f,22,2022_Dec_11_1526,RL,2021.2.3,59.943880516485606,
1,10,0,10,0,,,,,,,,,,,,,,,None,None,None,None,None,108.50763510004617,None,108.50763510004617,None,108.50763510004617,None,108.50763510004617,None,i,0.38170690019614995,108.50763510004617,None,108.50763510004617,None,108.92857609991916,None,108.92857609991916,None,108.92857609991916,None,108.92857609991916,None,108.92857609991916,None,108.92857609991916,None,109.22178549994715,110.98980169999413,109.22178549994715,110.98980169999413,111.02245320007205,None,111.02245320007205,None,111.02245320007205,None,111.02245320007205,None,111.02245320007205,None,111.02245320007205,None,111.02245320007205,None,111.02245320007205,None,111.02245320007205,None,76,45,62,42,62,30,113.54063439997844,None,6.0,1.1024140999652445,113.54063439997844,None,113.54063439997844,None,113.54063439997844,None,113.54063439997844,None,None,None,114.65832950011827,None,,,,,,,115,f,22,2022_Dec_11_1526,RL,2021.2.3,59.943880516485606,
1,11,0,11,0,,,,,,,,,,,,,,,None,None,None,None,None,116.66350069991313,None,116.66350069991313,None,116.66350069991313,None,116.66350069991313,None,i,0.39677780005149543,116.66350069991313,None,116.66350069991313,None,117.10073240008205,None,117.10073240008205,None,117.10073240008205,None,117.10073240008205,None,117.10073240008205,None,117.10073240008205,None,117.39405769994482,None,117.39405769994482,None,118.99110789992847,None,118.99110789992847,None,118.99110789992847,None,118.99110789992847,None,118.99110789992847,None,118.99110789992847,None,118.99110789992847,None,118.99110789992847,None,118.99110789992847,None,80,44,56,33,56,67,121.50922139990143,None,5.0,1.2895239000208676,121.50922139990143,None,121.50922139990143,None,121.50922139990143,None,121.50922139990143,None,None,None,122.81691269995645,None,,,,,,,115,f,22,2022_Dec_11_1526,RL,2021.2.3,59.943880516485606,
1,12,0,12,0,,,,,,,,,,,,,,,None,None,None,None,None,124.68541259993799,None,124.68541259993799,None,124.68541259993799,None,124.68541259993799,None,j,0.2951266001909971,124.68541259993799,None,124.68541259993799,None,125.02088530012406,None,125.02088530012406,None,125.02088530012406,None,125.02088530012406,None,125.02088530012406,None,125.02088530012406,None,125.31639400008135,126.7505568000488,125.31639400008135,126.7505568000488,126.78205289994366,None,126.78205289994366,None,126.78205289994366,None,126.78205289994366,None,126.78205289994366,None,126.78205289994366,None,126.78205289994366,None,126.78205289994366,None,126.78205289994366,None,85,47,59,39,39,38,129.2989988999907,None,6.0,0.6549927000887692,129.2989988999907,None,129.2989988999907,None,129.2989988999907,None,129.2989988999907,None,None,None,129.96962770004757,None,,,,,,,115,f,22,2022_Dec_11_1526,RL,2021.2.3,59.943880516485606,
1,13,0,13,0,,,,,,,,,,,,,,,None,None,None,None,None,131.55717610009015,None,131.55717610009015,None,131.55717610009015,None,131.55717610009015,None,f,0.7533660000190139,131.55717610009015,None,131.55717610009015,None,132.36456459993497,None,132.36456459993497,None,132.36456459993497,None,132.36456459993497,None,132.36456459993497,None,132.36456459993497,None,132.65502299997024,133.88869950012304,132.65502299997024,133.88869950012304,133.92166380002163,None,133.92166380002163,None,133.92166380002163,None,133.92166380002163,None,133.92166380002163,None,133.92166380002163,None,133.92166380002163,None,133.92166380002163,None,133.92166380002163,None,71,46,54,40,46,70,136.43387529999018,None,4.0,1.3584825999569148,136.43387529999018,None,136.43387529999018,None,136.43387529999018,None,136.43387529999018,None,None,None,137.81594719993882,None,,,,,,,115,f,22,2022_Dec_11_1526,RL,2021.2.3,59.943880516485606,
1,14,0,14,0,,,,,,,,,,,,,,,None,None,None,None,None,139.61238460009918,None,139.61238460009918,None,139.61238460009918,None,139.61238460009918,None,j,0.2881768001243472,139.61238460009918,None,139.61238460009918,None,139.94876300008036,None,139.94876300008036,None,139.94876300008036,None,139.94876300008036,None,139.94876300008036,None,139.94876300008036,None,140.24336869991384,None,140.24336869991384,None,141.75031789997593,None,141.75031789997593,None,141.75031789997593,None,141.75031789997593,None,141.75031789997593,None,141.75031789997593,None,141.75031789997593,None,141.75031789997593,None,141.75031789997593,None,83,46,57,48,48,79,144.27668000012636,None,5.0,1.0061705999542028,144.27668000012636,None,144.27668000012636,None,144.27668000012636,None,144.27668000012636,None,None,None,145.29658859991468,None,,,,,,,115,f,22,2022_Dec_11_1526,RL,2021.2.3,59.943880516485606,
1,15,0,15,0,,,,,,,,,,,,,,,None,None,None,None,None,146.83409260003828,None,146.83409260003828,None,146.83409260003828,None,146.83409260003828,None,r,0.2965790000744164,146.83409260003828,None,146.83409260003828,None,147.17008760012686,None,147.17008760012686,None,147.17008760012686,None,147.17008760012686,None,147.17008760012686,None,147.17008760012686,None,147.46499129990116,148.5991183000151,147.46499129990116,148.5991183000151,148.62893970008008,None,148.62893970008008,None,148.62893970008008,None,148.62893970008008,None,148.62893970008008,None,148.62893970008008,None,148.62893970008008,None,148.62893970008008,None,148.62893970008008,None,83,45,50,49,83,58,151.15177530003712,None,6.0,1.1170973000116646,151.15177530003712,None,151.15177530003712,None,151.15177530003712,None,151.15177530003712,None,None,None,152.288133099908,None,,,,,,,115,f,22,2022_Dec_11_1526,RL,2021.2.3,59.943880516485606,
1,16,0,16,0,,,,,,,,,,,,,,,None,None,None,None,None,154.122530200053,None,154.122530200053,None,154.122530200053,None,154.122530200053,None,r,0.3081779999192804,154.122530200053,None,154.122530200053,None,154.4743808999192,None,154.4743808999192,None,154.4743808999192,None,154.4743808999192,None,154.4743808999192,None,154.4743808999192,None,154.77008459996432,None,154.77008459996432,None,156.44920599996112,None,156.44920599996112,None,156.44920599996112,None,156.44920599996112,None,156.44920599996112,None,156.44920599996112,None,156.44920599996112,None,156.44920599996112,None,156.44920599996112,None,85,45,51,47,85,75,158.96856079995632,None,6.0,1.388547900132835,158.96856079995632,None,158.96856079995632,None,158.96856079995632,None,158.96856079995632,None,None,None,160.37368580000475,None,,,,,,,115,f,22,2022_Dec_11_1526,RL,2021.2.3,59.943880516485606,
1,17,0,17,0,,,,,,,,,,,,,,,None,None,None,None,None,162.17810439993627,None,162.17810439993627,None,162.17810439993627,None,162.17810439993627,None,r,1.1223587000276893,162.17810439993627,None,162.17810439993627,None,163.34731200011447,None,163.34731200011447,None,163.34731200011447,None,163.34731200011447,None,163.34731200011447,None,163.34731200011447,None,163.64287029998377,None,163.64287029998377,None,164.5551553000696,None,164.5551553000696,None,164.5551553000696,None,164.5551553000696,None,164.5551553000696,None,164.5551553000696,None,164.5551553000696,None,164.5551553000696,None,164.5551553000696,None,83,42,50,54,83,75,167.07777000009082,None,6.0,0.9506795001216233,167.07777000009082,None,167.07777000009082,None,167.07777000009082,None,167.07777000009082,None,None,None,168.05292190006003,None,,,,,,,115,f,22,2022_Dec_11_1526,RL,2021.2.3,59.943880516485606,
1,18,0,18,0,,,,,,,,,,,,,,,None,None,None,None,None,169.80015300004743,None,169.80015300004743,None,169.80015300004743,None,169.80015300004743,None,r,0.45150660001672804,169.80015300004743,None,169.80015300004743,None,170.30514540011063,None,170.30514540011063,None,170.30514540011063,None,170.30514540011063,None,170.30514540011063,None,170.30514540011063,None,170.59770860010758,None,170.59770860010758,None,171.81159329996444,None,171.81159329996444,None,171.81159329996444,None,171.81159329996444,None,171.81159329996444,None,171.81159329996444,None,171.81159329996444,None,171.81159329996444,None,171.81159329996444,None,85,51,46,48,85,80,174.32916880003177,None,6.0,0.6710190998855978,174.32916880003177,None,174.32916880003177,None,174.32916880003177,None,174.32916880003177,None,None,None,175.0176713000983,None,,,,,,,115,f,22,2022_Dec_11_1526,RL,2021.2.3,59.943880516485606,
1,19,0,19,0,,,,,,,,,,,,,,,None,None,None,None,None,176.85529169999063,None,176.85529169999063,None,176.85529169999063,None,176.85529169999063,None,r,0.5355145998764783,176.85529169999063,None,176.85529169999063,None,177.44326220010407,None,177.44326220010407,None,177.44326220010407,None,177.44326220010407,None,177.44326220010407,None,177.44326220010407,None,177.73595810006373,179.43695529992692,177.73595810006373,179.43695529992692,179.4684608001262,None,179.4684608001262,None,179.4684608001262,None,179.4684608001262,None,179.4684608001262,None,179.4684608001262,None,179.4684608001262,None,179.4684608001262,None,179.4684608001262,None,84,33,53,53,84,51,181.98648319998756,None,7.0,1.0218390000518411,181.98648319998756,None,181.98648319998756,None,181.98648319998756,None,181.98648319998756,None,None,None,183.0226479000412,None,,,,,,,115,f,22,2022_Dec_11_1526,RL,2021.2.3,59.943880516485606,
1,20,0,20,0,,,,,,,,,,,,,,,None,None,None,None,None,184.74377369997092,None,184.74377369997092,None,184.74377369997092,None,184.74377369997092,None,r,0.3168889000080526,184.74377369997092,None,184.74377369997092,None,185.1106072999537,None,185.1106072999537,None,185.1106072999537,None,185.1106072999537,None,185.1106072999537,None,185.1106072999537,None,185.40801519993693,None,185.40801519993693,None,186.32598170009442,None,186.32598170009442,None,186.32598170009442,None,186.32598170009442,None,186.32598170009442,None,186.32598170009442,None,186.32598170009442,None,186.32598170009442,None,186.32598170009442,None,73,47,54,50,73,41,188.8392386001069,None,6.0,1.4711303999647498,188.8392386001069,None,188.8392386001069,None,188.8392386001069,None,188.8392386001069,None,None,None,190.32785389991477,None,,,,,,,115,f,22,2022_Dec_11_1526,RL,2021.2.3,59.943880516485606,
1,21,0,21,0,,,,,,,,,,,,,,,None,None,None,None,None,191.91548470011912,None,191.91548470011912,None,191.91548470011912,None,191.91548470011912,None,r,0.42533769994042814,191.91548470011912,None,191.91548470011912,None,192.3848995999433,None,192.3848995999433,None,192.3848995999433,None,192.3848995999433,None,192.3848995999433,None,192.3848995999433,None,192.67992069991305,194.130688900128,192.67992069991305,194.130688900128,194.16690640011802,None,194.16690640011802,None,194.16690640011802,None,194.16690640011802,None,194.16690640011802,None,194.16690640011802,None,194.16690640011802,None,194.16690640011802,None,194.16690640011802,None,90,36,52,51,90,79,196.68012379994616,None,7.0,0.7042515999637544,196.68012379994616,None,196.68012379994616,None,196.68012379994616,None,196.68012379994616,None,None,None,197.39932430000044,None,,,,,,,115,f,22,2022_Dec_11_1526,RL,2021.2.3,59.943880516485606,
1,22,0,22,0,,,,,,,,,,,,,,,None,None,None,None,None,199.08701450005174,None,199.08701450005174,None,199.08701450005174,None,199.08701450005174,None,r,0.7940233999397606,199.08701450005174,None,199.08701450005174,None,199.92182669998147,None,199.92182669998147,None,199.92182669998147,None,199.92182669998147,None,199.92182669998147,None,199.92182669998147,None,200.21849939995445,None,200.21849939995445,None,201.38206410012208,None,201.38206410012208,None,201.38206410012208,None,201.38206410012208,None,201.38206410012208,None,201.38206410012208,None,201.38206410012208,None,201.38206410012208,None,201.38206410012208,None,80,43,45,47,80,54,203.90927670011297,None,7.0,0.8182763999793679,203.90927670011297,None,203.90927670011297,None,203.90927670011297,None,203.90927670011297,None,None,None,204.73791450005956,None,,,,,,,115,f,22,2022_Dec_11_1526,RL,2021.2.3,59.943880516485606,
1,23,0,23,0,,,,,,,,,,,,,,,None,None,None,None,None,206.44216699991375,None,206.44216699991375,None,206.44216699991375,None,206.44216699991375,None,r,0.48867760016582906,206.44216699991375,None,206.44216699991375,None,206.97919550002553,None,206.97919550002553,None,206.97919550002553,None,206.97919550002553,None,206.97919550002553,None,206.97919550002553,None,207.27317790011875,None,207.27317790011875,None,209.00668759993277,None,209.00668759993277,None,209.00668759993277,None,209.00668759993277,None,209.00668759993277,None,209.00668759993277,None,209.00668759993277,None,209.00668759993277,None,209.00668759993277,None,82,42,44,39,82,92,211.52185479993932,None,7.0,0.7370370000135154,211.52185479993932,None,211.52185479993932,None,211.52185479993932,None,211.52185479993932,None,None,None,212.27625130000524,None,,,,,,,115,f,22,2022_Dec_11_1526,RL,2021.2.3,59.943880516485606,
1,24,0,24,0,,,,,,,,,,,,,,,None,None,None,None,None,213.94718039990403,None,213.94718039990403,None,213.94718039990403,None,213.94718039990403,None,i,0.3539177000056952,213.94718039990403,None,213.94718039990403,None,214.34781430009753,None,214.34781430009753,None,214.34781430009753,None,214.34781430009753,None,214.34781430009753,None,214.34781430009753,None,214.64495250000618,None,214.64495250000618,None,215.96641870005988,None,215.96641870005988,None,215.96641870005988,None,215.96641870005988,None,215.96641870005988,None,215.96641870005988,None,215.96641870005988,None,215.96641870005988,None,215.96641870005988,None,78,38,49,44,49,93,218.48450629995205,None,7.0,0.731051999842748,218.48450629995205,None,218.48450629995205,None,218.48450629995205,None,218.48450629995205,None,None,None,219.23094550007954,None,,,,,,,115,f,22,2022_Dec_11_1526,RL,2021.2.3,59.943880516485606,
1,25,0,25,0,,,,,,,,,,,,,,,None,None,None,None,None,221.0356010000687,None,221.0356010000687,None,221.0356010000687,None,221.0356010000687,None,None,,221.0356010000687,None,221.0356010000687,None,None,None,None,None,None,None,None,None,None,None,None,None,None,None,None,None,None,None,None,None,None,None,None,None,None,None,None,None,None,None,None,None,None,None,78,39,52,38,0,**,None,None,None,None,None,None,None,None,None,None,None,None,222.5949697000906,None,227.10313390009105,None,,,,,,,115,f,22,2022_Dec_11_1526,RL,2021.2.3,59.943880516485606,
1,26,0,26,0,,,,,,,,,,,,,,,None,None,None,None,None,228.87414219998755,None,228.87414219998755,None,228.87414219998755,None,228.87414219998755,None,j,0.3364643999375403,228.87414219998755,None,228.87414219998755,None,229.2585243000649,None,229.2585243000649,None,229.2585243000649,None,229.2585243000649,None,229.2585243000649,None,229.2585243000649,None,229.55530290002935,None,229.55530290002935,None,231.02170359995216,None,231.02170359995216,None,231.02170359995216,None,231.02170359995216,None,231.02170359995216,None,231.02170359995216,None,231.02170359995216,None,231.02170359995216,None,231.02170359995216,None,74,46,41,44,44,88,233.53704100009054,None,4.0,1.8567498999182135,233.53704100009054,None,233.53704100009054,None,233.53704100009054,None,233.53704100009054,None,None,None,235.4137782000471,None,,,,,,,115,f,22,2022_Dec_11_1526,RL,2021.2.3,59.943880516485606,
1,27,0,27,0,,,,,,,,,,,,,,,None,None,None,None,None,237.42941290000454,None,237.42941290000454,None,237.42941290000454,None,237.42941290000454,None,r,0.28189269988797605,237.42941290000454,None,237.42941290000454,None,237.74802120006643,None,237.74802120006643,None,237.74802120006643,None,237.74802120006643,None,237.74802120006643,None,237.74802120006643,None,238.04447770002298,None,238.04447770002298,None,239.38058029999956,None,239.38058029999956,None,239.38058029999956,None,239.38058029999956,None,239.38058029999956,None,239.38058029999956,None,239.38058029999956,None,239.38058029999956,None,239.38058029999956,None,76,41,41,39,76,84,241.89536680001765,None,4.0,1.1852388998959213,241.89536680001765,None,241.89536680001765,None,241.89536680001765,None,241.89536680001765,None,None,None,243.09855800005607,None,,,,,,,115,f,22,2022_Dec_11_1526,RL,2021.2.3,59.943880516485606,
1,28,0,28,0,,,,,,,,,,,,,,,None,None,None,None,None,244.96949169994332,None,244.96949169994332,None,244.96949169994332,None,244.96949169994332,None,f,0.3213984000030905,244.96949169994332,None,244.96949169994332,None,245.33736760006286,None,245.33736760006286,None,245.33736760006286,None,245.33736760006286,None,245.33736760006286,None,245.33736760006286,None,245.6331627999898,None,245.6331627999898,None,247.6390817000065,None,247.6390817000065,None,247.6390817000065,None,247.6390817000065,None,247.6390817000065,None,247.6390817000065,None,247.6390817000065,None,247.6390817000065,None,247.6390817000065,None,68,40,49,45,40,84,250.15652150008827,None,5.0,0.764452800154686,250.15652150008827,None,250.15652150008827,None,250.15652150008827,None,250.15652150008827,None,None,None,250.93630139995366,None,,,,,,,115,f,22,2022_Dec_11_1526,RL,2021.2.3,59.943880516485606,
1,29,0,29,0,,,,,,,,,,,,,,,None,None,None,None,None,252.50724989990704,None,252.50724989990704,None,252.50724989990704,None,252.50724989990704,None,i,0.274291800102219,252.50724989990704,None,252.50724989990704,None,252.82492669997737,None,252.82492669997737,None,252.82492669997737,None,252.82492669997737,None,252.82492669997737,None,252.82492669997737,None,253.12158329994418,None,253.12158329994418,None,254.88640339998528,None,254.88640339998528,None,254.88640339998528,None,254.88640339998528,None,254.88640339998528,None,254.88640339998528,None,254.88640339998528,None,254.88640339998528,None,254.88640339998528,None,68,40,43,36,43,81,257.4042843999341,None,5.0,0.6219010998029262,257.4042843999341,None,257.4042843999341,None,257.4042843999341,None,257.4042843999341,None,None,None,258.0411690999754,None,,,,,,,115,f,22,2022_Dec_11_1526,RL,2021.2.3,59.943880516485606,
1,30,0,30,0,,,,,,,,,,,,,,,None,None,None,None,None,259.6793923000805,None,259.6793923000805,None,259.6793923000805,None,259.6793923000805,None,r,0.2819994001183659,259.6793923000805,None,259.6793923000805,None,260.0156841999851,None,260.0156841999851,None,260.0156841999851,None,260.0156841999851,None,260.0156841999851,None,260.0156841999851,None,260.3098716000095,None,260.3098716000095,None,261.8284384000581,None,261.8284384000581,None,261.8284384000581,None,261.8284384000581,None,261.8284384000581,None,261.8284384000581,None,261.8284384000581,None,261.8284384000581,None,261.8284384000581,None,72,38,42,44,72,70,264.3418235001154,None,4.0,0.5895418000873178,264.3418235001154,None,264.3418235001154,None,264.3418235001154,None,264.3418235001154,None,None,None,264.9460259999614,None,,,,,,,115,f,22,2022_Dec_11_1526,RL,2021.2.3,59.943880516485606,
1,31,0,31,0,,,,,,,,,,,,,,,None,None,None,None,None,266.9345672999043,None,266.9345672999043,None,266.9345672999043,None,266.9345672999043,None,r,0.32679320010356605,266.9345672999043,None,266.9345672999043,None,267.3043116000481,None,267.3043116000481,None,267.3043116000481,None,267.3043116000481,None,267.3043116000481,None,267.3043116000481,None,267.59858989994973,None,267.59858989994973,None,269.29629150009714,None,269.29629150009714,None,269.29629150009714,None,269.29629150009714,None,269.29629150009714,None,269.29629150009714,None,269.29629150009714,None,269.29629150009714,None,269.29629150009714,None,74,38,46,36,74,45,271.8146043999586,None,5.0,0.6717825001105666,271.8146043999586,None,271.8146043999586,None,271.8146043999586,None,271.8146043999586,None,None,None,272.50141880009323,None,,,,,,,115,f,22,2022_Dec_11_1526,RL,2021.2.3,59.943880516485606,
1,32,0,32,0,,,,,,,,,,,,,,,None,None,None,None,None,274.0555485000368,None,274.0555485000368,None,274.0555485000368,None,274.0555485000368,None,r,0.3058541000355035,274.0555485000368,None,274.0555485000368,None,274.40889300010167,None,274.40889300010167,None,274.40889300010167,None,274.40889300010167,None,274.40889300010167,None,274.40889300010167,None,274.70320770004764,None,274.70320770004764,None,276.21520989993587,None,276.21520989993587,None,276.21520989993587,None,276.21520989993587,None,276.21520989993587,None,276.21520989993587,None,276.21520989993587,None,276.21520989993587,None,276.21520989993587,None,56,36,45,44,56,71,278.7366516001057,None,3.0,1.089842400047928,278.7366516001057,None,278.7366516001057,None,278.7366516001057,None,278.7366516001057,None,None,None,279.84282719995826,None,,,,,,,115,f,22,2022_Dec_11_1526,RL,2021.2.3,59.943880516485606,
1,33,0,33,0,,,,,,,,,,,,,,,None,None,None,None,None,281.3601685001049,None,281.3601685001049,None,281.3601685001049,None,281.3601685001049,None,i,0.3220958998426795,281.3601685001049,None,281.3601685001049,None,281.73055139998905,None,281.73055139998905,None,281.73055139998905,None,281.73055139998905,None,281.73055139998905,None,281.73055139998905,None,282.0250281000044,None,282.0250281000044,None,283.11144779995084,None,283.11144779995084,None,283.11144779995084,None,283.11144779995084,None,283.11144779995084,None,283.11144779995084,None,283.11144779995084,None,283.11144779995084,None,283.11144779995084,None,59,42,52,44,52,68,285.6259900999721,None,4.0,0.48722280003130436,285.6259900999721,None,285.6259900999721,None,285.6259900999721,None,285.6259900999721,None,None,None,286.12733900011517,None,,,,,,,115,f,22,2022_Dec_11_1526,RL,2021.2.3,59.943880516485606,
1,34,0,34,0,,,,,,,,,,,,,,,None,None,None,None,None,287.68103360012174,None,287.68103360012174,None,287.68103360012174,None,287.68103360012174,None,j,0.36159959994256496,287.68103360012174,None,287.68103360012174,None,288.08356969989836,None,288.08356969989836,None,288.08356969989836,None,288.08356969989836,None,288.08356969989836,None,288.08356969989836,None,288.3794261000585,None,288.3794261000585,None,289.20979329990223,None,289.20979329990223,None,289.20979329990223,None,289.20979329990223,None,289.20979329990223,None,289.20979329990223,None,289.20979329990223,None,289.20979329990223,None,289.20979329990223,None,64,50,55,34,34,46,291.7298469999805,None,4.0,0.47010890021920204,291.7298469999805,None,291.7298469999805,None,291.7298469999805,None,291.7298469999805,None,None,None,292.2150296000764,None,,,,,,,115,f,22,2022_Dec_11_1526,RL,2021.2.3,59.943880516485606,
1,35,0,35,0,,,,,,,,,,,,,,,None,None,None,None,None,294.0363356999587,None,294.0363356999587,None,294.0363356999587,None,294.0363356999587,None,f,0.6261801000218838,294.0363356999587,None,294.0363356999587,None,294.704915399896,None,294.704915399896,None,294.704915399896,None,294.704915399896,None,294.704915399896,None,294.704915399896,None,295.0005524000153,296.40160649991594,295.0005524000153,296.40160649991594,296.4373228000477,None,296.4373228000477,None,296.4373228000477,None,296.4373228000477,None,296.4373228000477,None,296.4373228000477,None,296.4373228000477,None,296.4373228000477,None,296.4373228000477,None,59,46,68,30,46,66,298.95534370001405,None,2.0,0.6823446999769658,298.95534370001405,None,298.95534370001405,None,298.95534370001405,None,298.95534370001405,None,None,None,299.6533139999956,None,,,,,,,115,f,22,2022_Dec_11_1526,RL,2021.2.3,59.943880516485606,
1,36,0,36,0,,,,,,,,,,,,,,,None,None,None,None,None,301.20741820009425,None,301.20741820009425,None,301.20741820009425,None,301.20741820009425,None,r,0.45490420004352927,301.20741820009425,None,301.20741820009425,None,301.7107995999977,None,301.7107995999977,None,301.7107995999977,None,301.7107995999977,None,301.7107995999977,None,301.7107995999977,None,302.00542509998195,303.05605469993316,302.00542509998195,303.05605469993316,303.09017820004374,None,303.09017820004374,None,303.09017820004374,None,303.09017820004374,None,303.09017820004374,None,303.09017820004374,None,303.09017820004374,None,303.09017820004374,None,303.09017820004374,None,52,47,59,41,52,52,305.60486560012214,None,3.0,1.256091000046581,305.60486560012214,None,305.60486560012214,None,305.60486560012214,None,305.60486560012214,None,None,None,306.88577720010653,None,,,,,,,115,f,22,2022_Dec_11_1526,RL,2021.2.3,59.943880516485606,
1,37,0,37,0,,,,,,,,,,,,,,,None,None,None,None,None,308.4130700000096,None,308.4130700000096,None,308.4130700000096,None,308.4130700000096,None,i,1.4797758001368493,308.4130700000096,None,308.4130700000096,None,309.93376699998043,None,309.93376699998043,None,309.93376699998043,None,309.93376699998043,None,309.93376699998043,None,309.93376699998043,None,310.22775510000065,311.74538680003025,310.22775510000065,311.74538680003025,311.7752831999678,None,311.7752831999678,None,311.7752831999678,None,311.7752831999678,None,311.7752831999678,None,311.7752831999678,None,311.7752831999678,None,311.7752831999678,None,311.7752831999678,None,58,50,64,40,64,46,314.2952652000822,None,3.0,0.6226116998586804,314.2952652000822,None,314.2952652000822,None,314.2952652000822,None,314.2952652000822,None,None,None,314.93169449991547,None,,,,,,,115,f,22,2022_Dec_11_1526,RL,2021.2.3,59.943880516485606,
1,38,0,38,0,,,,,,,,,,,,,,,None,None,None,None,None,316.8850829000585,None,316.8850829000585,None,316.8850829000585,None,316.8850829000585,None,j,0.3979559999424964,316.8850829000585,None,316.8850829000585,None,317.3217605999671,None,317.3217605999671,None,317.3217605999671,None,317.3217605999671,None,317.3217605999671,None,317.3217605999671,None,317.6162618000526,None,317.6162618000526,None,318.7376713999547,None,318.7376713999547,None,318.7376713999547,None,318.7376713999547,None,318.7376713999547,None,318.7376713999547,None,318.7376713999547,None,318.7376713999547,None,318.7376713999547,None,56,37,66,42,42,58,321.2546008999925,None,3.0,1.1661891001276672,321.2546008999925,None,321.2546008999925,None,321.2546008999925,None,321.2546008999925,None,None,None,322.4360917999875,None,,,,,,,115,f,22,2022_Dec_11_1526,RL,2021.2.3,59.943880516485606,
1,39,0,39,0,,,,,,,,,,,,,,,None,None,None,None,None,324.35753499995917,None,324.35753499995917,None,324.35753499995917,None,324.35753499995917,None,r,0.26515370002016425,324.35753499995917,None,324.35753499995917,None,324.6744500999339,None,324.6744500999339,None,324.6744500999339,None,324.6744500999339,None,324.6744500999339,None,324.6744500999339,None,324.9713355000131,None,324.9713355000131,None,326.0706633999944,None,326.0706633999944,None,326.0706633999944,None,326.0706633999944,None,326.0706633999944,None,326.0706633999944,None,326.0706633999944,None,326.0706633999944,None,326.0706633999944,None,59,41,61,37,59,43,328.585916900076,None,3.0,0.554324499797076,328.585916900076,None,328.585916900076,None,328.585916900076,None,328.585916900076,None,None,None,329.1572920999024,None,,,,,,,115,f,22,2022_Dec_11_1526,RL,2021.2.3,59.943880516485606,
1,40,0,40,0,,,,,,,,,,,,,,,None,None,None,None,None,330.7781205000356,None,330.7781205000356,None,330.7781205000356,None,330.7781205000356,None,i,0.4546973998658359,330.7781205000356,None,330.7781205000356,None,331.28178830002435,None,331.28178830002435,None,331.28178830002435,None,331.28178830002435,None,331.28178830002435,None,331.28178830002435,None,331.5759415999055,None,331.5759415999055,None,332.82369270012714,None,332.82369270012714,None,332.82369270012714,None,332.82369270012714,None,332.82369270012714,None,332.82369270012714,None,332.82369270012714,None,332.82369270012714,None,332.82369270012714,None,50,42,64,42,64,57,335.35273750009947,None,4.0,0.5318952000234276,335.35273750009947,None,335.35273750009947,None,335.35273750009947,None,335.35273750009947,None,None,None,335.8954274998978,None,,,,,,,115,f,22,2022_Dec_11_1526,RL,2021.2.3,59.943880516485606,
1,41,0,41,0,,,,,,,,,,,,,,,None,None,None,None,None,337.4993432001211,None,337.4993432001211,None,337.4993432001211,None,337.4993432001211,None,f,0.37336379988119006,337.4993432001211,None,337.4993432001211,None,337.92043299996294,None,337.92043299996294,None,337.92043299996294,None,337.92043299996294,None,337.92043299996294,None,337.92043299996294,None,338.2139129000716,339.6315500000492,338.2139129000716,339.6315500000492,339.66198890004307,None,339.66198890004307,None,339.66198890004307,None,339.66198890004307,None,339.66198890004307,None,339.66198890004307,None,339.66198890004307,None,339.66198890004307,None,339.66198890004307,None,53,40,61,42,40,61,342.17894329992123,None,3.0,1.1223522999789566,342.17894329992123,None,342.17894329992123,None,342.17894329992123,None,342.17894329992123,None,None,None,343.31886220001616,None,,,,,,,115,f,22,2022_Dec_11_1526,RL,2021.2.3,59.943880516485606,
1,42,0,42,0,,,,,,,,,,,,,,,None,None,None,None,None,345.2701389999129,None,345.2701389999129,None,345.2701389999129,None,345.2701389999129,None,i,0.3226568999234587,345.2701389999129,None,345.2701389999129,None,345.6411361999344,None,345.6411361999344,None,345.6411361999344,None,345.6411361999344,None,345.6411361999344,None,345.6411361999344,None,345.9359780999366,None,345.9359780999366,None,347.73819110007025,None,347.73819110007025,None,347.73819110007025,None,347.73819110007025,None,347.73819110007025,None,347.73819110007025,None,347.73819110007025,None,347.73819110007025,None,347.73819110007025,None,56,44,56,35,56,64,350.2546262999531,None,3.0,0.5009529001545161,350.2546262999531,None,350.2546262999531,None,350.2546262999531,None,350.2546262999531,None,None,None,350.77194370003417,None,,,,,,,115,f,22,2022_Dec_11_1526,RL,2021.2.3,59.943880516485606,
1,43,0,43,0,,,,,,,,,,,,,,,None,None,None,None,None,352.75970049994066,None,352.75970049994066,None,352.75970049994066,None,352.75970049994066,None,r,0.2931093000806868,352.75970049994066,None,352.75970049994066,None,353.09933450003155,None,353.09933450003155,None,353.09933450003155,None,353.09933450003155,None,353.09933450003155,None,353.09933450003155,None,353.3911137999967,None,353.3911137999967,None,354.7930801000912,None,354.7930801000912,None,354.7930801000912,None,354.7930801000912,None,354.7930801000912,None,354.7930801000912,None,354.7930801000912,None,354.7930801000912,None,354.7930801000912,None,54,54,58,40,54,44,357.31406229990534,None,4.0,0.6170479001011699,357.31406229990534,None,357.31406229990534,None,357.31406229990534,None,357.31406229990534,None,None,None,357.950560499914,None,,,,,,,115,f,22,2022_Dec_11_1526,RL,2021.2.3,59.943880516485606,
1,44,0,44,0,,,,,,,,,,,,,,,None,None,None,None,None,359.93091219989583,None,359.93091219989583,None,359.93091219989583,None,359.93091219989583,None,f,0.4420332000590861,359.93091219989583,None,359.93091219989583,None,360.4177328001242,None,360.4177328001242,None,360.4177328001242,None,360.4177328001242,None,360.4177328001242,None,360.4177328001242,None,360.71282889996655,None,360.71282889996655,None,362.6601782999933,None,362.6601782999933,None,362.6601782999933,None,362.6601782999933,None,362.6601782999933,None,362.6601782999933,None,362.6601782999933,None,362.6601782999933,None,362.6601782999933,None,57,46,62,40,46,47,365.17916400008835,None,3.0,0.47025189991109073,365.17916400008835,None,365.17916400008835,None,365.17916400008835,None,365.17916400008835,None,None,None,365.67219620011747,None,,,,,,,115,f,22,2022_Dec_11_1526,RL,2021.2.3,59.943880516485606,
1,45,0,45,0,,,,,,,,,,,,,,,None,None,None,None,None,367.3040326999035,None,367.3040326999035,None,367.3040326999035,None,367.3040326999035,None,None,,367.3040326999035,None,367.3040326999035,None,None,None,None,None,None,None,None,None,None,None,None,None,None,None,None,None,None,None,None,None,None,None,None,None,None,None,None,None,None,None,None,None,None,None,57,40,60,35,0,**,None,None,None,None,None,None,None,None,None,None,None,None,368.86112429993227,None,373.37117379996926,None,,,,,,,115,f,22,2022_Dec_11_1526,RL,2021.2.3,59.943880516485606,
1,46,0,46,0,,,,,,,,,,,,,,,None,None,None,None,None,374.89230989990756,None,374.89230989990756,None,374.89230989990756,None,374.89230989990756,None,r,0.5705748999025673,374.89230989990756,None,374.89230989990756,None,375.5098099000752,None,375.5098099000752,None,375.5098099000752,None,375.5098099000752,None,375.5098099000752,None,375.5098099000752,None,375.80670590000227,None,375.80670590000227,None,376.66231489996426,None,376.66231489996426,None,376.66231489996426,None,376.66231489996426,None,376.66231489996426,None,376.66231489996426,None,376.66231489996426,None,376.66231489996426,None,376.66231489996426,None,62,30,68,37,62,56,379.17787889996544,None,6.0,0.7111333999782801,379.17787889996544,None,379.17787889996544,None,379.17787889996544,None,379.17787889996544,None,None,None,379.90877169999294,None,,,,,,,115,f,22,2022_Dec_11_1526,RL,2021.2.3,59.943880516485606,
1,47,0,47,0,,,,,,,,,,,,,,,None,None,None,None,None,381.8771995001007,None,381.8771995001007,None,381.8771995001007,None,381.8771995001007,None,r,1.1255409000441432,381.8771995001007,None,381.8771995001007,None,383.0447078999132,None,383.0447078999132,None,383.0447078999132,None,383.0447078999132,None,383.0447078999132,None,383.0447078999132,None,383.3450478001032,None,383.3450478001032,None,385.0744888999034,None,385.0744888999034,None,385.0744888999034,None,385.0744888999034,None,385.0744888999034,None,385.0744888999034,None,385.0744888999034,None,385.0744888999034,None,385.0744888999034,None,67,42,58,35,67,42,387.5827661000658,None,5.0,0.9283143000211567,387.5827661000658,None,387.5827661000658,None,387.5827661000658,None,387.5827661000658,None,None,None,388.5315400999971,None,,,,,,,115,f,22,2022_Dec_11_1526,RL,2021.2.3,59.943880516485606,
1,48,0,48,0,,,,,,,,,,,,,,,None,None,None,None,None,390.3162177999038,None,390.3162177999038,None,390.3162177999038,None,390.3162177999038,None,r,0.3362995001953095,390.3162177999038,None,390.3162177999038,None,390.7058471001219,None,390.7058471001219,None,390.7058471001219,None,390.7058471001219,None,390.7058471001219,None,390.7058471001219,None,390.9836333000567,391.9843613000121,390.9836333000567,391.9843613000121,392.0348769999109,None,392.0348769999109,None,392.0348769999109,None,392.0348769999109,None,392.0348769999109,None,392.0348769999109,None,392.0348769999109,None,392.0348769999109,None,392.0348769999109,None,68,38,64,32,68,57,394.5422179000452,None,5.0,0.9937699001748115,394.5422179000452,None,394.5422179000452,None,394.5422179000452,None,394.5422179000452,None,None,None,395.55292439996265,None,,,,,,,115,f,22,2022_Dec_11_1526,RL,2021.2.3,59.943880516485606,
1,49,0,49,0,,,,,,,,,,,,,,,None,None,None,None,None,397.44082350004464,None,397.44082350004464,None,397.44082350004464,None,397.44082350004464,None,r,0.3021185998804867,397.44082350004464,None,397.44082350004464,None,397.79401080007665,None,397.79401080007665,None,397.79401080007665,None,397.79401080007665,None,397.79401080007665,None,397.79401080007665,None,398.0887116000522,None,398.0887116000522,None,399.81999700004235,None,399.81999700004235,None,399.81999700004235,None,399.81999700004235,None,399.81999700004235,None,399.81999700004235,None,399.81999700004235,None,399.81999700004235,None,399.81999700004235,None,55,31,57,39,55,49,402.33640590007417,None,3.0,1.0045885001309216,402.33640590007417,None,402.33640590007417,None,402.33640590007417,None,402.33640590007417,None,None,None,403.3584060999565,None,,,,,,,115,f,22,2022_Dec_11_1526,RL,2021.2.3,59.943880516485606,
1,50,0,50,0,,,,,,,,,,,,,,,None,None,None,None,None,405.0636750999838,None,405.0636750999838,None,405.0636750999838,None,405.0636750999838,None,r,0.3495384999550879,405.0636750999838,None,405.0636750999838,None,405.46893589990214,None,405.46893589990214,None,405.46893589990214,None,405.46893589990214,None,405.46893589990214,None,405.46893589990214,None,405.76088430010714,406.6279450999573,405.76088430010714,406.6279450999573,406.66065700002946,None,406.66065700002946,None,406.66065700002946,None,406.66065700002946,None,406.66065700002946,None,406.66065700002946,None,406.66065700002946,None,406.66065700002946,None,406.66065700002946,None,71,33,56,34,71,55,409.17775320005603,None,4.0,0.5530461000744253,409.17775320005603,None,409.17775320005603,None,409.17775320005603,None,409.17775320005603,None,None,None,409.7463450001087,None,,,,,,,115,f,22,2022_Dec_11_1526,RL,2021.2.3,59.943880516485606,
1,51,0,51,0,,,,,,,,,,,,,,,None,None,None,None,None,411.5171660000924,None,411.5171660000924,None,411.5171660000924,None,411.5171660000924,None,r,1.1360668998677284,411.5171660000924,None,411.5171660000924,None,412.7065004000906,None,412.7065004000906,None,412.7065004000906,None,412.7065004000906,None,412.7065004000906,None,412.7065004000906,None,412.98251669993624,413.99960219999775,412.98251669993624,413.99960219999775,414.0500948000699,None,414.0500948000699,None,414.0500948000699,None,414.0500948000699,None,414.0500948000699,None,414.0500948000699,None,414.0500948000699,None,414.0500948000699,None,414.0500948000699,None,66,42,51,40,66,51,416.56465169996955,None,5.0,1.1880396001506597,416.56465169996955,None,416.56465169996955,None,416.56465169996955,None,416.56465169996955,None,None,None,417.76909100008197,None,,,,,,,115,f,22,2022_Dec_11_1526,RL,2021.2.3,59.943880516485606,
1,52,0,52,0,,,,,,,,,,,,,,,None,None,None,None,None,419.40676399995573,None,419.40676399995573,None,419.40676399995573,None,419.40676399995573,None,f,0.3765044000465423,419.40676399995573,None,419.40676399995573,None,419.8245045999065,None,419.8245045999065,None,419.8245045999065,None,419.8245045999065,None,419.8245045999065,None,419.8245045999065,None,420.12070710002445,None,420.12070710002445,None,421.267068099929,None,421.267068099929,None,421.267068099929,None,421.267068099929,None,421.267068099929,None,421.267068099929,None,421.267068099929,None,421.267068099929,None,421.267068099929,None,57,45,64,39,45,53,423.78573570004664,None,5.0,0.689872199902311,423.78573570004664,None,423.78573570004664,None,423.78573570004664,None,423.78573570004664,None,None,None,424.49997240002267,None,,,,,,,115,f,22,2022_Dec_11_1526,RL,2021.2.3,59.943880516485606,
1,53,0,53,0,,,,,,,,,,,,,,,None,None,None,None,None,426.12727850000374,None,426.12727850000374,None,426.12727850000374,None,426.12727850000374,None,r,0.3267589998431504,426.12727850000374,None,426.12727850000374,None,426.5014567999169,None,426.5014567999169,None,426.5014567999169,None,426.5014567999169,None,426.5014567999169,None,426.5014567999169,None,426.79196729999967,427.92602490005083,426.79196729999967,427.92602490005083,427.9568680000957,None,427.9568680000957,None,427.9568680000957,None,427.9568680000957,None,427.9568680000957,None,427.9568680000957,None,427.9568680000957,None,427.9568680000957,None,427.9568680000957,None,61,38,52,54,61,60,430.47239269991405,None,4.0,0.5402190000750124,430.47239269991405,None,430.47239269991405,None,430.47239269991405,None,430.47239269991405,None,None,None,431.0276353000663,None,,,,,,,115,f,22,2022_Dec_11_1526,RL,2021.2.3,59.943880516485606,
1,54,0,54,0,,,,,,,,,,,,,,,None,None,None,None,None,432.9493142000865,None,432.9493142000865,None,432.9493142000865,None,432.9493142000865,None,i,0.6638518001418561,432.9493142000865,None,432.9493142000865,None,433.6594630999025,None,433.6594630999025,None,433.6594630999025,None,433.6594630999025,None,433.6594630999025,None,433.6594630999025,None,433.9469379000366,None,433.9469379000366,None,434.7785745000001,None,434.7785745000001,None,434.7785745000001,None,434.7785745000001,None,434.7785745000001,None,434.7785745000001,None,434.7785745000001,None,434.7785745000001,None,434.7785745000001,None,61,49,60,37,60,59,437.30011130007915,None,5.0,0.619878500001505,437.30011130007915,None,437.30011130007915,None,437.30011130007915,None,437.30011130007915,None,None,None,437.9332043000031,None,,,,,,,115,f,22,2022_Dec_11_1526,RL,2021.2.3,59.943880516485606,
1,55,0,55,0,,,,,,,,,,,,,,,None,None,None,None,None,439.8870723999571,None,439.8870723999571,None,439.8870723999571,None,439.8870723999571,None,i,1.0464453001040965,439.8870723999571,None,439.8870723999571,None,440.9816473000683,None,440.9816473000683,None,440.9816473000683,None,440.9816473000683,None,440.9816473000683,None,440.9816473000683,None,441.26879690005444,None,441.26879690005444,None,442.91651770006865,None,442.91651770006865,None,442.91651770006865,None,442.91651770006865,None,442.91651770006865,None,442.91651770006865,None,442.91651770006865,None,442.91651770006865,None,442.91651770006865,None,56,44,62,47,62,55,445.4388306001201,None,4.0,1.3515465001109987,445.4388306001201,None,445.4388306001201,None,445.4388306001201,None,445.4388306001201,None,None,None,446.80533619993366,None,,,,,,,115,f,22,2022_Dec_11_1526,RL,2021.2.3,59.943880516485606,
1,56,0,56,0,,,,,,,,,,,,,,,None,None,None,None,None,448.76004029996693,None,448.76004029996693,None,448.76004029996693,None,448.76004029996693,None,r,0.3530846000649035,448.76004029996693,None,448.76004029996693,None,449.1642734000925,None,449.1642734000925,None,449.1642734000925,None,449.1642734000925,None,449.1642734000925,None,449.1642734000925,None,449.45767219993286,None,449.45767219993286,None,451.2728488999419,None,451.2728488999419,None,451.2728488999419,None,451.2728488999419,None,451.2728488999419,None,451.2728488999419,None,451.2728488999419,None,451.2728488999419,None,451.2728488999419,None,65,46,70,50,65,49,453.791570100002,None,5.0,0.5193467999342829,453.791570100002,None,453.791570100002,None,453.791570100002,None,453.791570100002,None,None,None,454.3272718999069,None,,,,,,,115,f,22,2022_Dec_11_1526,RL,2021.2.3,59.943880516485606,
1,57,0,57,0,,,,,,,,,,,,,,,None,None,None,None,None,456.2822753000073,None,456.2822753000073,None,456.2822753000073,None,456.2822753000073,None,r,0.29223069990985096,456.2822753000073,None,456.2822753000073,None,456.6166988001205,None,456.6166988001205,None,456.6166988001205,None,456.6166988001205,None,456.6166988001205,None,456.6166988001205,None,456.9129139999859,None,456.9129139999859,None,458.8166487000417,None,458.8166487000417,None,458.8166487000417,None,458.8166487000417,None,458.8166487000417,None,458.8166487000417,None,458.8166487000417,None,458.8166487000417,None,458.8166487000417,None,67,51,73,48,67,49,461.32993909996003,None,5.0,0.4211226999759674,461.32993909996003,None,461.32993909996003,None,461.32993909996003,None,461.32993909996003,None,None,None,461.76577130006626,None,,,,,,,115,f,22,2022_Dec_11_1526,RL,2021.2.3,59.943880516485606,
1,58,0,58,0,,,,,,,,,,,,,,,None,None,None,None,None,463.6038758000359,None,463.6038758000359,None,463.6038758000359,None,463.6038758000359,None,i,0.3207946000620723,463.6038758000359,None,463.6038758000359,None,463.97386229992844,None,463.97386229992844,None,463.97386229992844,None,463.97386229992844,None,463.97386229992844,None,463.97386229992844,None,464.2678900999017,465.4019631999545,464.2678900999017,465.4019631999545,465.4313431000337,None,465.4313431000337,None,465.4313431000337,None,465.4313431000337,None,465.4313431000337,None,465.4313431000337,None,465.4313431000337,None,465.4313431000337,None,465.4313431000337,None,66,47,67,53,67,50,467.9489158000797,None,5.0,0.5875462000258267,467.9489158000797,None,467.9489158000797,None,467.9489158000797,None,467.9489158000797,None,None,None,468.55358760012314,None,,,,,,,115,f,22,2022_Dec_11_1526,RL,2021.2.3,59.943880516485606,
1,59,0,59,0,,,,,,,,,,,,,,,None,None,None,None,None,470.15803980012424,None,470.15803980012424,None,470.15803980012424,None,470.15803980012424,None,i,0.2665920997969806,470.15803980012424,None,470.15803980012424,None,470.47630370012484,None,470.47630370012484,None,470.47630370012484,None,470.47630370012484,None,470.47630370012484,None,470.47630370012484,None,470.77235720003955,None,470.77235720003955,None,471.7889805000741,None,471.7889805000741,None,471.7889805000741,None,471.7889805000741,None,471.7889805000741,None,471.7889805000741,None,471.7889805000741,None,471.7889805000741,None,471.7889805000741,None,67,40,65,43,65,60,474.30485610011965,None,5.0,1.2214849998708814,474.30485610011965,None,474.30485610011965,None,474.30485610011965,None,474.30485610011965,None,None,None,475.5417530001141,None,,,,,,,115,f,22,2022_Dec_11_1526,RL,2021.2.3,59.943880516485606,
1,60,0,60,0,,,,,,,,,,,,,,,None,None,None,None,None,477.38041070010513,None,477.38041070010513,None,477.38041070010513,None,477.38041070010513,None,r,0.27441379986703396,477.38041070010513,None,477.38041070010513,None,477.70795660000294,None,477.70795660000294,None,477.70795660000294,None,477.70795660000294,None,477.70795660000294,None,477.70795660000294,None,477.9941287001129,479.2448180001229,477.9941287001129,479.2448180001229,479.2748914998956,None,479.2748914998956,None,479.2748914998956,None,479.2748914998956,None,479.2748914998956,None,479.2748914998956,None,479.2748914998956,None,479.2748914998956,None,479.2748914998956,None,76,51,74,56,76,55,481.8001947000157,None,6.0,0.7634171999525279,481.8001947000157,None,481.8001947000157,None,481.8001947000157,None,481.8001947000157,None,None,None,482.5812600001227,None,,,,,,,115,f,22,2022_Dec_11_1526,RL,2021.2.3,59.943880516485606,
1,61,0,61,0,,,,,,,,,,,,,,,None,None,None,None,None,484.1182520999573,None,484.1182520999573,None,484.1182520999573,None,484.1182520999573,None,r,0.3462002999149263,484.1182520999573,None,484.1182520999573,None,484.5026084999554,None,484.5026084999554,None,484.5026084999554,None,484.5026084999554,None,484.5026084999554,None,484.5026084999554,None,484.7989797000773,None,484.7989797000773,None,485.98015479999594,None,485.98015479999594,None,485.98015479999594,None,485.98015479999594,None,485.98015479999594,None,485.98015479999594,None,485.98015479999594,None,485.98015479999594,None,485.98015479999594,None,73,47,67,59,73,33,488.4978535999544,None,6.0,0.5808296999894083,488.4978535999544,None,488.4978535999544,None,488.4978535999544,None,488.4978535999544,None,None,None,489.0883551000152,None,,,,,,,115,f,22,2022_Dec_11_1526,RL,2021.2.3,59.943880516485606,
1,62,0,62,0,,,,,,,,,,,,,,,None,None,None,None,None,490.80536970007233,None,490.80536970007233,None,490.80536970007233,None,490.80536970007233,None,i,0.3493093999568373,490.80536970007233,None,490.80536970007233,None,491.20960339996964,None,491.20960339996964,None,491.20960339996964,None,491.20960339996964,None,491.20960339996964,None,491.20960339996964,None,491.4868775000796,493.27140399999917,491.4868775000796,493.27140399999917,493.323060200084,None,493.323060200084,None,493.323060200084,None,493.323060200084,None,493.323060200084,None,493.323060200084,None,493.323060200084,None,493.323060200084,None,493.323060200084,None,63,46,67,38,67,56,495.83994499989785,None,6.0,0.3854361998382956,495.83994499989785,None,495.83994499989785,None,495.83994499989785,None,495.83994499989785,None,None,None,496.2406278999988,None,,,,,,,115,f,22,2022_Dec_11_1526,RL,2021.2.3,59.943880516485606,
1,63,0,63,0,,,,,,,,,,,,,,,None,None,None,None,None,498.2109165000729,None,498.2109165000729,None,498.2109165000729,None,498.2109165000729,None,i,0.2638308999594301,498.2109165000729,None,498.2109165000729,None,498.5208129999228,None,498.5208129999228,None,498.5208129999228,None,498.5208129999228,None,498.5208129999228,None,498.5208129999228,None,498.80858900002204,500.5429513999261,498.80858900002204,500.5429513999261,500.5748097000178,None,500.5748097000178,None,500.5748097000178,None,500.5748097000178,None,500.5748097000178,None,500.5748097000178,None,500.5748097000178,None,500.5748097000178,None,500.5748097000178,None,64,56,67,48,67,53,503.09012999990955,None,6.0,0.47255800012499094,503.09012999990955,None,503.09012999990955,None,503.09012999990955,None,503.09012999990955,None,None,None,503.58588070003316,None,,,,,,,115,f,22,2022_Dec_11_1526,RL,2021.2.3,59.943880516485606,
1,64,0,64,0,,,,,,,,,,,,,,,None,None,None,None,None,505.1333965000231,None,505.1333965000231,None,505.1333965000231,None,505.1333965000231,None,r,0.7511487998999655,505.1333965000231,None,505.1333965000231,None,505.9423962000292,None,505.9423962000292,None,505.9423962000292,None,505.9423962000292,None,505.9423962000292,None,505.9423962000292,None,506.23028929997236,507.46442730003037,506.23028929997236,507.46442730003037,507.49974370002747,None,507.49974370002747,None,507.49974370002747,None,507.49974370002747,None,507.49974370002747,None,507.49974370002747,None,507.49974370002747,None,507.49974370002747,None,507.49974370002747,None,64,52,59,49,64,62,510.01491959998384,None,6.0,0.38723509991541505,510.01491959998384,None,510.01491959998384,None,510.01491959998384,None,510.01491959998384,None,None,None,510.4267333999742,None,,,,,,,115,f,22,2022_Dec_11_1526,RL,2021.2.3,59.943880516485606,
1,65,0,65,0,,,,,,,,,,,,,,,None,None,None,None,None,512.1707649000455,None,512.1707649000455,None,512.1707649000455,None,512.1707649000455,None,r,0.4538928000256419,512.1707649000455,None,512.1707649000455,None,512.6727865000721,None,512.6727865000721,None,512.6727865000721,None,512.6727865000721,None,512.6727865000721,None,512.6727865000721,None,512.9684597000014,514.5192772001028,512.9684597000014,514.5192772001028,514.5500839001033,None,514.5500839001033,None,514.5500839001033,None,514.5500839001033,None,514.5500839001033,None,514.5500839001033,None,514.5500839001033,None,514.5500839001033,None,514.5500839001033,None,65,48,62,49,65,48,517.0672585000284,None,6.0,0.4055880999658257,517.0672585000284,None,517.0672585000284,None,517.0672585000284,None,517.0672585000284,None,None,None,517.4898180000018,None,,,,,,,115,f,22,2022_Dec_11_1526,RL,2021.2.3,59.943880516485606,
1,66,0,66,0,,,,,,,,,,,,,,,None,None,None,None,None,519.0092953001149,None,519.0092953001149,None,519.0092953001149,None,519.0092953001149,None,i,0.27560149994678795,519.0092953001149,None,519.0092953001149,None,519.3287446999457,None,519.3287446999457,None,519.3287446999457,None,519.3287446999457,None,519.3287446999457,None,519.3287446999457,None,519.623153100023,None,519.623153100023,None,521.4881233000197,None,521.4881233000197,None,521.4881233000197,None,521.4881233000197,None,521.4881233000197,None,521.4881233000197,None,521.4881233000197,None,521.4881233000197,None,521.4881233000197,None,53,50,64,54,64,52,524.0133088000584,None,6.0,0.44933749991469085,524.0133088000584,None,524.0133088000584,None,524.0133088000584,None,524.0133088000584,None,None,None,524.4760934999213,None,,,,,,,115,f,22,2022_Dec_11_1526,RL,2021.2.3,59.943880516485606,
1,67,0,67,0,,,,,,,,,,,,,,,None,None,None,None,None,526.0120286000893,None,526.0120286000893,None,526.0120286000893,None,526.0120286000893,None,i,0.3927551999222487,526.0120286000893,None,526.0120286000893,None,526.4517083999235,None,526.4517083999235,None,526.4517083999235,None,526.4517083999235,None,526.4517083999235,None,526.4517083999235,None,526.7445521999616,528.0286725000478,526.7445521999616,528.0286725000478,528.0623532000463,None,528.0623532000463,None,528.0623532000463,None,528.0623532000463,None,528.0623532000463,None,528.0623532000463,None,528.0623532000463,None,528.0623532000463,None,528.0623532000463,None,52,56,68,50,68,48,530.5761013999581,None,7.0,0.4894416998140514,530.5761013999581,None,530.5761013999581,None,530.5761013999581,None,530.5761013999581,None,None,None,531.0802968000062,None,,,,,,,115,f,22,2022_Dec_11_1526,RL,2021.2.3,59.943880516485606,
1,68,0,68,0,,,,,,,,,,,,,,,None,None,None,None,None,532.6178659999277,None,532.6178659999277,None,532.6178659999277,None,532.6178659999277,None,r,0.6071030001621693,532.6178659999277,None,532.6178659999277,None,533.2749354001135,None,533.2749354001135,None,533.2749354001135,None,533.2749354001135,None,533.2749354001135,None,533.2749354001135,None,533.5660556000657,534.9169022999704,533.5660556000657,534.9169022999704,534.9481492000632,None,534.9481492000632,None,534.9481492000632,None,534.9481492000632,None,534.9481492000632,None,534.9481492000632,None,534.9481492000632,None,534.9481492000632,None,534.9481492000632,None,51,58,64,50,51,37,537.466594700003,None,7.0,1.8546243999153376,537.466594700003,None,537.466594700003,None,537.466594700003,None,537.466594700003,None,None,None,539.3361488000955,None,,,,,,,115,f,22,2022_Dec_11_1526,RL,2021.2.3,59.943880516485606,
1,69,0,69,0,,,,,,,,,,,,,,,None,None,None,None,None,540.9066190000158,None,540.9066190000158,None,540.9066190000158,None,540.9066190000158,None,r,0.33835029997862875,540.9066190000158,None,540.9066190000158,None,541.3011113000102,None,541.3011113000102,None,541.3011113000102,None,541.3011113000102,None,541.3011113000102,None,541.3011113000102,None,541.5881149000488,542.4387845001183,541.5881149000488,542.4387845001183,542.4690270998981,None,542.4690270998981,None,542.4690270998981,None,542.4690270998981,None,542.4690270998981,None,542.4690270998981,None,542.4690270998981,None,542.4690270998981,None,542.4690270998981,None,57,58,66,38,57,52,544.9865612001158,None,6.0,0.5718038999475539,544.9865612001158,None,544.9865612001158,None,544.9865612001158,None,544.9865612001158,None,None,None,545.578697900055,None,,,,,,,115,f,22,2022_Dec_11_1526,RL,2021.2.3,59.943880516485606,
1,70,0,70,0,,,,,,,,,,,,,,,None,None,None,None,None,547.4950981000438,None,547.4950981000438,None,547.4950981000438,None,547.4950981000438,None,i,0.3697996998671442,547.4950981000438,None,547.4950981000438,None,547.9128799000755,None,547.9128799000755,None,547.9128799000755,None,547.9128799000755,None,547.9128799000755,None,547.9128799000755,None,548.209422300104,None,548.209422300104,None,549.7409566999413,None,549.7409566999413,None,549.7409566999413,None,549.7409566999413,None,549.7409566999413,None,549.7409566999413,None,549.7409566999413,None,549.7409566999413,None,549.7409566999413,None,53,63,59,32,59,52,552.2664812000003,None,6.0,0.4990747000556439,552.2664812000003,None,552.2664812000003,None,552.2664812000003,None,552.2664812000003,None,None,None,552.7790552000515,None,,,,,,,115,f,22,2022_Dec_11_1526,RL,2021.2.3,59.943880516485606,
1,71,0,71,0,,,,,,,,,,,,,,,None,None,None,None,None,554.3333564000204,None,554.3333564000204,None,554.3333564000204,None,554.3333564000204,None,i,0.2713996998500079,554.3333564000204,None,554.3333564000204,None,554.658058400033,None,554.658058400033,None,554.658058400033,None,554.658058400033,None,554.658058400033,None,554.658058400033,None,554.9475251999684,556.4985183000099,554.9475251999684,556.4985183000099,556.5298107000999,None,556.5298107000999,None,556.5298107000999,None,556.5298107000999,None,556.5298107000999,None,556.5298107000999,None,556.5298107000999,None,556.5298107000999,None,556.5298107000999,None,57,50,53,41,53,45,559.047342899954,None,6.0,0.5211148001253605,559.047342899954,None,559.047342899954,None,559.047342899954,None,559.047342899954,None,None,None,559.5834800000302,None,,,,,,,115,f,22,2022_Dec_11_1526,RL,2021.2.3,59.943880516485606,
1,72,0,72,0,,,,,,,,,,,,,,,None,None,None,None,None,561.1202944000252,None,561.1202944000252,None,561.1202944000252,None,561.1202944000252,None,r,0.44473730004392564,561.1202944000252,None,561.1202944000252,None,561.6118070001248,None,561.6118070001248,None,561.6118070001248,None,561.6118070001248,None,561.6118070001248,None,561.6118070001248,None,561.902255800087,563.5366911001038,561.902255800087,563.5366911001038,563.5684346000198,None,563.5684346000198,None,563.5684346000198,None,563.5684346000198,None,563.5684346000198,None,563.5684346000198,None,563.5684346000198,None,563.5684346000198,None,563.5684346000198,None,46,68,57,42,46,43,566.0901114000008,None,6.0,0.3511006000917405,566.0901114000008,None,566.0901114000008,None,566.0901114000008,None,566.0901114000008,None,None,None,566.4553173999302,None,,,,,,,115,f,22,2022_Dec_11_1526,RL,2021.2.3,59.943880516485606,
1,73,0,73,0,,,,,,,,,,,,,,,None,None,None,None,None,568.0932104000822,None,568.0932104000822,None,568.0932104000822,None,568.0932104000822,None,r,0.43214059993624687,568.0932104000822,None,568.0932104000822,None,568.5823876000941,None,568.5823876000941,None,568.5823876000941,None,568.5823876000941,None,568.5823876000941,None,568.5823876000941,None,568.8737530999351,570.6581900999881,568.8737530999351,570.6581900999881,570.6902886000462,None,570.6902886000462,None,570.6902886000462,None,570.6902886000462,None,570.6902886000462,None,570.6902886000462,None,570.6902886000462,None,570.6902886000462,None,570.6902886000462,None,50,59,66,41,50,38,573.2064269999973,None,6.0,0.5547632002271712,573.2064269999973,None,573.2064269999973,None,573.2064269999973,None,573.2064269999973,None,None,None,573.7765899000224,None,,,,,,,115,f,22,2022_Dec_11_1526,RL,2021.2.3,59.943880516485606,
1,74,0,74,0,,,,,,,,,,,,,,,None,None,None,None,None,575.664512099931,None,575.664512099931,None,575.664512099931,None,575.664512099931,None,i,0.29026390006765723,575.664512099931,None,575.664512099931,None,576.0072222000454,None,576.0072222000454,None,576.0072222000454,None,576.0072222000454,None,576.0072222000454,None,576.0072222000454,None,576.2956423000433,577.4962985001039,576.2956423000433,577.4962985001039,577.5272701999638,None,577.5272701999638,None,577.5272701999638,None,577.5272701999638,None,577.5272701999638,None,577.5272701999638,None,577.5272701999638,None,577.5272701999638,None,577.5272701999638,None,47,61,64,48,64,54,580.0481074999552,None,6.0,0.48510189983062446,580.0481074999552,None,580.0481074999552,None,580.0481074999552,None,580.0481074999552,None,None,None,580.5531025000382,None,,,,,,,115,f,22,2022_Dec_11_1526,RL,2021.2.3,59.943880516485606,
1,75,0,75,0,,,,,,,,,,,,,,,582.1661495999433,None,q,582.1661495999433,None,606.1188046000898,None,606.1188046000898,None,606.1188046000898,None,606.1188046000898,None,r,1.086335300002247,606.1188046000898,None,606.1188046000898,None,607.2598347999156,None,607.2598347999156,None,607.2598347999156,None,607.2598347999156,None,607.2598347999156,None,607.2598347999156,None,607.5505888001062,None,607.5505888001062,None,608.7655448999722,None,608.7655448999722,None,608.7655448999722,None,608.7655448999722,None,608.7655448999722,None,608.7655448999722,None,608.7655448999722,None,608.7655448999722,None,608.7655448999722,None,48,54,75,51,48,37,611.2821553999092,None,6.0,0.5381657998077571,611.2821553999092,None,611.2821553999092,None,611.2821553999092,None,611.2821553999092,None,None,None,611.8363344001118,None,23.929231699788943,,,,,,115,f,22,2022_Dec_11_1526,RL,2021.2.3,59.943880516485606,
1,76,0,76,0,,,,,,,,,,,,,,,None,None,None,None,None,613.7745705000125,None,613.7745705000125,None,613.7745705000125,None,613.7745705000125,None,r,0.310903700068593,613.7745705000125,None,613.7745705000125,None,614.1300069999415,None,614.1300069999415,None,614.1300069999415,None,614.1300069999415,None,614.1300069999415,None,614.1300069999415,None,614.4053478999995,615.9397295999806,614.4053478999995,615.9397295999806,615.9876598999836,None,615.9876598999836,None,615.9876598999836,None,615.9876598999836,None,615.9876598999836,None,615.9876598999836,None,615.9876598999836,None,615.9876598999836,None,615.9876598999836,None,44,62,69,52,44,46,618.50303849997,None,6.0,0.5212823001202196,618.50303849997,None,618.50303849997,None,618.50303849997,None,618.50303849997,None,None,None,619.0416806999128,None,,,,,,,115,f,22,2022_Dec_11_1526,RL,2021.2.3,59.943880516485606,
1,77,0,77,0,,,,,,,,,,,,,,,None,None,None,None,None,620.6788294001017,None,620.6788294001017,None,620.6788294001017,None,620.6788294001017,None,f,0.30742269987240434,620.6788294001017,None,620.6788294001017,None,621.0338618999813,None,621.0338618999813,None,621.0338618999813,None,621.0338618999813,None,621.0338618999813,None,621.0338618999813,None,621.3102740999311,622.5942705001216,621.3102740999311,622.5942705001216,622.6241594001185,None,622.6241594001185,None,622.6241594001185,None,622.6241594001185,None,622.6241594001185,None,622.6241594001185,None,622.6241594001185,None,622.6241594001185,None,622.6241594001185,None,49,61,67,54,61,42,625.1465447000228,None,5.0,0.8499514998402447,625.1465447000228,None,625.1465447000228,None,625.1465447000228,None,625.1465447000228,None,None,None,626.0209321000148,None,,,,,,,115,f,22,2022_Dec_11_1526,RL,2021.2.3,59.943880516485606,
1,78,0,78,0,,,,,,,,,,,,,,,None,None,None,None,None,627.8005753001198,None,627.8005753001198,None,627.8005753001198,None,627.8005753001198,None,j,0.3357239000033587,627.8005753001198,None,627.8005753001198,None,628.1865904999431,None,628.1865904999431,None,628.1865904999431,None,628.1865904999431,None,628.1865904999431,None,628.1865904999431,None,628.4817306001205,None,628.4817306001205,None,630.2927013000008,None,630.2927013000008,None,630.2927013000008,None,630.2927013000008,None,630.2927013000008,None,630.2927013000008,None,630.2927013000008,None,630.2927013000008,None,630.2927013000008,None,48,54,66,49,49,43,632.8185364000965,None,6.0,0.5181655997876078,632.8185364000965,None,632.8185364000965,None,632.8185364000965,None,632.8185364000965,None,None,None,633.3580887001008,None,,,,,,,115,f,22,2022_Dec_11_1526,RL,2021.2.3,59.943880516485606,
1,79,0,79,0,,,,,,,,,,,,,,,None,None,None,None,None,635.1228887999896,None,635.1228887999896,None,635.1228887999896,None,635.1228887999896,None,j,0.43361209984868765,635.1228887999896,None,635.1228887999896,None,635.6145041999407,None,635.6145041999407,None,635.6145041999407,None,635.6145041999407,None,635.6145041999407,None,635.6145041999407,None,635.9036958999932,637.471214500023,635.9036958999932,637.471214500023,637.5028385000769,None,637.5028385000769,None,637.5028385000769,None,637.5028385000769,None,637.5028385000769,None,637.5028385000769,None,637.5028385000769,None,637.5028385000769,None,637.5028385000769,None,52,60,65,46,46,47,640.0177933999803,None,5.0,0.7236051999498159,640.0177933999803,None,640.0177933999803,None,640.0177933999803,None,640.0177933999803,None,None,None,640.7566565000452,None,,,,,,,115,f,22,2022_Dec_11_1526,RL,2021.2.3,59.943880516485606,
1,80,0,80,0,,,,,,,,,,,,,,,None,None,None,None,None,642.3430105999578,None,642.3430105999578,None,642.3430105999578,None,642.3430105999578,None,i,0.2634999000001699,642.3430105999578,None,642.3430105999578,None,642.6455854000524,None,642.6455854000524,None,642.6455854000524,None,642.6455854000524,None,642.6455854000524,None,642.6455854000524,None,642.9418214000762,None,642.9418214000762,None,643.8050319999456,None,643.8050319999456,None,643.8050319999456,None,643.8050319999456,None,643.8050319999456,None,643.8050319999456,None,643.8050319999456,None,643.8050319999456,None,643.8050319999456,None,46,61,65,55,65,31,646.3239996000193,None,5.0,0.45522819994948804,646.3239996000193,None,646.3239996000193,None,646.3239996000193,None,646.3239996000193,None,None,None,646.7993795000948,None,,,,,,,115,f,22,2022_Dec_11_1526,RL,2021.2.3,59.943880516485606,
1,81,0,81,0,,,,,,,,,,,,,,,None,None,None,None,None,648.4649128001183,None,648.4649128001183,None,648.4649128001183,None,648.4649128001183,None,i,0.37154159997589886,648.4649128001183,None,648.4649128001183,None,648.8896504999138,None,648.8896504999138,None,648.8896504999138,None,648.8896504999138,None,648.8896504999138,None,648.8896504999138,None,649.1794755000155,None,649.1794755000155,None,650.1769274000544,None,650.1769274000544,None,650.1769274000544,None,650.1769274000544,None,650.1769274000544,None,650.1769274000544,None,650.1769274000544,None,650.1769274000544,None,650.1769274000544,None,41,64,68,53,68,49,652.6959567000158,None,5.0,0.38662669993937016,652.6959567000158,None,652.6959567000158,None,652.6959567000158,None,652.6959567000158,None,None,None,653.09868429997,None,,,,,,,115,f,22,2022_Dec_11_1526,RL,2021.2.3,59.943880516485606,
1,82,0,82,0,,,,,,,,,,,,,,,None,None,None,None,None,654.7363867000677,None,654.7363867000677,None,654.7363867000677,None,654.7363867000677,None,f,0.36036509997211397,654.7363867000677,None,654.7363867000677,None,655.136501400033,None,655.136501400033,None,655.136501400033,None,655.136501400033,None,655.136501400033,None,655.136501400033,None,655.43391110003,None,655.43391110003,None,657.1704728999175,None,657.1704728999175,None,657.1704728999175,None,657.1704728999175,None,657.1704728999175,None,657.1704728999175,None,657.1704728999175,None,657.1704728999175,None,657.1704728999175,None,47,53,73,57,53,49,659.6929745001253,None,6.0,0.41559020010754466,659.6929745001253,None,659.6929745001253,None,659.6929745001253,None,659.6929745001253,None,None,None,660.1221471999306,None,,,,,,,115,f,22,2022_Dec_11_1526,RL,2021.2.3,59.943880516485606,
1,83,0,83,0,,,,,,,,,,,,,,,None,None,None,None,None,661.8072716000024,None,661.8072716000024,None,661.8072716000024,None,661.8072716000024,None,i,0.27950330008752644,661.8072716000024,None,661.8072716000024,None,662.1285284000915,None,662.1285284000915,None,662.1285284000915,None,662.1285284000915,None,662.1285284000915,None,662.1285284000915,None,662.4053988999221,663.7562041000929,662.4053988999221,663.7562041000929,663.7878767000511,None,663.7878767000511,None,663.7878767000511,None,663.7878767000511,None,663.7878767000511,None,663.7878767000511,None,663.7878767000511,None,663.7878767000511,None,663.7878767000511,None,46,57,70,54,70,49,666.3093618999701,None,6.0,0.4677997000981122,666.3093618999701,None,666.3093618999701,None,666.3093618999701,None,666.3093618999701,None,None,None,666.7923767999746,None,,,,,,,115,f,22,2022_Dec_11_1526,RL,2021.2.3,59.943880516485606,
1,84,0,84,0,,,,,,,,,,,,,,,None,None,None,None,None,668.5951980999671,None,668.5951980999671,None,668.5951980999671,None,668.5951980999671,None,i,0.3314843999687582,668.5951980999671,None,668.5951980999671,None,668.9698769999668,None,668.9698769999668,None,668.9698769999668,None,668.9698769999668,None,668.9698769999668,None,668.9698769999668,None,669.260205599945,670.4274637999479,669.260205599945,670.4274637999479,670.4581196999643,None,670.4581196999643,None,670.4581196999643,None,670.4581196999643,None,670.4581196999643,None,670.4581196999643,None,670.4581196999643,None,670.4581196999643,None,670.4581196999643,None,55,56,70,61,70,38,672.974696499994,None,5.0,1.0401791001204401,672.974696499994,None,672.974696499994,None,672.974696499994,None,672.974696499994,None,None,None,674.0304237999953,None,,,,,,,115,f,22,2022_Dec_11_1526,RL,2021.2.3,59.943880516485606,
1,85,0,85,0,,,,,,,,,,,,,,,None,None,None,None,None,675.9508422000799,None,675.9508422000799,None,675.9508422000799,None,675.9508422000799,None,f,0.5462106999475509,675.9508422000799,None,675.9508422000799,None,676.54291440011,None,676.54291440011,None,676.54291440011,None,676.54291440011,None,676.54291440011,None,676.54291440011,None,676.8319773999974,677.7657602999825,676.8319773999974,677.7657602999825,677.7977756001055,None,677.7977756001055,None,677.7977756001055,None,677.7977756001055,None,677.7977756001055,None,677.7977756001055,None,677.7977756001055,None,677.7977756001055,None,677.7977756001055,None,53,55,65,63,55,43,680.306268400047,None,6.0,0.42322449991479516,680.306268400047,None,680.306268400047,None,680.306268400047,None,680.306268400047,None,None,None,680.7506800000556,None,,,,,,,115,f,22,2022_Dec_11_1526,RL,2021.2.3,59.943880516485606,
1,86,0,86,0,,,,,,,,,,,,,,,None,None,None,None,None,682.4520519000944,None,682.4520519000944,None,682.4520519000944,None,682.4520519000944,None,i,0.503678800072521,682.4520519000944,None,682.4520519000944,None,682.9930744001176,None,682.9930744001176,None,682.9930744001176,None,682.9930744001176,None,682.9930744001176,None,682.9930744001176,None,683.2862666000146,685.1039044999052,683.2862666000146,685.1039044999052,685.121990100015,None,685.121990100015,None,685.121990100015,None,685.121990100015,None,685.121990100015,None,685.121990100015,None,685.121990100015,None,685.121990100015,None,685.121990100015,None,47,55,74,52,74,50,687.6417565001175,None,6.0,0.3642428000457585,687.6417565001175,None,687.6417565001175,None,687.6417565001175,None,687.6417565001175,None,None,None,688.0280571999028,None,,,,,,,115,f,22,2022_Dec_11_1526,RL,2021.2.3,59.943880516485606,
1,87,0,87,0,,,,,,,,,,,,,,,None,None,None,None,None,689.5604805001058,None,689.5604805001058,None,689.5604805001058,None,689.5604805001058,None,i,0.39661299996078014,689.5604805001058,None,689.5604805001058,None,689.9957878000569,None,689.9957878000569,None,689.9957878000569,None,689.9957878000569,None,689.9957878000569,None,689.9957878000569,None,690.2912516999058,691.8088251999579,690.2912516999058,691.8088251999579,691.8406179000158,None,691.8406179000158,None,691.8406179000158,None,691.8406179000158,None,691.8406179000158,None,691.8406179000158,None,691.8406179000158,None,691.8406179000158,None,691.8406179000158,None,38,51,75,58,75,46,694.3637759999838,None,6.0,0.4453489000443369,694.3637759999838,None,694.3637759999838,None,694.3637759999838,None,694.3637759999838,None,None,None,694.8270539001096,None,,,,,,,115,f,22,2022_Dec_11_1526,RL,2021.2.3,59.943880516485606,
1,88,0,88,0,,,,,,,,,,,,,,,None,None,None,None,None,696.5313997999765,None,696.5313997999765,None,696.5313997999765,None,696.5313997999765,None,f,0.8755012000910938,696.5313997999765,None,696.5313997999765,None,697.4530829000287,None,697.4530829000287,None,697.4530829000287,None,697.4530829000287,None,697.4530829000287,None,697.4530829000287,None,697.7298351000063,699.4308875999413,697.7298351000063,699.4308875999413,699.4629915000405,None,699.4629915000405,None,699.4629915000405,None,699.4629915000405,None,699.4629915000405,None,699.4629915000405,None,699.4629915000405,None,699.4629915000405,None,699.4629915000405,None,37,62,75,65,62,43,701.9816278999206,None,6.0,0.11871950002387166,701.9816278999206,None,701.9816278999206,None,701.9816278999206,None,701.9816278999206,None,None,None,702.1226691999473,None,,,,,,,115,f,22,2022_Dec_11_1526,RL,2021.2.3,59.943880516485606,
1,89,0,89,0,,,,,,,,,,,,,,,None,None,None,None,None,704.1034703999758,None,704.1034703999758,None,704.1034703999758,None,704.1034703999758,None,i,0.28334930003620684,704.1034703999758,None,704.1034703999758,None,704.4395703000482,None,704.4395703000482,None,704.4395703000482,None,704.4395703000482,None,704.4395703000482,None,704.4395703000482,None,704.7346570999362,None,704.7346570999362,None,706.4190837000497,None,706.4190837000497,None,706.4190837000497,None,706.4190837000497,None,706.4190837000497,None,706.4190837000497,None,706.4190837000497,None,706.4190837000497,None,706.4190837000497,None,37,58,80,64,80,44,708.9440321000293,None,6.0,0.3499040000606328,708.9440321000293,None,708.9440321000293,None,708.9440321000293,None,708.9440321000293,None,None,None,709.3077201999258,None,,,,,,,115,f,22,2022_Dec_11_1526,RL,2021.2.3,59.943880516485606,
1,90,0,90,0,,,,,,,,,,,,,,,None,None,None,None,None,711.2750947999302,None,711.2750947999302,None,711.2750947999302,None,711.2750947999302,None,f,0.23199109989218414,711.2750947999302,None,711.2750947999302,None,711.542726200074,None,711.542726200074,None,711.542726200074,None,711.542726200074,None,711.542726200074,None,711.542726200074,None,711.8396417999174,None,711.8396417999174,None,713.3777509999927,None,713.3777509999927,None,713.3777509999927,None,713.3777509999927,None,713.3777509999927,None,713.3777509999927,None,713.3777509999927,None,713.3777509999927,None,713.3777509999927,None,37,48,70,55,48,41,715.8936596000567,None,6.0,0.3684487999416888,715.8936596000567,None,715.8936596000567,None,715.8936596000567,None,715.8936596000567,None,None,None,716.2757500999141,None,,,,,,,115,f,22,2022_Dec_11_1526,RL,2021.2.3,59.943880516485606,
1,91,0,91,0,,,,,,,,,,,,,,,None,None,None,None,None,717.8967486999463,None,717.8967486999463,None,717.8967486999463,None,717.8967486999463,None,i,0.32010910008102655,717.8967486999463,None,717.8967486999463,None,718.2707628000062,None,718.2707628000062,None,718.2707628000062,None,718.2707628000062,None,718.2707628000062,None,718.2707628000062,None,718.5613063001074,719.8115785000846,718.5613063001074,719.8115785000846,719.846808000002,None,719.846808000002,None,719.846808000002,None,719.846808000002,None,719.846808000002,None,719.846808000002,None,719.846808000002,None,719.846808000002,None,719.846808000002,None,39,44,77,57,77,34,722.3665561000817,None,6.0,0.3820780999958515,722.3665561000817,None,722.3665561000817,None,722.3665561000817,None,722.3665561000817,None,None,None,722.763405600097,None,,,,,,,115,f,22,2022_Dec_11_1526,RL,2021.2.3,59.943880516485606,
1,92,0,92,0,,,,,,,,,,,,,,,None,None,None,None,None,724.3177994000725,None,724.3177994000725,None,724.3177994000725,None,724.3177994000725,None,f,0.24951850017532706,724.3177994000725,None,724.3177994000725,None,724.6208554999903,None,724.6208554999903,None,724.6208554999903,None,724.6208554999903,None,724.6208554999903,None,724.6208554999903,None,724.9152313000523,None,724.9152313000523,None,726.4525943000335,None,726.4525943000335,None,726.4525943000335,None,726.4525943000335,None,726.4525943000335,None,726.4525943000335,None,726.4525943000335,None,726.4525943000335,None,726.4525943000335,None,31,53,71,64,53,45,728.96420580009,None,6.0,0.3720000998582691,728.96420580009,None,728.96420580009,None,728.96420580009,None,728.96420580009,None,None,None,729.3611512000207,None,,,,,,,115,f,22,2022_Dec_11_1526,RL,2021.2.3,59.943880516485606,
1,93,0,93,0,,,,,,,,,,,,,,,None,None,None,None,None,731.3212091000751,None,731.3212091000751,None,731.3212091000751,None,731.3212091000751,None,i,0.3058165998663753,731.3212091000751,None,731.3212091000751,None,731.6763448999263,None,731.6763448999263,None,731.6763448999263,None,731.6763448999263,None,731.6763448999263,None,731.6763448999263,None,731.9702246999368,None,731.9702246999368,None,733.4344349999446,None,733.4344349999446,None,733.4344349999446,None,733.4344349999446,None,733.4344349999446,None,733.4344349999446,None,733.4344349999446,None,733.4344349999446,None,733.4344349999446,None,23,51,69,61,69,41,735.9572221001144,None,6.0,0.4996112999506295,735.9572221001144,None,735.9572221001144,None,735.9572221001144,None,735.9572221001144,None,None,None,736.4738050999586,None,,,,,,,115,f,22,2022_Dec_11_1526,RL,2021.2.3,59.943880516485606,
1,94,0,94,0,,,,,,,,,,,,,,,None,None,None,None,None,738.3776455000043,None,738.3776455000043,None,738.3776455000043,None,738.3776455000043,None,f,0.2896616000216454,738.3776455000043,None,738.3776455000043,None,738.713922200026,None,738.713922200026,None,738.713922200026,None,738.713922200026,None,738.713922200026,None,738.713922200026,None,739.0084422000218,None,739.0084422000218,None,740.5892447999213,None,740.5892447999213,None,740.5892447999213,None,740.5892447999213,None,740.5892447999213,None,740.5892447999213,None,740.5892447999213,None,740.5892447999213,None,740.5892447999213,None,29,58,68,63,58,45,743.1074492000043,None,6.0,0.5036098000127822,743.1074492000043,None,743.1074492000043,None,743.1074492000043,None,743.1074492000043,None,None,None,743.6277048001066,None,,,,,,,115,f,22,2022_Dec_11_1526,RL,2021.2.3,59.943880516485606,
1,95,0,95,0,,,,,,,,,,,,,,,None,None,None,None,None,745.6158656000625,None,745.6158656000625,None,745.6158656000625,None,745.6158656000625,None,i,0.2814360000193119,745.6158656000625,None,745.6158656000625,None,745.9340037999209,None,745.9340037999209,None,745.9340037999209,None,745.9340037999209,None,745.9340037999209,None,745.9340037999209,None,746.2300903999712,None,746.2300903999712,None,747.5455096999649,None,747.5455096999649,None,747.5455096999649,None,747.5455096999649,None,747.5455096999649,None,747.5455096999649,None,747.5455096999649,None,747.5455096999649,None,747.5455096999649,None,20,63,65,50,65,44,750.0665470999666,None,6.0,1.435673400061205,750.0665470999666,None,750.0665470999666,None,750.0665470999666,None,750.0665470999666,None,None,None,751.5262452000752,None,,,,,,,115,f,22,2022_Dec_11_1526,RL,2021.2.3,59.943880516485606,
1,96,0,96,0,,,,,,,,,,,,,,,None,None,None,None,None,753.4383718001191,None,753.4383718001191,None,753.4383718001191,None,753.4383718001191,None,f,0.5888661998324096,753.4383718001191,None,753.4383718001191,None,754.0717110999394,None,754.0717110999394,None,754.0717110999394,None,754.0717110999394,None,754.0717110999394,None,754.0717110999394,None,754.3690957999788,None,754.3690957999788,None,755.3834098000079,None,755.3834098000079,None,755.3834098000079,None,755.3834098000079,None,755.3834098000079,None,755.3834098000079,None,755.3834098000079,None,755.3834098000079,None,755.3834098000079,None,28,61,74,61,61,42,757.9021846000105,None,6.0,0.5384817000012845,757.9021846000105,None,757.9021846000105,None,757.9021846000105,None,757.9021846000105,None,None,None,758.4549306998961,None,,,,,,,115,f,22,2022_Dec_11_1526,RL,2021.2.3,59.943880516485606,
1,97,0,97,0,,,,,,,,,,,,,,,None,None,None,None,None,760.2097583999857,None,760.2097583999857,None,760.2097583999857,None,760.2097583999857,None,i,0.2672111000865698,760.2097583999857,None,760.2097583999857,None,760.5307543000672,None,760.5307543000672,None,760.5307543000672,None,760.5307543000672,None,760.5307543000672,None,760.5307543000672,None,760.8236140999943,762.4413290999364,760.8236140999943,762.4413290999364,762.4715837000404,None,762.4715837000404,None,762.4715837000404,None,762.4715837000404,None,762.4715837000404,None,762.4715837000404,None,762.4715837000404,None,762.4715837000404,None,762.4715837000404,None,26,47,75,65,75,50,764.9951748999301,None,6.0,0.7164422001224011,764.9951748999301,None,764.9951748999301,None,764.9951748999301,None,764.9951748999301,None,None,None,765.7264501000755,None,,,,,,,115,f,22,2022_Dec_11_1526,RL,2021.2.3,59.943880516485606,
1,98,0,98,0,,,,,,,,,,,,,,,None,None,None,None,None,767.680568800075,None,767.680568800075,None,767.680568800075,None,767.680568800075,None,i,0.30676890001632273,767.680568800075,None,767.680568800075,None,768.0339727001265,None,768.0339727001265,None,768.0339727001265,None,768.0339727001265,None,768.0339727001265,None,768.0339727001265,None,768.328699799953,769.4293213000055,768.328699799953,769.4293213000055,769.4679525000975,None,769.4679525000975,None,769.4679525000975,None,769.4679525000975,None,769.4679525000975,None,769.4679525000975,None,769.4679525000975,None,769.4679525000975,None,769.4679525000975,None,30,54,60,66,60,45,771.9774871999398,None,7.0,0.4390920998994261,771.9774871999398,None,771.9774871999398,None,771.9774871999398,None,771.9774871999398,None,None,None,772.4405263001099,None,,,,,,,115,f,22,2022_Dec_11_1526,RL,2021.2.3,59.943880516485606,
1,99,0,99,0,,,,,,,,,,,,,,,None,None,None,None,None,774.369289800059,None,774.369289800059,None,774.369289800059,None,774.369289800059,None,f,0.2879304999951273,774.369289800059,None,774.369289800059,None,774.7036023999099,None,774.7036023999099,None,774.7036023999099,None,774.7036023999099,None,774.7036023999099,None,774.7036023999099,None,775.0000760999974,None,775.0000760999974,None,776.9532153999899,None,776.9532153999899,None,776.9532153999899,None,776.9532153999899,None,776.9532153999899,None,776.9532153999899,None,776.9532153999899,None,776.9532153999899,None,776.9532153999899,None,22,55,64,60,55,34,779.4686165000312,None,7.0,0.41789450007490814,779.4686165000312,None,779.4686165000312,None,779.4686165000312,None,779.4686165000312,None,None,None,779.9029355000239,None,,,,,,,115,f,22,2022_Dec_11_1526,RL,2021.2.3,59.943880516485606,
1,100,0,100,0,,,,,,,,,,,,,,,None,None,None,None,None,781.4907752000727,None,781.4907752000727,None,781.4907752000727,None,781.4907752000727,None,i,0.38647669996134937,781.4907752000727,None,781.4907752000727,None,781.9253001001198,None,781.9253001001198,None,781.9253001001198,None,781.9253001001198,None,781.9253001001198,None,781.9253001001198,None,782.2217749999836,None,782.2217749999836,None,783.7213316000998,None,783.7213316000998,None,783.7213316000998,None,783.7213316000998,None,783.7213316000998,None,783.7213316000998,None,783.7213316000998,None,783.7213316000998,None,783.7213316000998,None,33,54,68,69,68,50,786.2330982000567,None,7.0,0.658290000166744,786.2330982000567,None,786.2330982000567,None,786.2330982000567,None,786.2330982000567,None,None,None,786.9077465001028,None,,,,,,,115,f,22,2022_Dec_11_1526,RL,2021.2.3,59.943880516485606,
1,101,0,101,0,,,,,,,,,,,,,,,None,None,None,None,None,788.6617497999687,None,788.6617497999687,None,788.6617497999687,None,788.6617497999687,None,i,0.8356933000031859,788.6617497999687,None,788.6617497999687,None,789.5503815000411,None,789.5503815000411,None,789.5503815000411,None,789.5503815000411,None,789.5503815000411,None,789.5503815000411,None,789.827006699983,791.5947098000906,789.827006699983,791.5947098000906,791.6471861000173,None,791.6471861000173,None,791.6471861000173,None,791.6471861000173,None,791.6471861000173,None,791.6471861000173,None,791.6471861000173,None,791.6471861000173,None,791.6471861000173,None,27,58,67,66,67,38,794.1644057000522,None,7.0,0.41764999995939434,794.1644057000522,None,794.1644057000522,None,794.1644057000522,None,794.1644057000522,None,None,None,794.602554900106,None,,,,,,,115,f,22,2022_Dec_11_1526,RL,2021.2.3,59.943880516485606,
1,102,0,102,0,,,,,,,,,,,,,,,None,None,None,None,None,796.1847411999479,None,796.1847411999479,None,796.1847411999479,None,796.1847411999479,None,f,0.34371410007588565,796.1847411999479,None,796.1847411999479,None,796.5701166999061,None,796.5701166999061,None,796.5701166999061,None,796.5701166999061,None,796.5701166999061,None,796.5701166999061,None,796.8651103999,797.88247089996,796.8651103999,797.88247089996,797.9143781999592,None,797.9143781999592,None,797.9143781999592,None,797.9143781999592,None,797.9143781999592,None,797.9143781999592,None,797.9143781999592,None,797.9143781999592,None,797.9143781999592,None,25,69,71,66,69,57,800.4320569999982,None,7.0,0.671572000021115,800.4320569999982,None,800.4320569999982,None,800.4320569999982,None,800.4320569999982,None,None,None,801.1293433001265,None,,,,,,,115,f,22,2022_Dec_11_1526,RL,2021.2.3,59.943880516485606,
1,103,0,103,0,,,,,,,,,,,,,,,None,None,None,None,None,803.0060000000522,None,803.0060000000522,None,803.0060000000522,None,803.0060000000522,None,i,0.30214560008607805,803.0060000000522,None,803.0060000000522,None,803.3593448000029,None,803.3593448000029,None,803.3593448000029,None,803.3593448000029,None,803.3593448000029,None,803.3593448000029,None,803.6531948000193,None,803.6531948000193,None,804.9035084999632,None,804.9035084999632,None,804.9035084999632,None,804.9035084999632,None,804.9035084999632,None,804.9035084999632,None,804.9035084999632,None,804.9035084999632,None,804.9035084999632,None,26,61,78,64,78,42,807.4206433000509,None,5.0,0.9390597001183778,807.4206433000509,None,807.4206433000509,None,807.4206433000509,None,807.4206433000509,None,None,None,808.3793627000414,None,,,,,,,115,f,22,2022_Dec_11_1526,RL,2021.2.3,59.943880516485606,
1,104,0,104,0,,,,,,,,,,,,,,,None,None,None,None,None,809.9427638999186,None,809.9427638999186,None,809.9427638999186,None,809.9427638999186,None,i,0.3054812999907881,809.9427638999186,None,809.9427638999186,None,810.2976844999939,None,810.2976844999939,None,810.2976844999939,None,810.2976844999939,None,810.2976844999939,None,810.2976844999939,None,810.5747744999826,811.491811200045,810.5747744999826,811.491811200045,811.5216657000128,None,811.5216657000128,None,811.5216657000128,None,811.5216657000128,None,811.5216657000128,None,811.5216657000128,None,811.5216657000128,None,811.5216657000128,None,811.5216657000128,None,28,70,68,59,68,42,814.03955519991,None,5.0,1.372462699888274,814.03955519991,None,814.03955519991,None,814.03955519991,None,814.03955519991,None,None,None,815.4334780001082,None,,,,,,,115,f,22,2022_Dec_11_1526,RL,2021.2.3,59.943880516485606,
1,105,0,105,0,,,,,,,,,,,,,,,None,None,None,None,None,817.1656800000928,None,817.1656800000928,None,817.1656800000928,None,817.1656800000928,None,f,0.31270139990374446,817.1656800000928,None,817.1656800000928,None,817.5194908000994,None,817.5194908000994,None,817.5194908000994,None,817.5194908000994,None,817.5194908000994,None,817.5194908000994,None,817.8133696999867,None,817.8133696999867,None,819.8261965999845,None,819.8261965999845,None,819.8261965999845,None,819.8261965999845,None,819.8261965999845,None,819.8261965999845,None,819.8261965999845,None,819.8261965999845,None,819.8261965999845,None,30,69,75,56,69,31,822.3480909999926,None,6.0,0.0730063000228256,822.3480909999926,None,822.3480909999926,None,822.3480909999926,None,822.3480909999926,None,None,None,822.4353473000228,None,,,,,,,115,f,22,2022_Dec_11_1526,RL,2021.2.3,59.943880516485606,
1,106,0,106,0,,,,,,,,,,,,,,,None,None,None,None,None,824.1368500001263,None,824.1368500001263,None,824.1368500001263,None,824.1368500001263,None,i,0.3618210998829454,824.1368500001263,None,824.1368500001263,None,824.5411906000227,None,824.5411906000227,None,824.5411906000227,None,824.5411906000227,None,824.5411906000227,None,824.5411906000227,None,824.8345492999069,826.0852081000339,824.8345492999069,826.0852081000339,826.116589399986,None,826.116589399986,None,826.116589399986,None,826.116589399986,None,826.116589399986,None,826.116589399986,None,826.116589399986,None,826.116589399986,None,826.116589399986,None,27,64,72,57,72,57,828.6228148001246,None,6.0,0.5131154998671263,828.6228148001246,None,828.6228148001246,None,828.6228148001246,None,828.6228148001246,None,None,None,829.153462599963,None,,,,,,,115,f,22,2022_Dec_11_1526,RL,2021.2.3,59.943880516485606,
1,107,0,107,0,,,,,,,,,,,,,,,None,None,None,None,None,830.6735728001222,None,830.6735728001222,None,830.6735728001222,None,830.6735728001222,None,f,0.3653055999893695,830.6735728001222,None,830.6735728001222,None,831.0775236999616,None,831.0775236999616,None,831.0775236999616,None,831.0775236999616,None,831.0775236999616,None,831.0775236999616,None,831.3724211999215,None,831.3724211999215,None,833.3045008999761,None,833.3045008999761,None,833.3045008999761,None,833.3045008999761,None,833.3045008999761,None,833.3045008999761,None,833.3045008999761,None,833.3045008999761,None,833.3045008999761,None,27,66,73,63,66,38,835.8224033999722,None,6.0,0.42105089989490807,835.8224033999722,None,835.8224033999722,None,835.8224033999722,None,835.8224033999722,None,None,None,836.2586131999269,None,,,,,,,115,f,22,2022_Dec_11_1526,RL,2021.2.3,59.943880516485606,
1,108,0,108,0,,,,,,,,,,,,,,,None,None,None,None,None,838.1300184000283,None,838.1300184000283,None,838.1300184000283,None,838.1300184000283,None,f,0.33833389985375106,838.1300184000283,None,838.1300184000283,None,838.5150178000331,None,838.5150178000331,None,838.5150178000331,None,838.5150178000331,None,838.5150178000331,None,838.5150178000331,None,838.8108727999497,840.6954397000372,838.8108727999497,840.6954397000372,840.7261191001162,None,840.7261191001162,None,840.7261191001162,None,840.7261191001162,None,840.7261191001162,None,840.7261191001162,None,840.7261191001162,None,840.7261191001162,None,840.7261191001162,None,36,58,66,61,58,57,843.244745099917,None,6.0,1.4218359999358654,843.244745099917,None,843.244745099917,None,843.244745099917,None,843.244745099917,None,None,None,844.6877216999419,None,,,,,,,115,f,22,2022_Dec_11_1526,RL,2021.2.3,59.943880516485606,
1,109,0,109,0,,,,,,,,,,,,,,,None,None,None,None,None,846.5690421999898,None,846.5690421999898,None,846.5690421999898,None,846.5690421999898,None,i,0.3194469001609832,846.5690421999898,None,846.5690421999898,None,846.938855299959,None,846.938855299959,None,846.938855299959,None,846.938855299959,None,846.938855299959,None,846.938855299959,None,847.2334801000543,None,847.2334801000543,None,848.0978389999364,None,848.0978389999364,None,848.0978389999364,None,848.0978389999364,None,848.0978389999364,None,848.0978389999364,None,848.0978389999364,None,848.0978389999364,None,848.0978389999364,None,43,70,71,58,71,59,850.6153726999182,None,6.0,0.4224010999314487,850.6153726999182,None,850.6153726999182,None,850.6153726999182,None,850.6153726999182,None,None,None,851.0522779000457,None,,,,,,,115,f,22,2022_Dec_11_1526,RL,2021.2.3,59.943880516485606,
1,110,0,110,0,,,,,,,,,,,,,,,None,None,None,None,None,852.790170900058,None,852.790170900058,None,852.790170900058,None,852.790170900058,None,i,0.27846729988232255,852.790170900058,None,852.790170900058,None,853.1085429999512,None,853.1085429999512,None,853.1085429999512,None,853.1085429999512,None,853.1085429999512,None,853.1085429999512,None,853.4044693000615,None,853.4044693000615,None,854.838667999953,None,854.838667999953,None,854.838667999953,None,854.838667999953,None,854.838667999953,None,854.838667999953,None,854.838667999953,None,854.838667999953,None,854.838667999953,None,47,69,82,68,82,47,857.3603415000252,None,5.0,0.1665932999458164,857.3603415000252,None,857.3603415000252,None,857.3603415000252,None,857.3603415000252,None,None,None,857.549386800034,None,,,,,,,115,f,22,2022_Dec_11_1526,RL,2021.2.3,59.943880516485606,
1,111,0,111,0,,,,,,,,,,,,,,,None,None,None,None,None,859.2456682999618,None,859.2456682999618,None,859.2456682999618,None,859.2456682999618,None,i,0.9231544998474419,859.2456682999618,None,859.2456682999618,None,860.2150304999668,None,860.2150304999668,None,860.2150304999668,None,860.2150304999668,None,860.2150304999668,None,860.2150304999668,None,860.509245299967,None,860.509245299967,None,862.5296791000292,None,862.5296791000292,None,862.5296791000292,None,862.5296791000292,None,862.5296791000292,None,862.5296791000292,None,862.5296791000292,None,862.5296791000292,None,862.5296791000292,None,42,64,77,62,77,53,865.0418064999394,None,6.0,0.6545306001789868,865.0418064999394,None,865.0418064999394,None,865.0418064999394,None,865.0418064999394,None,None,None,865.7217284000944,None,,,,,,,115,f,22,2022_Dec_11_1526,RL,2021.2.3,59.943880516485606,
