bandit,trials.thisRepN,trials.thisTrialN,trials.thisN,trials.thisIndex,instru_img1.started,instru_resp.started,instru_resp.keys,instru_resp.rt,instru_img2.started,instru_resp2.started,instru_resp2.keys,instru_resp2.rt,fixbefore_2.started,rest_response.keys,red.started,green.started,yellow.started,blue.started,choose_bandit.started,Fixation.started,choose_bandit.keys,choose_bandit.rt,black.started,red_2.started,green_2.started,yellow_2.started,blue_2.started,fixation_2.started,docs.started,image_2.started,docs.stopped,image_2.stopped,black.stopped,red_2.stopped,green_2.stopped,yellow_2.stopped,blue_2.stopped,fixation_2.stopped,black_com.started,reward_sub.started,palyerb.started,reward__sub.started,compare.started,red_compare.started,green_com.started,yellow_com.started,blue_com.started,image_3.started,slider.started,text.started,image_4.started,image_5.started,rewardyellow,rewardred,rewardblue,rewardgreen,subchoose,playerb,slider.response,slider.rt,intertrialfix.started,intertrialfix.stopped,rest_image.started,rest_response.started,rest_response.rt,image.started,key_resp.started,key_resp.keys,participant,Gender,Age,date,expName,psychopyVersion,frameRate,
,,,,,14.802634899970144,14.802634899970144,space,1.115051199682057,,,,,,,,,,,,,,,,,,,,,,,,,,,,,,,,,,,,,,,,,,,,,,,,,,,,,,,,,,,,,116,f,23,2022-12-11_15h26.16.798,RL,2022.2.4,60.00920546824139,
,,,,,,,,,15.946436600293964,15.946436600293964,space,4.463714299723506,,,,,,,,,,,,,,,,,,,,,,,,,,,,,,,,,,,,,,,,,,,,,,,,,,,,,,,,,116,f,23,2022-12-11_15h26.16.798,RL,2022.2.4,60.00920546824139,
1,0,0,0,0,,,,,,,,,20.425915800035,None,21.44194280030206,21.44194280030206,21.44194280030206,21.44194280030206,21.44194280030206,21.44194280030206,f,0.4272726997733116,21.94316540006548,21.94316540006548,21.94316540006548,21.94316540006548,21.94316540006548,21.94316540006548,22.188828700222075,22.188828700222075,23.35218930011615,23.35218930011615,23.407993800006807,23.407993800006807,23.407993800006807,23.407993800006807,23.407993800006807,23.407993800006807,23.407993800006807,23.407993800006807,23.407993800006807,23.407993800006807,23.407993800006807,23.407993800006807,23.407993800006807,23.407993800006807,23.407993800006807,25.911720900330693,25.911720900330693,25.911720900330693,25.911720900330693,25.911720900330693,60,47,69,43,47,61,4.0,2.076896599959582,28.045880100224167,29.867617200128734,,,,,,,116,f,23,2022-12-11_15h26.16.798,RL,2022.2.4,60.00920546824139,
1,1,0,1,0,,,,,,,,,,None,29.867617200128734,29.867617200128734,29.867617200128734,29.867617200128734,29.867617200128734,29.867617200128734,i,0.6254087002016604,30.517657000105828,30.517657000105828,30.517657000105828,30.517657000105828,30.517657000105828,30.517657000105828,30.815051400102675,30.815051400102675,32.70975650008768,32.70975650008768,32.70975650008768,32.70975650008768,32.70975650008768,32.70975650008768,32.70975650008768,32.70975650008768,32.70975650008768,32.70975650008768,32.70975650008768,32.70975650008768,32.70975650008768,32.70975650008768,32.70975650008768,32.70975650008768,32.70975650008768,35.21881900029257,35.21881900029257,35.21881900029257,35.21881900029257,35.21881900029257,61,46,76,39,76,54,4.0,1.1295143999159336,36.36569170001894,38.194513000082225,,,,,,,116,f,23,2022-12-11_15h26.16.798,RL,2022.2.4,60.00920546824139,
1,2,0,2,0,,,,,,,,,,None,38.194513000082225,38.194513000082225,38.194513000082225,38.194513000082225,38.194513000082225,38.194513000082225,i,0.4809520998969674,38.695578900165856,38.695578900165856,38.695578900165856,38.695578900165856,38.695578900165856,38.695578900165856,38.99309130012989,38.99309130012989,40.27274900022894,40.27274900022894,40.27274900022894,40.27274900022894,40.27274900022894,40.27274900022894,40.27274900022894,40.27274900022894,40.27274900022894,40.27274900022894,40.27274900022894,40.27274900022894,40.27274900022894,40.27274900022894,40.27274900022894,40.27274900022894,40.27274900022894,42.78161450009793,42.78161450009793,42.78161450009793,42.78161450009793,42.78161450009793,66,50,75,42,75,67,4.0,1.3798771002329886,44.178169399965554,45.94026069995016,,,,,,,116,f,23,2022-12-11_15h26.16.798,RL,2022.2.4,60.00920546824139,
1,3,0,3,0,,,,,,,,,,None,45.94026069995016,45.94026069995016,45.94026069995016,45.94026069995016,45.94026069995016,45.94026069995016,i,0.45863790018483996,46.42322710016742,46.42322710016742,46.42322710016742,46.42322710016742,46.42322710016742,46.42322710016742,46.721837300341576,46.721837300341576,47.98460149997845,47.98460149997845,47.98460149997845,47.98460149997845,47.98460149997845,47.98460149997845,47.98460149997845,47.98460149997845,47.98460149997845,47.98460149997845,47.98460149997845,47.98460149997845,47.98460149997845,47.98460149997845,47.98460149997845,47.98460149997845,47.98460149997845,50.493823000229895,50.493823000229895,50.493823000229895,50.493823000229895,50.493823000229895,78,52,62,41,62,47,4.0,2.1426618001423776,52.65448290016502,54.21777220023796,,,,,,,116,f,23,2022-12-11_15h26.16.798,RL,2022.2.4,60.00920546824139,
1,4,0,4,0,,,,,,,,,,None,54.21777220023796,54.21777220023796,54.21777220023796,54.21777220023796,54.21777220023796,54.21777220023796,i,0.4389702002517879,54.68898360012099,54.68898360012099,54.68898360012099,54.68898360012099,54.68898360012099,54.68898360012099,54.98266010032967,54.98266010032967,56.644583800341934,56.644583800341934,56.644583800341934,56.644583800341934,56.644583800341934,56.644583800341934,56.644583800341934,56.644583800341934,56.644583800341934,56.644583800341934,56.644583800341934,56.644583800341934,56.644583800341934,56.644583800341934,56.644583800341934,56.644583800341934,56.644583800341934,59.153903500176966,59.153903500176966,59.153903500176966,59.153903500176966,59.153903500176966,80,60,69,41,69,60,5.0,1.2614226997829974,60.43337840028107,62.16292629996315,,,,,,,116,f,23,2022-12-11_15h26.16.798,RL,2022.2.4,60.00920546824139,
1,5,0,5,0,,,,,,,,,,None,62.16292629996315,62.16292629996315,62.16292629996315,62.16292629996315,62.16292629996315,62.16292629996315,i,0.39669610001146793,62.579887700267136,62.579887700267136,62.579887700267136,62.579887700267136,62.579887700267136,62.579887700267136,62.877633300144225,62.877633300144225,64.24059840012342,64.24059840012342,64.24059840012342,64.24059840012342,64.24059840012342,64.24059840012342,64.24059840012342,64.24059840012342,64.24059840012342,64.24059840012342,64.24059840012342,64.24059840012342,64.24059840012342,64.24059840012342,64.24059840012342,64.24059840012342,64.24059840012342,66.74958720011637,66.74958720011637,66.74958720011637,66.74958720011637,66.74958720011637,66,45,71,48,71,63,5.0,1.4449951997958124,68.21236740006134,69.95797049999237,,,,,,,116,f,23,2022-12-11_15h26.16.798,RL,2022.2.4,60.00920546824139,
1,6,0,6,0,,,,,,,,,,None,69.95797049999237,69.95797049999237,69.95797049999237,69.95797049999237,69.95797049999237,69.95797049999237,i,0.4145522001199424,70.39245600020513,70.39245600020513,70.39245600020513,70.39245600020513,70.39245600020513,70.39245600020513,70.68945450009778,70.68945450009778,71.88644050015137,71.88644050015137,71.88644050015137,71.88644050015137,71.88644050015137,71.88644050015137,71.88644050015137,71.88644050015137,71.88644050015137,71.88644050015137,71.88644050015137,71.88644050015137,71.88644050015137,71.88644050015137,71.88644050015137,71.88644050015137,71.88644050015137,74.39569990010932,74.39569990010932,74.39569990010932,74.39569990010932,74.39569990010932,76,57,69,45,69,52,5.0,0.897227699868381,75.3094697999768,76.93919369997457,,,,,,,116,f,23,2022-12-11_15h26.16.798,RL,2022.2.4,60.00920546824139,
1,7,0,7,0,,,,,,,,,,None,76.93919369997457,76.93919369997457,76.93919369997457,76.93919369997457,76.93919369997457,76.93919369997457,i,0.48202630039304495,77.45569710014388,77.45569710014388,77.45569710014388,77.45569710014388,77.45569710014388,77.45569710014388,77.75356739992276,77.75356739992276,78.73424530029297,78.73424530029297,78.73424530029297,78.73424530029297,78.73424530029297,78.73424530029297,78.73424530029297,78.73424530029297,78.73424530029297,78.73424530029297,78.73424530029297,78.73424530029297,78.73424530029297,78.73424530029297,78.73424530029297,78.73424530029297,78.73424530029297,81.2435435000807,81.2435435000807,81.2435435000807,81.2435435000807,81.2435435000807,73,49,67,48,67,55,5.0,1.6445045000873506,82.90564269991592,84.85062970034778,,,,,,,116,f,23,2022-12-11_15h26.16.798,RL,2022.2.4,60.00920546824139,
1,8,0,8,0,,,,,,,,,,None,84.85062970034778,84.85062970034778,84.85062970034778,84.85062970034778,84.85062970034778,84.85062970034778,j,0.36289320001378655,85.23534230003133,85.23534230003133,85.23534230003133,85.23534230003133,85.23534230003133,85.23534230003133,85.53262070007622,85.53262070007622,86.5629070000723,86.5629070000723,86.5629070000723,86.5629070000723,86.5629070000723,86.5629070000723,86.5629070000723,86.5629070000723,86.5629070000723,86.5629070000723,86.5629070000723,86.5629070000723,86.5629070000723,86.5629070000723,86.5629070000723,86.5629070000723,86.5629070000723,89.07224570028484,89.07224570028484,89.07224570028484,89.07224570028484,89.07224570028484,72,50,75,47,47,56,5.0,0.7468254999257624,89.8366833999753,91.71511920029297,,,,,,,116,f,23,2022-12-11_15h26.16.798,RL,2022.2.4,60.00920546824139,
1,9,0,9,0,,,,,,,,,,None,91.71511920029297,91.71511920029297,91.71511920029297,91.71511920029297,91.71511920029297,91.71511920029297,i,0.35293979989364743,92.0980273000896,92.0980273000896,92.0980273000896,92.0980273000896,92.0980273000896,92.0980273000896,92.39731850009412,92.39731850009412,93.59361860016361,93.59361860016361,93.59361860016361,93.59361860016361,93.59361860016361,93.59361860016361,93.59361860016361,93.59361860016361,93.59361860016361,93.59361860016361,93.59361860016361,93.59361860016361,93.59361860016361,93.59361860016361,93.59361860016361,93.59361860016361,93.59361860016361,96.10260620014742,96.10260620014742,96.10260620014742,96.10260620014742,96.10260620014742,61,56,64,43,64,51,5.0,1.412266000173986,97.5323109999299,99.07878910005093,,,,,,,116,f,23,2022-12-11_15h26.16.798,RL,2022.2.4,60.00920546824139,
1,10,0,10,0,,,,,,,,,,None,99.07878910005093,99.07878910005093,99.07878910005093,99.07878910005093,99.07878910005093,99.07878910005093,i,0.520270399749279,99.63040020037442,99.63040020037442,99.63040020037442,99.63040020037442,99.63040020037442,99.63040020037442,99.92655690014362,99.92655690014362,100.74125239998102,100.74125239998102,100.74125239998102,100.74125239998102,100.74125239998102,100.74125239998102,100.74125239998102,100.74125239998102,100.74125239998102,100.74125239998102,100.74125239998102,100.74125239998102,100.74125239998102,100.74125239998102,100.74125239998102,100.74125239998102,100.74125239998102,103.25031730020419,103.25031730020419,103.25031730020419,103.25031730020419,103.25031730020419,74,60,61,37,61,59,6.0,0.9133038003928959,104.18068440025672,106.14302120031789,,,,,,,116,f,23,2022-12-11_15h26.16.798,RL,2022.2.4,60.00920546824139,
1,11,0,11,0,,,,,,,,,,None,106.14302120031789,106.14302120031789,106.14302120031789,106.14302120031789,106.14302120031789,106.14302120031789,i,0.4242773000150919,106.59420499997213,106.59420499997213,106.59420499997213,106.59420499997213,106.59420499997213,106.59420499997213,106.89108420023695,106.89108420023695,108.40331640001386,108.40331640001386,108.40331640001386,108.40331640001386,108.40331640001386,108.40331640001386,108.40331640001386,108.40331640001386,108.40331640001386,108.40331640001386,108.40331640001386,108.40331640001386,108.40331640001386,108.40331640001386,108.40331640001386,108.40331640001386,108.40331640001386,110.91272350028157,110.91272350028157,110.91272350028157,110.91272350028157,110.91272350028157,73,57,57,46,57,56,6.0,0.7976999999955297,111.72705670027062,113.52242790022865,,,,,,,116,f,23,2022-12-11_15h26.16.798,RL,2022.2.4,60.00920546824139,
1,12,0,12,0,,,,,,,,,,None,113.52242790022865,113.52242790022865,113.52242790022865,113.52242790022865,113.52242790022865,113.52242790022865,i,0.4268687996082008,113.97174420021474,113.97174420021474,113.97174420021474,113.97174420021474,113.97174420021474,113.97174420021474,114.27082290034741,114.27082290034741,116.2490575001575,116.2490575001575,116.2490575001575,116.2490575001575,116.2490575001575,116.2490575001575,116.2490575001575,116.2490575001575,116.2490575001575,116.2490575001575,116.2490575001575,116.2490575001575,116.2490575001575,116.2490575001575,116.2490575001575,116.2490575001575,116.2490575001575,118.75804740004241,118.75804740004241,118.75804740004241,118.75804740004241,118.75804740004241,68,60,72,42,72,63,6.0,0.6968322996981442,119.47215430019423,121.03519880026579,,,,,,,116,f,23,2022-12-11_15h26.16.798,RL,2022.2.4,60.00920546824139,
1,13,0,13,0,,,,,,,,,,None,121.03519880026579,121.03519880026579,121.03519880026579,121.03519880026579,121.03519880026579,121.03519880026579,i,0.4504025001078844,121.51935450034216,121.51935450034216,121.51935450034216,121.51935450034216,121.51935450034216,121.51935450034216,121.81679060030729,121.81679060030729,123.16322370013222,123.16322370013222,123.16322370013222,123.16322370013222,123.16322370013222,123.16322370013222,123.16322370013222,123.16322370013222,123.16322370013222,123.16322370013222,123.16322370013222,123.16322370013222,123.16322370013222,123.16322370013222,123.16322370013222,123.16322370013222,123.16322370013222,125.67215180024505,125.67215180024505,125.67215180024505,125.67215180024505,125.67215180024505,74,53,70,51,70,56,6.0,0.5815617996267974,126.27036860026419,127.99997110012919,,,,,,,116,f,23,2022-12-11_15h26.16.798,RL,2022.2.4,60.00920546824139,
1,14,0,14,0,,,,,,,,,,None,127.99997110012919,127.99997110012919,127.99997110012919,127.99997110012919,127.99997110012919,127.99997110012919,i,0.4035407998599112,128.43289360031486,128.43289360031486,128.43289360031486,128.43289360031486,128.43289360031486,128.43289360031486,128.73161800019443,128.73161800019443,130.09430930018425,130.09430930018425,130.09430930018425,130.09430930018425,130.09430930018425,130.09430930018425,130.09430930018425,130.09430930018425,130.09430930018425,130.09430930018425,130.09430930018425,130.09430930018425,130.09430930018425,130.09430930018425,130.09430930018425,130.09430930018425,130.09430930018425,132.60323020024225,132.60323020024225,132.60323020024225,132.60323020024225,132.60323020024225,76,53,61,49,61,67,5.0,0.7622989998199046,133.38446770003065,135.24670740030706,,,,,,,116,f,23,2022-12-11_15h26.16.798,RL,2022.2.4,60.00920546824139,
1,15,0,15,0,,,,,,,,,,None,135.24670740030706,135.24670740030706,135.24670740030706,135.24670740030706,135.24670740030706,135.24670740030706,i,0.30462060030549765,135.58260190021247,135.58260190021247,135.58260190021247,135.58260190021247,135.58260190021247,135.58260190021247,135.87848519999534,135.87848519999534,137.47423900011927,137.47423900011927,137.47423900011927,137.47423900011927,137.47423900011927,137.47423900011927,137.47423900011927,137.47423900011927,137.47423900011927,137.47423900011927,137.47423900011927,137.47423900011927,137.47423900011927,137.47423900011927,137.47423900011927,137.47423900011927,137.47423900011927,139.98306650016457,139.98306650016457,139.98306650016457,139.98306650016457,139.98306650016457,79,55,72,52,72,41,5.0,1.3296316997148097,141.32928490033373,143.1749658002518,,,,,,,116,f,23,2022-12-11_15h26.16.798,RL,2022.2.4,60.00920546824139,
1,16,0,16,0,,,,,,,,,,None,143.1749658002518,143.1749658002518,143.1749658002518,143.1749658002518,143.1749658002518,143.1749658002518,i,0.30329929990693927,143.50998660037294,143.50998660037294,143.50998660037294,143.50998660037294,143.50998660037294,143.50998660037294,143.8067850000225,143.8067850000225,144.6541991000995,144.6541991000995,144.6541991000995,144.6541991000995,144.6541991000995,144.6541991000995,144.6541991000995,144.6541991000995,144.6541991000995,144.6541991000995,144.6541991000995,144.6541991000995,144.6541991000995,144.6541991000995,144.6541991000995,144.6541991000995,144.6541991000995,147.16398560022935,147.16398560022935,147.16398560022935,147.16398560022935,147.16398560022935,69,59,82,55,82,54,5.0,0.8299261000938714,148.01113240001723,149.7072857003659,,,,,,,116,f,23,2022-12-11_15h26.16.798,RL,2022.2.4,60.00920546824139,
1,17,0,17,0,,,,,,,,,,None,149.7072857003659,149.7072857003659,149.7072857003659,149.7072857003659,149.7072857003659,149.7072857003659,i,0.3008570000529289,150.0424804002978,150.0424804002978,150.0424804002978,150.0424804002978,150.0424804002978,150.0424804002978,150.3390648001805,150.3390648001805,152.2173938001506,152.2173938001506,152.2173938001506,152.2173938001506,152.2173938001506,152.2173938001506,152.2173938001506,152.2173938001506,152.2173938001506,152.2173938001506,152.2173938001506,152.2173938001506,152.2173938001506,152.2173938001506,152.2173938001506,152.2173938001506,152.2173938001506,154.72643540007994,154.72643540007994,154.72643540007994,154.72643540007994,154.72643540007994,77,57,67,58,67,61,5.0,0.44719860004261136,155.19170070020482,157.18709539994597,,,,,,,116,f,23,2022-12-11_15h26.16.798,RL,2022.2.4,60.00920546824139,
1,18,0,18,0,,,,,,,,,,None,157.18709539994597,157.18709539994597,157.18709539994597,157.18709539994597,157.18709539994597,157.18709539994597,i,0.361466099973768,157.5721082999371,157.5721082999371,157.5721082999371,157.5721082999371,157.5721082999371,157.5721082999371,157.86857799999416,157.86857799999416,159.1815194003284,159.1815194003284,159.1815194003284,159.1815194003284,159.1815194003284,159.1815194003284,159.1815194003284,159.1815194003284,159.1815194003284,159.1815194003284,159.1815194003284,159.1815194003284,159.1815194003284,159.1815194003284,159.1815194003284,159.1815194003284,159.1815194003284,161.69038170017302,161.69038170017302,161.69038170017302,161.69038170017302,161.69038170017302,73,60,61,59,61,50,5.0,0.49697349965572357,162.20584920002148,163.85191480023786,,,,,,,116,f,23,2022-12-11_15h26.16.798,RL,2022.2.4,60.00920546824139,
1,19,0,19,0,,,,,,,,,,None,163.85191480023786,163.85191480023786,163.85191480023786,163.85191480023786,163.85191480023786,163.85191480023786,i,0.399817300029099,164.28628690028563,164.28628690028563,164.28628690028563,164.28628690028563,164.28628690028563,164.28628690028563,164.58345689997077,164.58345689997077,165.4146126001142,165.4146126001142,165.4146126001142,165.4146126001142,165.4146126001142,165.4146126001142,165.4146126001142,165.4146126001142,165.4146126001142,165.4146126001142,165.4146126001142,165.4146126001142,165.4146126001142,165.4146126001142,165.4146126001142,165.4146126001142,165.4146126001142,167.92360070021823,167.92360070021823,167.92360070021823,167.92360070021823,167.92360070021823,69,51,71,62,71,51,5.0,0.4638510998338461,168.40543529996648,170.16856680018827,,,,,,,116,f,23,2022-12-11_15h26.16.798,RL,2022.2.4,60.00920546824139,
1,20,0,20,0,,,,,,,,,,None,170.16856680018827,170.16856680018827,170.16856680018827,170.16856680018827,170.16856680018827,170.16856680018827,i,0.45642879977822304,170.65431979997084,170.65431979997084,170.65431979997084,170.65431979997084,170.65431979997084,170.65431979997084,170.94923279993236,170.94923279993236,172.91064900020137,172.91064900020137,172.91064900020137,172.91064900020137,172.91064900020137,172.91064900020137,172.91064900020137,172.91064900020137,172.91064900020137,172.91064900020137,172.91064900020137,172.91064900020137,172.91064900020137,172.91064900020137,172.91064900020137,172.91064900020137,172.91064900020137,175.42001110035926,175.42001110035926,175.42001110035926,175.42001110035926,175.42001110035926,71,54,67,60,67,71,5.0,0.4978383001871407,175.93523900024593,177.88055150024593,,,,,,,116,f,23,2022-12-11_15h26.16.798,RL,2022.2.4,60.00920546824139,
1,21,0,21,0,,,,,,,,,,None,177.88055150024593,177.88055150024593,177.88055150024593,177.88055150024593,177.88055150024593,177.88055150024593,i,0.31697210017591715,178.2315516001545,178.2315516001545,178.2315516001545,178.2315516001545,178.2315516001545,178.2315516001545,178.52862410014495,178.52862410014495,179.62594410032034,179.62594410032034,179.62594410032034,179.62594410032034,179.62594410032034,179.62594410032034,179.62594410032034,179.62594410032034,179.62594410032034,179.62594410032034,179.62594410032034,179.62594410032034,179.62594410032034,179.62594410032034,179.62594410032034,179.62594410032034,179.62594410032034,182.13506990019232,182.13506990019232,182.13506990019232,182.13506990019232,182.13506990019232,78,52,72,57,72,66,5.0,0.5138997999019921,182.66680020000786,184.42892680037767,,,,,,,116,f,23,2022-12-11_15h26.16.798,RL,2022.2.4,60.00920546824139,
1,22,0,22,0,,,,,,,,,,None,184.42892680037767,184.42892680037767,184.42892680037767,184.42892680037767,184.42892680037767,184.42892680037767,i,0.3220295999199152,184.7791021000594,184.7791021000594,184.7791021000594,184.7791021000594,184.7791021000594,184.7791021000594,185.07756080012769,185.07756080012769,186.2411442999728,186.2411442999728,186.2411442999728,186.2411442999728,186.2411442999728,186.2411442999728,186.2411442999728,186.2411442999728,186.2411442999728,186.2411442999728,186.2411442999728,186.2411442999728,186.2411442999728,186.2411442999728,186.2411442999728,186.2411442999728,186.2411442999728,188.75025300029665,188.75025300029665,188.75025300029665,188.75025300029665,188.75025300029665,82,52,67,62,67,57,5.0,0.4306952999904752,189.1988564003259,190.89466099999845,,,,,,,116,f,23,2022-12-11_15h26.16.798,RL,2022.2.4,60.00920546824139,
1,23,0,23,0,,,,,,,,,,None,190.89466099999845,190.89466099999845,190.89466099999845,190.89466099999845,190.89466099999845,190.89466099999845,i,0.32901429990306497,191.24533800035715,191.24533800035715,191.24533800035715,191.24533800035715,191.24533800035715,191.24533800035715,191.54351500002667,191.54351500002667,193.02269920008257,193.02269920008257,193.02269920008257,193.02269920008257,193.02269920008257,193.02269920008257,193.02269920008257,193.02269920008257,193.02269920008257,193.02269920008257,193.02269920008257,193.02269920008257,193.02269920008257,193.02269920008257,193.02269920008257,193.02269920008257,193.02269920008257,195.53178870026022,195.53178870026022,195.53178870026022,195.53178870026022,195.53178870026022,75,49,66,63,66,36,5.0,0.5475034001283348,196.09670560015365,197.89217439992353,,,,,,,116,f,23,2022-12-11_15h26.16.798,RL,2022.2.4,60.00920546824139,
1,24,0,24,0,,,,,,,,,,None,197.89217439992353,197.89217439992353,197.89217439992353,197.89217439992353,197.89217439992353,197.89217439992353,i,0.33404319966211915,198.26017560018227,198.26017560018227,198.26017560018227,198.26017560018227,198.26017560018227,198.26017560018227,198.55744890030473,198.55744890030473,199.73766930028796,199.73766930028796,199.73766930028796,199.73766930028796,199.73766930028796,199.73766930028796,199.73766930028796,199.73766930028796,199.73766930028796,199.73766930028796,199.73766930028796,199.73766930028796,199.73766930028796,199.73766930028796,199.73766930028796,199.73766930028796,199.73766930028796,202.24691160023212,202.24691160023212,202.24691160023212,202.24691160023212,202.24691160023212,77,49,70,57,70,48,5.0,0.7466261996887624,203.01102300034836,204.5906943003647,,,,,,,116,f,23,2022-12-11_15h26.16.798,RL,2022.2.4,60.00920546824139,
1,25,0,25,0,,,,,,,,,,None,204.5906943003647,204.5906943003647,204.5906943003647,204.5906943003647,204.5906943003647,204.5906943003647,i,0.3187556001357734,204.94445390021428,204.94445390021428,204.94445390021428,204.94445390021428,204.94445390021428,204.94445390021428,205.23914969991893,205.23914969991893,207.08411080017686,207.08411080017686,207.08411080017686,207.08411080017686,207.08411080017686,207.08411080017686,207.08411080017686,207.08411080017686,207.08411080017686,207.08411080017686,207.08411080017686,207.08411080017686,207.08411080017686,207.08411080017686,207.08411080017686,207.08411080017686,207.08411080017686,209.59344250010327,209.59344250010327,209.59344250010327,209.59344250010327,209.59344250010327,80,49,64,64,64,37,5.0,0.48040980007499456,210.0919222002849,211.62190179992467,,,,,,,116,f,23,2022-12-11_15h26.16.798,RL,2022.2.4,60.00920546824139,
1,26,0,26,0,,,,,,,,,,None,211.62190179992467,211.62190179992467,211.62190179992467,211.62190179992467,211.62190179992467,211.62190179992467,i,0.43901259964331985,212.08740950003266,212.08740950003266,212.08740950003266,212.08740950003266,212.08740950003266,212.08740950003266,212.38673799997196,212.38673799997196,213.3503642003052,213.3503642003052,213.3503642003052,213.3503642003052,213.3503642003052,213.3503642003052,213.3503642003052,213.3503642003052,213.3503642003052,213.3503642003052,213.3503642003052,213.3503642003052,213.3503642003052,213.3503642003052,213.3503642003052,213.3503642003052,213.3503642003052,215.85959130013362,215.85959130013362,215.85959130013362,215.85959130013362,215.85959130013362,87,50,67,60,67,40,6.0,0.6803366998210549,216.55798269994557,218.46953540015966,,,,,,,116,f,23,2022-12-11_15h26.16.798,RL,2022.2.4,60.00920546824139,
1,27,0,27,0,,,,,,,,,,None,218.46953540015966,218.46953540015966,218.46953540015966,218.46953540015966,218.46953540015966,218.46953540015966,i,0.4288325998932123,218.9208428002894,218.9208428002894,218.9208428002894,218.9208428002894,218.9208428002894,218.9208428002894,219.21813790034503,219.21813790034503,220.8300431999378,220.8300431999378,220.8467342001386,220.8467342001386,220.8467342001386,220.8467342001386,220.8467342001386,220.8467342001386,220.8467342001386,220.8467342001386,220.8467342001386,220.8467342001386,220.8467342001386,220.8467342001386,220.8467342001386,220.8467342001386,220.8467342001386,223.35601430013776,223.35601430013776,223.35601430013776,223.35601430013776,223.35601430013776,84,50,68,59,68,59,6.0,0.4480980997905135,223.82125069992617,225.60040460014716,,,,,,,116,f,23,2022-12-11_15h26.16.798,RL,2022.2.4,60.00920546824139,
1,28,0,28,0,,,,,,,,,,None,225.60040460014716,225.60040460014716,225.60040460014716,225.60040460014716,225.60040460014716,225.60040460014716,i,0.4808678003028035,226.1036437000148,226.1036437000148,226.1036437000148,226.1036437000148,226.1036437000148,226.1036437000148,226.398370699957,226.398370699957,228.17661150032654,228.17661150032654,228.17661150032654,228.17661150032654,228.17661150032654,228.17661150032654,228.17661150032654,228.17661150032654,228.17661150032654,228.17661150032654,228.17661150032654,228.17661150032654,228.17661150032654,228.17661150032654,228.17661150032654,228.17661150032654,228.17661150032654,230.68605179991573,230.68605179991573,230.68605179991573,230.68605179991573,230.68605179991573,85,52,72,56,72,67,5.0,1.0955619998276234,231.7995307003148,233.7610828001052,,,,,,,116,f,23,2022-12-11_15h26.16.798,RL,2022.2.4,60.00920546824139,
1,29,0,29,0,,,,,,,,,,None,233.7610828001052,233.7610828001052,233.7610828001052,233.7610828001052,233.7610828001052,233.7610828001052,i,0.4457454001531005,234.22912510018796,234.22912510018796,234.22912510018796,234.22912510018796,234.22912510018796,234.22912510018796,234.52611700026318,234.52611700026318,235.73924120003358,235.73924120003358,235.73924120003358,235.73924120003358,235.73924120003358,235.73924120003358,235.73924120003358,235.73924120003358,235.73924120003358,235.73924120003358,235.73924120003358,235.73924120003358,235.73924120003358,235.73924120003358,235.73924120003358,235.73924120003358,235.73924120003358,238.24833120033145,238.24833120033145,238.24833120033145,238.24833120033145,238.24833120033145,78,49,74,62,74,72,4.0,0.8297151001170278,239.09606510028243,240.8252799003385,,,,,,,116,f,23,2022-12-11_15h26.16.798,RL,2022.2.4,60.00920546824139,
1,30,0,30,0,,,,,,,,,,None,240.8252799003385,240.8252799003385,240.8252799003385,240.8252799003385,240.8252799003385,240.8252799003385,i,0.31470509991049767,241.1624957001768,241.1624957001768,241.1624957001768,241.1624957001768,241.1624957001768,241.1624957001768,241.45695629995316,241.45695629995316,242.75344360014424,242.75344360014424,242.75344360014424,242.75344360014424,242.75344360014424,242.75344360014424,242.75344360014424,242.75344360014424,242.75344360014424,242.75344360014424,242.75344360014424,242.75344360014424,242.75344360014424,242.75344360014424,242.75344360014424,242.75344360014424,242.75344360014424,245.26261390000582,245.26261390000582,245.26261390000582,245.26261390000582,245.26261390000582,80,48,60,60,60,47,5.0,0.4969295999035239,245.77814149996266,247.77280220016837,,,,,,,116,f,23,2022-12-11_15h26.16.798,RL,2022.2.4,60.00920546824139,
1,31,0,31,0,,,,,,,,,,None,247.77280220016837,247.77280220016837,247.77280220016837,247.77280220016837,247.77280220016837,247.77280220016837,i,0.43970009963959455,248.2406088002026,248.2406088002026,248.2406088002026,248.2406088002026,248.2406088002026,248.2406088002026,248.53818859998137,248.53818859998137,249.9007328003645,249.9007328003645,249.9007328003645,249.9007328003645,249.9007328003645,249.9007328003645,249.9007328003645,249.9007328003645,249.9007328003645,249.9007328003645,249.9007328003645,249.9007328003645,249.9007328003645,249.9007328003645,249.9007328003645,249.9007328003645,249.9007328003645,252.40971340006217,252.40971340006217,252.40971340006217,252.40971340006217,252.40971340006217,72,48,65,66,65,66,5.0,0.6301990998908877,253.05776110012084,254.8039570003748,,,,,,,116,f,23,2022-12-11_15h26.16.798,RL,2022.2.4,60.00920546824139,
1,32,0,32,0,,,,,,,,,,None,254.8039570003748,254.8039570003748,254.8039570003748,254.8039570003748,254.8039570003748,254.8039570003748,i,0.35647530015558004,255.19260230008513,255.19260230008513,255.19260230008513,255.19260230008513,255.19260230008513,255.19260230008513,255.48563330015168,255.48563330015168,257.2142278002575,257.2142278002575,257.23050720011815,257.23050720011815,257.23050720011815,257.23050720011815,257.23050720011815,257.23050720011815,257.23050720011815,257.23050720011815,257.23050720011815,257.23050720011815,257.23050720011815,257.23050720011815,257.23050720011815,257.23050720011815,257.23050720011815,259.73978100018576,259.73978100018576,259.73978100018576,259.73978100018576,259.73978100018576,82,44,60,69,60,58,5.0,0.8127365997061133,260.5709522003308,262.5662152003497,,,,,,,116,f,23,2022-12-11_15h26.16.798,RL,2022.2.4,60.00920546824139,
1,33,0,33,0,,,,,,,,,,None,262.5662152003497,262.5662152003497,262.5662152003497,262.5662152003497,262.5662152003497,262.5662152003497,i,0.34186419984325767,262.93367980001494,262.93367980001494,262.93367980001494,262.93367980001494,262.93367980001494,262.93367980001494,263.23126720031723,263.23126720031723,265.19243000028655,265.19243000028655,265.19243000028655,265.19243000028655,265.19243000028655,265.19243000028655,265.19243000028655,265.19243000028655,265.19243000028655,265.19243000028655,265.19243000028655,265.19243000028655,265.19243000028655,265.19243000028655,265.19243000028655,265.19243000028655,265.19243000028655,267.7015929003246,267.7015929003246,267.7015929003246,267.7015929003246,267.7015929003246,83,47,60,66,60,62,6.0,0.9795503001660109,268.6985332001932,270.39452660037205,,,,,,,116,f,23,2022-12-11_15h26.16.798,RL,2022.2.4,60.00920546824139,
1,34,0,34,0,,,,,,,,,,None,270.39452660037205,270.39452660037205,270.39452660037205,270.39452660037205,270.39452660037205,270.39452660037205,i,0.3192309997975826,270.74571399996057,270.74571399996057,270.74571399996057,270.74571399996057,270.74571399996057,270.74571399996057,271.0430149002932,271.0430149002932,271.99058640003204,271.99058640003204,271.99058640003204,271.99058640003204,271.99058640003204,271.99058640003204,271.99058640003204,271.99058640003204,271.99058640003204,271.99058640003204,271.99058640003204,271.99058640003204,271.99058640003204,271.99058640003204,271.99058640003204,271.99058640003204,271.99058640003204,274.4992438000627,274.4992438000627,274.4992438000627,274.4992438000627,274.4992438000627,80,53,64,61,64,42,6.0,0.5462269000709057,275.0640879003331,276.8271522000432,,,,,,,116,f,23,2022-12-11_15h26.16.798,RL,2022.2.4,60.00920546824139,
1,35,0,35,0,,,,,,,,,,None,276.8271522000432,276.8271522000432,276.8271522000432,276.8271522000432,276.8271522000432,276.8271522000432,i,0.6546211000531912,277.51294340007007,277.51294340007007,277.51294340007007,277.51294340007007,277.51294340007007,277.51294340007007,277.8082382003777,277.8082382003777,279.53671170026064,279.53671170026064,279.53671170026064,279.53671170026064,279.53671170026064,279.53671170026064,279.53671170026064,279.53671170026064,279.53671170026064,279.53671170026064,279.53671170026064,279.53671170026064,279.53671170026064,279.53671170026064,279.53671170026064,279.53671170026064,279.53671170026064,282.0457020001486,282.0457020001486,282.0457020001486,282.0457020001486,282.0457020001486,75,58,55,68,55,58,5.0,0.6295107998885214,282.6933106002398,284.2902680002153,,,,,,,116,f,23,2022-12-11_15h26.16.798,RL,2022.2.4,60.00920546824139,
1,36,0,36,0,,,,,,,,,,None,284.2902680002153,284.2902680002153,284.2902680002153,284.2902680002153,284.2902680002153,284.2902680002153,i,0.3742621000856161,284.69242250034586,284.69242250034586,284.69242250034586,284.69242250034586,284.69242250034586,284.69242250034586,284.98869640007615,284.98869640007615,286.40125060034916,286.40125060034916,286.40125060034916,286.40125060034916,286.40125060034916,286.40125060034916,286.40125060034916,286.40125060034916,286.40125060034916,286.40125060034916,286.40125060034916,286.40125060034916,286.40125060034916,286.40125060034916,286.40125060034916,286.40125060034916,286.40125060034916,288.9104576003738,288.9104576003738,288.9104576003738,288.9104576003738,288.9104576003738,72,55,53,69,53,62,4.0,1.8615711997263134,290.7882093000226,292.75021160021424,,,,,,,116,f,23,2022-12-11_15h26.16.798,RL,2022.2.4,60.00920546824139,
1,37,0,37,0,,,,,,,,,,None,292.75021160021424,292.75021160021424,292.75021160021424,292.75021160021424,292.75021160021424,292.75021160021424,f,0.3904634998179972,293.16921199997887,293.16921199997887,293.16921199997887,293.16921199997887,293.16921199997887,293.16921199997887,293.46506540011615,293.46506540011615,294.82869180012494,294.82869180012494,294.82869180012494,294.82869180012494,294.82869180012494,294.82869180012494,294.82869180012494,294.82869180012494,294.82869180012494,294.82869180012494,294.82869180012494,294.82869180012494,294.82869180012494,294.82869180012494,294.82869180012494,294.82869180012494,294.82869180012494,297.33749630022794,297.33749630022794,297.33749630022794,297.33749630022794,297.33749630022794,78,50,56,62,50,52,4.0,1.5945505001582205,298.9497130000964,300.7948373002,,,,,,,116,f,23,2022-12-11_15h26.16.798,RL,2022.2.4,60.00920546824139,
1,38,0,38,0,,,,,,,,,,None,300.7948373002,300.7948373002,300.7948373002,300.7948373002,300.7948373002,300.7948373002,i,0.34664929984137416,301.1632135002874,301.1632135002874,301.1632135002874,301.1632135002874,301.1632135002874,301.1632135002874,301.46037140022963,301.46037140022963,302.8396652000956,302.8396652000956,302.8396652000956,302.8396652000956,302.8396652000956,302.8396652000956,302.8396652000956,302.8396652000956,302.8396652000956,302.8396652000956,302.8396652000956,302.8396652000956,302.8396652000956,302.8396652000956,302.8396652000956,302.8396652000956,302.8396652000956,305.3484200001694,305.3484200001694,305.3484200001694,305.3484200001694,305.3484200001694,67,66,56,65,56,37,4.0,0.7300048000179231,306.09664779994637,307.65975150000304,,,,,,,116,f,23,2022-12-11_15h26.16.798,RL,2022.2.4,60.00920546824139,
1,39,0,39,0,,,,,,,,,,None,307.65975150000304,307.65975150000304,307.65975150000304,307.65975150000304,307.65975150000304,307.65975150000304,i,0.5301524000242352,308.2098660003394,308.2098660003394,308.2098660003394,308.2098660003394,308.2098660003394,308.2098660003394,308.5072763999924,308.5072763999924,310.3689306001179,310.3689306001179,310.3689306001179,310.3689306001179,310.3689306001179,310.3689306001179,310.3689306001179,310.3689306001179,310.3689306001179,310.3689306001179,310.3689306001179,310.3689306001179,310.3689306001179,310.3689306001179,310.3689306001179,310.3689306001179,310.3689306001179,312.8779730000533,312.8779730000533,312.8779730000533,312.8779730000533,312.8779730000533,76,49,62,71,62,47,5.0,1.0634618001058698,313.95833470020443,315.9534615003504,,,,,,,116,f,23,2022-12-11_15h26.16.798,RL,2022.2.4,60.00920546824139,
1,40,0,40,0,,,,,,,,,,None,315.9534615003504,315.9534615003504,315.9534615003504,315.9534615003504,315.9534615003504,315.9534615003504,i,0.42305959993973374,316.4037268003449,316.4037268003449,316.4037268003449,316.4037268003449,316.4037268003449,316.4037268003449,316.7018178002909,316.7018178002909,317.94873460009694,317.94873460009694,317.9648263002746,317.9648263002746,317.9648263002746,317.9648263002746,317.9648263002746,317.9648263002746,317.9648263002746,317.9648263002746,317.9648263002746,317.9648263002746,317.9648263002746,317.9648263002746,317.9648263002746,317.9648263002746,317.9648263002746,320.4740639999509,320.4740639999509,320.4740639999509,320.4740639999509,320.4740639999509,74,52,65,66,65,68,5.0,0.48035639990121126,320.97259020013735,322.55233009997755,,,,,,,116,f,23,2022-12-11_15h26.16.798,RL,2022.2.4,60.00920546824139,
1,41,0,41,0,,,,,,,,,,None,322.55233009997755,322.55233009997755,322.55233009997755,322.55233009997755,322.55233009997755,322.55233009997755,i,0.3376155002042651,322.9208456003107,322.9208456003107,322.9208456003107,322.9208456003107,322.9208456003107,322.9208456003107,323.21754620037973,323.21754620037973,325.1452979003079,325.1452979003079,325.1452979003079,325.1452979003079,325.1452979003079,325.1452979003079,325.1452979003079,325.1452979003079,325.1452979003079,325.1452979003079,325.1452979003079,325.1452979003079,325.1452979003079,325.1452979003079,325.1452979003079,325.1452979003079,325.1452979003079,327.6545945000835,327.6545945000835,327.6545945000835,327.6545945000835,327.6545945000835,76,66,65,66,65,65,5.0,0.497571500018239,328.17001570016146,329.68294330034405,,,,,,,116,f,23,2022-12-11_15h26.16.798,RL,2022.2.4,60.00920546824139,
1,42,0,42,0,,,,,,,,,,None,329.68294330034405,329.68294330034405,329.68294330034405,329.68294330034405,329.68294330034405,329.68294330034405,i,0.4184840000234544,330.13791090017185,330.13791090017185,330.13791090017185,330.13791090017185,330.13791090017185,330.13791090017185,330.4313284000382,330.4313284000382,332.026403200347,332.026403200347,332.0433044000529,332.0433044000529,332.0433044000529,332.0433044000529,332.0433044000529,332.0433044000529,332.0433044000529,332.0433044000529,332.0433044000529,332.0433044000529,332.0433044000529,332.0433044000529,332.0433044000529,332.0433044000529,332.0433044000529,334.55223360005766,334.55223360005766,334.55223360005766,334.55223360005766,334.55223360005766,75,63,67,57,67,39,4.0,0.9626984000205994,335.53317200019956,337.1625773003325,,,,,,,116,f,23,2022-12-11_15h26.16.798,RL,2022.2.4,60.00920546824139,
1,43,0,43,0,,,,,,,,,,None,337.1625773003325,337.1625773003325,337.1625773003325,337.1625773003325,337.1625773003325,337.1625773003325,i,0.5261278999969363,337.71339850034565,337.71339850034565,337.71339850034565,337.71339850034565,337.71339850034565,337.71339850034565,338.0106492000632,338.0106492000632,338.85818300023675,338.85818300023675,338.85818300023675,338.85818300023675,338.85818300023675,338.85818300023675,338.85818300023675,338.85818300023675,338.85818300023675,338.85818300023675,338.85818300023675,338.85818300023675,338.85818300023675,338.85818300023675,338.85818300023675,338.85818300023675,338.85818300023675,341.36734940018505,341.36734940018505,341.36734940018505,341.36734940018505,341.36734940018505,69,68,64,60,64,55,5.0,0.82967450004071,342.21461370028555,343.8111246000044,,,,,,,116,f,23,2022-12-11_15h26.16.798,RL,2022.2.4,60.00920546824139,
1,44,0,44,0,,,,,,,,,,None,343.8111246000044,343.8111246000044,343.8111246000044,343.8111246000044,343.8111246000044,343.8111246000044,i,0.47145040007308125,344.3138302001171,344.3138302001171,344.3138302001171,344.3138302001171,344.3138302001171,344.3138302001171,344.6088915001601,344.6088915001601,345.72261770023033,345.72261770023033,345.72261770023033,345.72261770023033,345.72261770023033,345.72261770023033,345.72261770023033,345.72261770023033,345.72261770023033,345.72261770023033,345.72261770023033,345.72261770023033,345.72261770023033,345.72261770023033,345.72261770023033,345.72261770023033,345.72261770023033,348.23183159995824,348.23183159995824,348.23183159995824,348.23183159995824,348.23183159995824,87,59,69,72,69,53,5.0,0.6141256000846624,348.86342369997874,350.7584736002609,,,,,,,116,f,23,2022-12-11_15h26.16.798,RL,2022.2.4,60.00920546824139,
1,45,0,45,0,,,,,,,,,,None,350.7584736002609,350.7584736002609,350.7584736002609,350.7584736002609,350.7584736002609,350.7584736002609,j,0.5619464996270835,351.343102700077,351.343102700077,351.343102700077,351.343102700077,351.343102700077,351.343102700077,351.6397256003693,351.6397256003693,352.820129300002,352.820129300002,352.83645980013534,352.83645980013534,352.83645980013534,352.83645980013534,352.83645980013534,352.83645980013534,352.83645980013534,352.83645980013534,352.83645980013534,352.83645980013534,352.83645980013534,352.83645980013534,352.83645980013534,352.83645980013534,352.83645980013534,355.3460196000524,355.3460196000524,355.3460196000524,355.3460196000524,355.3460196000524,80,56,64,67,67,61,5.0,0.5805262997746468,355.9438126999885,357.49059469997883,,,,,,,116,f,23,2022-12-11_15h26.16.798,RL,2022.2.4,60.00920546824139,
1,46,0,46,0,,,,,,,,,,None,357.49059469997883,357.49059469997883,357.49059469997883,357.49059469997883,357.49059469997883,357.49059469997883,i,0.3731593997217715,357.8922493001446,357.8922493001446,357.8922493001446,357.8922493001446,357.8922493001446,357.8922493001446,358.18907710025087,358.18907710025087,359.35251990007237,359.35251990007237,359.35251990007237,359.35251990007237,359.35251990007237,359.35251990007237,359.35251990007237,359.35251990007237,359.35251990007237,359.35251990007237,359.35251990007237,359.35251990007237,359.35251990007237,359.35251990007237,359.35251990007237,359.35251990007237,359.35251990007237,361.86156610026956,361.86156610026956,361.86156610026956,361.86156610026956,361.86156610026956,82,63,65,76,65,56,5.0,0.5145616000518203,362.3933153003454,363.9891670001671,,,,,,,116,f,23,2022-12-11_15h26.16.798,RL,2022.2.4,60.00920546824139,
1,47,0,47,0,,,,,,,,,,None,363.9891670001671,363.9891670001671,363.9891670001671,363.9891670001671,363.9891670001671,363.9891670001671,i,0.31669989973306656,364.3410332999192,364.3410332999192,364.3410332999192,364.3410332999192,364.3410332999192,364.3410332999192,364.63807930005714,364.63807930005714,366.0507112001069,366.0507112001069,366.0507112001069,366.0507112001069,366.0507112001069,366.0507112001069,366.0507112001069,366.0507112001069,366.0507112001069,366.0507112001069,366.0507112001069,366.0507112001069,366.0507112001069,366.0507112001069,366.0507112001069,366.0507112001069,366.0507112001069,368.5597729999572,368.5597729999572,368.5597729999572,368.5597729999572,368.5597729999572,68,63,59,76,59,55,5.0,0.4494767999276519,369.0251287003048,370.7374896002002,,,,,,,116,f,23,2022-12-11_15h26.16.798,RL,2022.2.4,60.00920546824139,
1,48,0,48,0,,,,,,,,,,None,370.7374896002002,370.7374896002002,370.7374896002002,370.7374896002002,370.7374896002002,370.7374896002002,i,0.3868565997108817,371.1556462002918,371.1556462002918,371.1556462002918,371.1556462002918,371.1556462002918,371.1556462002918,371.45259500015527,371.45259500015527,373.4303688001819,373.4303688001819,373.4471920002252,373.4471920002252,373.4471920002252,373.4471920002252,373.4471920002252,373.4471920002252,373.4471920002252,373.4471920002252,373.4471920002252,373.4471920002252,373.4471920002252,373.4471920002252,373.4471920002252,373.4471920002252,373.4471920002252,375.9562833001837,375.9562833001837,375.9562833001837,375.9562833001837,375.9562833001837,71,53,59,79,59,64,3.0,1.1459963000379503,377.1195406001061,378.9818969001062,,,,,,,116,f,23,2022-12-11_15h26.16.798,RL,2022.2.4,60.00920546824139,
1,49,0,49,0,,,,,,,,,,None,378.9818969001062,378.9818969001062,378.9818969001062,378.9818969001062,378.9818969001062,378.9818969001062,i,0.9481366002000868,379.96697980025783,379.96697980025783,379.96697980025783,379.96697980025783,379.96697980025783,379.96697980025783,380.2616797001101,380.2616797001101,381.80747719993815,381.80747719993815,381.80747719993815,381.80747719993815,381.80747719993815,381.80747719993815,381.80747719993815,381.80747719993815,381.80747719993815,381.80747719993815,381.80747719993815,381.80747719993815,381.80747719993815,381.80747719993815,381.80747719993815,381.80747719993815,381.80747719993815,384.31670270022005,384.31670270022005,384.31670270022005,384.31670270022005,384.31670270022005,71,57,63,73,63,65,4.0,0.9463777998462319,385.28081570006907,387.2256913003512,,,,,,,116,f,23,2022-12-11_15h26.16.798,RL,2022.2.4,60.00920546824139,
1,50,0,50,0,,,,,,,,,,None,387.2256913003512,387.2256913003512,387.2256913003512,387.2256913003512,387.2256913003512,387.2256913003512,j,0.2859118999913335,387.5436082999222,387.5436082999222,387.5436082999222,387.5436082999222,387.5436082999222,387.5436082999222,387.8411126001738,387.8411126001738,389.18746770033613,389.18746770033613,389.18746770033613,389.18746770033613,389.18746770033613,389.18746770033613,389.18746770033613,389.18746770033613,389.18746770033613,389.18746770033613,389.18746770033613,389.18746770033613,389.18746770033613,389.18746770033613,389.18746770033613,389.18746770033613,389.18746770033613,391.69645520020276,391.69645520020276,391.69645520020276,391.69645520020276,391.69645520020276,75,49,62,78,78,65,5.0,0.6965614999644458,392.4113941001706,394.0905663999729,,,,,,,116,f,23,2022-12-11_15h26.16.798,RL,2022.2.4,60.00920546824139,
1,51,0,51,0,,,,,,,,,,None,394.0905663999729,394.0905663999729,394.0905663999729,394.0905663999729,394.0905663999729,394.0905663999729,i,0.38404690008610487,394.5092176999897,394.5092176999897,394.5092176999897,394.5092176999897,394.5092176999897,394.5092176999897,394.8055785000324,394.8055785000324,396.65024030022323,396.65024030022323,396.65024030022323,396.65024030022323,396.65024030022323,396.65024030022323,396.65024030022323,396.65024030022323,396.65024030022323,396.65024030022323,396.65024030022323,396.65024030022323,396.65024030022323,396.65024030022323,396.65024030022323,396.65024030022323,396.65024030022323,399.1595128001645,399.1595128001645,399.1595128001645,399.1595128001645,399.1595128001645,81,52,55,82,55,55,4.0,0.5313444999046624,399.7077818000689,401.70307260006666,,,,,,,116,f,23,2022-12-11_15h26.16.798,RL,2022.2.4,60.00920546824139,
1,52,0,52,0,,,,,,,,,,None,401.70307260006666,401.70307260006666,401.70307260006666,401.70307260006666,401.70307260006666,401.70307260006666,i,0.28845390025526285,402.02216179994866,402.02216179994866,402.02216179994866,402.02216179994866,402.02216179994866,402.02216179994866,402.3184052002616,402.3184052002616,403.4487518002279,403.4487518002279,403.4651560001075,403.4651560001075,403.4651560001075,403.4651560001075,403.4651560001075,403.4651560001075,403.4651560001075,403.4651560001075,403.4651560001075,403.4651560001075,403.4651560001075,403.4651560001075,403.4651560001075,403.4651560001075,403.4651560001075,405.9741744999774,405.9741744999774,405.9741744999774,405.9741744999774,405.9741744999774,83,52,53,79,53,67,3.0,0.6310967998579144,406.62224130006507,408.1855168999173,,,,,,,116,f,23,2022-12-11_15h26.16.798,RL,2022.2.4,60.00920546824139,
1,53,0,53,0,,,,,,,,,,None,408.1855168999173,408.1855168999173,408.1855168999173,408.1855168999173,408.1855168999173,408.1855168999173,j,0.6834576004184783,408.90812910022214,408.90812910022214,408.90812910022214,408.90812910022214,408.90812910022214,408.90812910022214,409.1993792001158,409.1993792001158,410.4957412001677,410.4957412001677,410.51216370007023,410.51216370007023,410.51216370007023,410.51216370007023,410.51216370007023,410.51216370007023,410.51216370007023,410.51216370007023,410.51216370007023,410.51216370007023,410.51216370007023,410.51216370007023,410.51216370007023,410.51216370007023,410.51216370007023,413.0218361001462,413.0218361001462,413.0218361001462,413.0218361001462,413.0218361001462,78,53,48,82,82,68,5.0,0.9617914999835193,414.0024355002679,415.61522389994934,,,,,,,116,f,23,2022-12-11_15h26.16.798,RL,2022.2.4,60.00920546824139,
1,54,0,54,0,,,,,,,,,,None,415.61522389994934,415.61522389994934,415.61522389994934,415.61522389994934,415.61522389994934,415.61522389994934,i,0.306475100107491,415.9498442001641,415.9498442001641,415.9498442001641,415.9498442001641,415.9498442001641,415.9498442001641,416.24683260032907,416.24683260032907,417.57633760012686,417.57633760012686,417.57633760012686,417.57633760012686,417.57633760012686,417.57633760012686,417.57633760012686,417.57633760012686,417.57633760012686,417.57633760012686,417.57633760012686,417.57633760012686,417.57633760012686,417.57633760012686,417.57633760012686,417.57633760012686,417.57633760012686,420.0856221001595,420.0856221001595,420.0856221001595,420.0856221001595,420.0856221001595,79,49,53,83,53,56,4.0,0.945764500182122,421.0493842000142,422.57967060012743,,,,,,,116,f,23,2022-12-11_15h26.16.798,RL,2022.2.4,60.00920546824139,
1,55,0,55,0,,,,,,,,,,None,422.57967060012743,422.57967060012743,422.57967060012743,422.57967060012743,422.57967060012743,422.57967060012743,j,0.3253848999738693,422.9308478003368,422.9308478003368,422.9308478003368,422.9308478003368,422.9308478003368,422.9308478003368,423.22839630022645,423.22839630022645,424.17501759994775,424.17501759994775,424.17501759994775,424.17501759994775,424.17501759994775,424.17501759994775,424.17501759994775,424.17501759994775,424.17501759994775,424.17501759994775,424.17501759994775,424.17501759994775,424.17501759994775,424.17501759994775,424.17501759994775,424.17501759994775,424.17501759994775,426.6842132001184,426.6842132001184,426.6842132001184,426.6842132001184,426.6842132001184,78,53,57,74,74,55,5.0,0.6972194998525083,427.3988882000558,429.3773741000332,,,,,,,116,f,23,2022-12-11_15h26.16.798,RL,2022.2.4,60.00920546824139,
1,56,0,56,0,,,,,,,,,,None,429.3773741000332,429.3773741000332,429.3773741000332,429.3773741000332,429.3773741000332,429.3773741000332,i,0.3045819001272321,429.7128767003305,429.7128767003305,429.7128767003305,429.7128767003305,429.7128767003305,429.7128767003305,430.0092907999642,430.0092907999642,431.73797430004925,431.73797430004925,431.7545070000924,431.7545070000924,431.7545070000924,431.7545070000924,431.7545070000924,431.7545070000924,431.7545070000924,431.7545070000924,431.7545070000924,431.7545070000924,431.7545070000924,431.7545070000924,431.7545070000924,431.7545070000924,431.7545070000924,434.2637061001733,434.2637061001733,434.2637061001733,434.2637061001733,434.2637061001733,69,51,49,78,49,79,3.0,0.6635373998433352,434.9452116000466,436.7573955003172,,,,,,,116,f,23,2022-12-11_15h26.16.798,RL,2022.2.4,60.00920546824139,
1,57,0,57,0,,,,,,,,,,None,436.7573955003172,436.7573955003172,436.7573955003172,436.7573955003172,436.7573955003172,436.7573955003172,f,0.40120889991521835,437.1920982003212,437.1920982003212,437.1920982003212,437.1920982003212,437.1920982003212,437.1920982003212,437.4889679001644,437.4889679001644,439.416951500345,439.416951500345,439.416951500345,439.416951500345,439.416951500345,439.416951500345,439.416951500345,439.416951500345,439.416951500345,439.416951500345,439.416951500345,439.416951500345,439.416951500345,439.416951500345,439.416951500345,439.416951500345,439.416951500345,441.9260944002308,441.9260944002308,441.9260944002308,441.9260944002308,441.9260944002308,74,49,49,73,49,63,3.0,0.5140330996364355,442.4577870001085,444.0379436002113,,,,,,,116,f,23,2022-12-11_15h26.16.798,RL,2022.2.4,60.00920546824139,
1,58,0,58,0,,,,,,,,,,None,444.0379436002113,444.0379436002113,444.0379436002113,444.0379436002113,444.0379436002113,444.0379436002113,i,0.5478787999600172,444.62265740009025,444.62265740009025,444.62265740009025,444.62265740009025,444.62265740009025,444.62265740009025,444.9189841002226,444.9189841002226,446.83010180015117,446.83010180015117,446.84692430030555,446.84692430030555,446.84692430030555,446.84692430030555,446.84692430030555,446.84692430030555,446.84692430030555,446.84692430030555,446.84692430030555,446.84692430030555,446.84692430030555,446.84692430030555,446.84692430030555,446.84692430030555,446.84692430030555,449.35592900030315,449.35592900030315,449.35592900030315,449.35592900030315,449.35592900030315,69,55,50,74,50,69,3.0,0.46463429974392056,449.83778920024633,451.50072250002995,,,,,,,116,f,23,2022-12-11_15h26.16.798,RL,2022.2.4,60.00920546824139,
1,59,0,59,0,,,,,,,,,,None,451.50072250002995,451.50072250002995,451.50072250002995,451.50072250002995,451.50072250002995,451.50072250002995,i,0.31712500005960464,451.8500647000037,451.8500647000037,451.8500647000037,451.8500647000037,451.8500647000037,451.8500647000037,452.1489158999175,452.1489158999175,453.44530950021,453.44530950021,453.44530950021,453.44530950021,453.44530950021,453.44530950021,453.44530950021,453.44530950021,453.44530950021,453.44530950021,453.44530950021,453.44530950021,453.44530950021,453.44530950021,453.44530950021,453.44530950021,453.44530950021,455.9541947003454,455.9541947003454,455.9541947003454,455.9541947003454,455.9541947003454,61,48,67,73,67,57,5.0,0.6326721999794245,456.602512600366,458.2153304000385,,,,,,,116,f,23,2022-12-11_15h26.16.798,RL,2022.2.4,60.00920546824139,
1,60,0,60,0,,,,,,,,,,None,458.2153304000385,458.2153304000385,458.2153304000385,458.2153304000385,458.2153304000385,458.2153304000385,i,0.320811599958688,458.56542070023715,458.56542070023715,458.56542070023715,458.56542070023715,458.56542070023715,458.56542070023715,458.8642597999424,458.8642597999424,460.7756419000216,460.7756419000216,460.7756419000216,460.7756419000216,460.7756419000216,460.7756419000216,460.7756419000216,460.7756419000216,460.7756419000216,460.7756419000216,460.7756419000216,460.7756419000216,460.7756419000216,460.7756419000216,460.7756419000216,460.7756419000216,460.7756419000216,463.28462220029905,463.28462220029905,463.28462220029905,463.28462220029905,463.28462220029905,70,43,71,70,71,76,3.0,0.729748799931258,464.0324071999639,465.6450892002322,,,,,,,116,f,23,2022-12-11_15h26.16.798,RL,2022.2.4,60.00920546824139,
1,61,0,61,0,,,,,,,,,,None,465.6450892002322,465.6450892002322,465.6450892002322,465.6450892002322,465.6450892002322,465.6450892002322,r,0.36246149986982346,466.0292079001665,466.0292079001665,466.0292079001665,466.0292079001665,466.0292079001665,466.0292079001665,466.32733110012487,466.32733110012487,467.83950250037014,467.83950250037014,467.83950250037014,467.83950250037014,467.83950250037014,467.83950250037014,467.83950250037014,467.83950250037014,467.83950250037014,467.83950250037014,467.83950250037014,467.83950250037014,467.83950250037014,467.83950250037014,467.83950250037014,467.83950250037014,467.83950250037014,470.3484563003294,470.3484563003294,470.3484563003294,470.3484563003294,470.3484563003294,67,44,63,77,67,72,3.0,0.6641420000232756,471.02990610012785,472.74283190025017,,,,,,,116,f,23,2022-12-11_15h26.16.798,RL,2022.2.4,60.00920546824139,
1,62,0,62,0,,,,,,,,,,None,472.74283190025017,472.74283190025017,472.74283190025017,472.74283190025017,472.74283190025017,472.74283190025017,i,0.41723400028422475,473.19590810034424,473.19590810034424,473.19590810034424,473.19590810034424,473.19590810034424,473.19590810034424,473.4907674002461,473.4907674002461,474.8203859003261,474.8203859003261,474.8203859003261,474.8203859003261,474.8203859003261,474.8203859003261,474.8203859003261,474.8203859003261,474.8203859003261,474.8203859003261,474.8203859003261,474.8203859003261,474.8203859003261,474.8203859003261,474.8203859003261,474.8203859003261,474.8203859003261,477.329445600044,477.329445600044,477.329445600044,477.329445600044,477.329445600044,67,51,64,72,64,73,3.0,0.5147856003604829,477.8616400002502,479.42427980015054,,,,,,,116,f,23,2022-12-11_15h26.16.798,RL,2022.2.4,60.00920546824139,
1,63,0,63,0,,,,,,,,,,None,479.42427980015054,479.42427980015054,479.42427980015054,479.42427980015054,479.42427980015054,479.42427980015054,i,0.2998723997734487,479.759431200102,479.759431200102,479.759431200102,479.759431200102,479.759431200102,479.759431200102,480.05618780013174,480.05618780013174,481.2361996001564,481.2361996001564,481.2361996001564,481.2361996001564,481.2361996001564,481.2361996001564,481.2361996001564,481.2361996001564,481.2361996001564,481.2361996001564,481.2361996001564,481.2361996001564,481.2361996001564,481.2361996001564,481.2361996001564,481.2361996001564,481.2361996001564,483.74564940016717,483.74564940016717,483.74564940016717,483.74564940016717,483.74564940016717,71,56,55,76,55,66,3.0,0.548165800049901,484.3105105999857,485.90659500006586,,,,,,,116,f,23,2022-12-11_15h26.16.798,RL,2022.2.4,60.00920546824139,
1,64,0,64,0,,,,,,,,,,None,485.90659500006586,485.90659500006586,485.90659500006586,485.90659500006586,485.90659500006586,485.90659500006586,j,0.34933779994025826,486.29131510015577,486.29131510015577,486.29131510015577,486.29131510015577,486.29131510015577,486.29131510015577,486.5887742000632,486.5887742000632,487.76867850031704,487.76867850031704,487.78489130036905,487.78489130036905,487.78489130036905,487.78489130036905,487.78489130036905,487.78489130036905,487.78489130036905,487.78489130036905,487.78489130036905,487.78489130036905,487.78489130036905,487.78489130036905,487.78489130036905,487.78489130036905,487.78489130036905,490.2941701002419,490.2941701002419,490.2941701002419,490.2941701002419,490.2941701002419,70,49,64,87,87,60,5.0,0.7971421997062862,491.1085882000625,492.6718127001077,,,,,,,116,f,23,2022-12-11_15h26.16.798,RL,2022.2.4,60.00920546824139,
1,65,0,65,0,,,,,,,,,,None,492.6718127001077,492.6718127001077,492.6718127001077,492.6718127001077,492.6718127001077,492.6718127001077,j,0.29739260021597147,492.9910367000848,492.9910367000848,492.9910367000848,492.9910367000848,492.9910367000848,492.9910367000848,493.2870686999522,493.2870686999522,494.9987832000479,494.9987832000479,494.9987832000479,494.9987832000479,494.9987832000479,494.9987832000479,494.9987832000479,494.9987832000479,494.9987832000479,494.9987832000479,494.9987832000479,494.9987832000479,494.9987832000479,494.9987832000479,494.9987832000479,494.9987832000479,494.9987832000479,497.5079486002214,497.5079486002214,497.5079486002214,497.5079486002214,497.5079486002214,72,38,56,73,73,53,5.0,0.5640452997758985,498.0898077003658,499.63604170037434,,,,,,,116,f,23,2022-12-11_15h26.16.798,RL,2022.2.4,60.00920546824139,
1,66,0,66,0,,,,,,,,,,None,499.63604170037434,499.63604170037434,499.63604170037434,499.63604170037434,499.63604170037434,499.63604170037434,j,0.31021409993991256,499.9703083001077,499.9703083001077,499.9703083001077,499.9703083001077,499.9703083001077,499.9703083001077,500.2678032000549,500.2678032000549,501.82998130004853,501.82998130004853,501.82998130004853,501.82998130004853,501.82998130004853,501.82998130004853,501.82998130004853,501.82998130004853,501.82998130004853,501.82998130004853,501.82998130004853,501.82998130004853,501.82998130004853,501.82998130004853,501.82998130004853,501.82998130004853,501.82998130004853,504.33942480012774,504.33942480012774,504.33942480012774,504.33942480012774,504.33942480012774,74,33,60,67,67,63,5.0,0.6139615001156926,504.97057130001485,506.8992052003741,,,,,,,116,f,23,2022-12-11_15h26.16.798,RL,2022.2.4,60.00920546824139,
1,67,0,67,0,,,,,,,,,,None,506.8992052003741,506.8992052003741,506.8992052003741,506.8992052003741,506.8992052003741,506.8992052003741,j,0.31395519990473986,507.2345678000711,507.2345678000711,507.2345678000711,507.2345678000711,507.2345678000711,507.2345678000711,507.53123020008206,507.53123020008206,509.21019360003993,509.21019360003993,509.21019360003993,509.21019360003993,509.21019360003993,509.21019360003993,509.21019360003993,509.21019360003993,509.21019360003993,509.21019360003993,509.21019360003993,509.21019360003993,509.21019360003993,509.21019360003993,509.21019360003993,509.21019360003993,509.21019360003993,511.7191423000768,511.7191423000768,511.7191423000768,511.7191423000768,511.7191423000768,71,48,43,75,75,66,5.0,0.4639018001034856,512.2012085001916,513.714300500229,,,,,,,116,f,23,2022-12-11_15h26.16.798,RL,2022.2.4,60.00920546824139,
1,68,0,68,0,,,,,,,,,,None,513.714300500229,513.714300500229,513.714300500229,513.714300500229,513.714300500229,513.714300500229,j,0.3516202997416258,514.0988381002098,514.0988381002098,514.0988381002098,514.0988381002098,514.0988381002098,514.0988381002098,514.3960731001571,514.3960731001571,515.509240699932,515.509240699932,515.509240699932,515.509240699932,515.509240699932,515.509240699932,515.509240699932,515.509240699932,515.509240699932,515.509240699932,515.509240699932,515.509240699932,515.509240699932,515.509240699932,515.509240699932,515.509240699932,515.509240699932,518.0185058000498,518.0185058000498,518.0185058000498,518.0185058000498,518.0185058000498,54,43,50,74,74,65,5.0,0.44791539991274476,518.4842598000541,520.2461832999252,,,,,,,116,f,23,2022-12-11_15h26.16.798,RL,2022.2.4,60.00920546824139,
1,69,0,69,0,,,,,,,,,,None,520.2461832999252,520.2461832999252,520.2461832999252,520.2461832999252,520.2461832999252,520.2461832999252,j,0.3273387001827359,520.5975255002268,520.5975255002268,520.5975255002268,520.5975255002268,520.5975255002268,520.5975255002268,520.8946289001033,520.8946289001033,522.1084799002856,522.1084799002856,522.1084799002856,522.1084799002856,522.1084799002856,522.1084799002856,522.1084799002856,522.1084799002856,522.1084799002856,522.1084799002856,522.1084799002856,522.1084799002856,522.1084799002856,522.1084799002856,522.1084799002856,522.1084799002856,522.1084799002856,524.6171572003514,524.6171572003514,524.6171572003514,524.6171572003514,524.6171572003514,71,48,58,74,74,67,5.0,0.5966950999572873,525.2323364000767,527.0280452002771,,,,,,,116,f,23,2022-12-11_15h26.16.798,RL,2022.2.4,60.00920546824139,
1,70,0,70,0,,,,,,,,,,None,527.0280452002771,527.0280452002771,527.0280452002771,527.0280452002771,527.0280452002771,527.0280452002771,j,0.2631252999417484,527.3133034999482,527.3133034999482,527.3133034999482,527.3133034999482,527.3133034999482,527.3133034999482,527.6100448002107,527.6100448002107,528.8563998001628,528.8563998001628,528.8563998001628,528.8563998001628,528.8563998001628,528.8563998001628,528.8563998001628,528.8563998001628,528.8563998001628,528.8563998001628,528.8563998001628,528.8563998001628,528.8563998001628,528.8563998001628,528.8563998001628,528.8563998001628,528.8563998001628,531.3657663003542,531.3657663003542,531.3657663003542,531.3657663003542,531.3657663003542,57,53,55,78,78,48,5.0,0.4319404000416398,531.8140781000257,533.776301600039,,,,,,,116,f,23,2022-12-11_15h26.16.798,RL,2022.2.4,60.00920546824139,
1,71,0,71,0,,,,,,,,,,None,533.776301600039,533.776301600039,533.776301600039,533.776301600039,533.776301600039,533.776301600039,j,0.3082001996226609,534.1136251999997,534.1136251999997,534.1136251999997,534.1136251999997,534.1136251999997,534.1136251999997,534.4082432999276,534.4082432999276,535.6380664003082,535.6380664003082,535.6542762001045,535.6542762001045,535.6542762001045,535.6542762001045,535.6542762001045,535.6542762001045,535.6542762001045,535.6542762001045,535.6542762001045,535.6542762001045,535.6542762001045,535.6542762001045,535.6542762001045,535.6542762001045,535.6542762001045,538.1637162002735,538.1637162002735,538.1637162002735,538.1637162002735,538.1637162002735,59,52,60,75,75,74,5.0,0.4475903999991715,538.6290146000683,540.5741052003577,,,,,,,116,f,23,2022-12-11_15h26.16.798,RL,2022.2.4,60.00920546824139,
1,72,0,72,0,,,,,,,,,,None,540.5741052003577,540.5741052003577,540.5741052003577,540.5741052003577,540.5741052003577,540.5741052003577,j,0.2875033002346754,540.89254479995,540.89254479995,540.89254479995,540.89254479995,540.89254479995,540.89254479995,541.1894448003732,541.1894448003732,542.4859903999604,542.4859903999604,542.4859903999604,542.4859903999604,542.4859903999604,542.4859903999604,542.4859903999604,542.4859903999604,542.4859903999604,542.4859903999604,542.4859903999604,542.4859903999604,542.4859903999604,542.4859903999604,542.4859903999604,542.4859903999604,542.4859903999604,544.9947655000724,544.9947655000724,544.9947655000724,544.9947655000724,544.9947655000724,64,58,53,79,79,65,5.0,0.48125620000064373,545.4937721001916,547.2392188999802,,,,,,,116,f,23,2022-12-11_15h26.16.798,RL,2022.2.4,60.00920546824139,
1,73,0,73,0,,,,,,,,,,None,547.2392188999802,547.2392188999802,547.2392188999802,547.2392188999802,547.2392188999802,547.2392188999802,j,0.31533849984407425,547.5918916999362,547.5918916999362,547.5918916999362,547.5918916999362,547.5918916999362,547.5918916999362,547.8877294003032,547.8877294003032,549.5996457999572,549.5996457999572,549.5996457999572,549.5996457999572,549.5996457999572,549.5996457999572,549.5996457999572,549.5996457999572,549.5996457999572,549.5996457999572,549.5996457999572,549.5996457999572,549.5996457999572,549.5996457999572,549.5996457999572,549.5996457999572,549.5996457999572,552.1091398000717,552.1091398000717,552.1091398000717,552.1091398000717,552.1091398000717,60,57,56,68,68,73,3.0,0.714017799589783,552.84040310001,554.5529354000464,,,,,,,116,f,23,2022-12-11_15h26.16.798,RL,2022.2.4,60.00920546824139,
1,74,0,74,0,,,,,,,,,,None,554.5529354000464,554.5529354000464,554.5529354000464,554.5529354000464,554.5529354000464,554.5529354000464,j,0.27357720024883747,554.8540457002819,554.8540457002819,554.8540457002819,554.8540457002819,554.8540457002819,554.8540457002819,555.1512824003585,555.1512824003585,556.9297394999303,556.9297394999303,556.9297394999303,556.9297394999303,556.9297394999303,556.9297394999303,556.9297394999303,556.9297394999303,556.9297394999303,556.9297394999303,556.9297394999303,556.9297394999303,556.9297394999303,556.9297394999303,556.9297394999303,556.9297394999303,556.9297394999303,559.4388942001387,559.4388942001387,559.4388942001387,559.4388942001387,559.4388942001387,55,53,60,74,74,61,5.0,0.581595600116998,560.0368942003697,561.982076600194,,,,,,,116,f,23,2022-12-11_15h26.16.798,RL,2022.2.4,60.00920546824139,
1,75,0,75,0,,,,,,,,,,q,602.2228550999425,602.2228550999425,602.2228550999425,602.2228550999425,602.2228550999425,602.2228550999425,j,0.7323507997207344,602.9909860002808,602.9909860002808,602.9909860002808,602.9909860002808,602.9909860002808,602.9909860002808,603.2866376000457,603.2866376000457,604.4004922001623,604.4004922001623,604.4004922001623,604.4004922001623,604.4004922001623,604.4004922001623,604.4004922001623,604.4004922001623,604.4004922001623,604.4004922001623,604.4004922001623,604.4004922001623,604.4004922001623,604.4004922001623,604.4004922001623,604.4004922001623,604.4004922001623,606.9093623999506,606.9093623999506,606.9093623999506,606.9093623999506,606.9093623999506,55,59,47,62,62,79,3.0,0.5971356998197734,607.5241674999706,609.0539386002347,561.982076600194,561.982076600194,40.21400350006297,,,,116,f,23,2022-12-11_15h26.16.798,RL,2022.2.4,60.00920546824139,
1,76,0,76,0,,,,,,,,,,None,609.0539386002347,609.0539386002347,609.0539386002347,609.0539386002347,609.0539386002347,609.0539386002347,j,0.3094176999293268,609.3893757001497,609.3893757001497,609.3893757001497,609.3893757001497,609.3893757001497,609.3893757001497,609.686140100006,609.686140100006,611.464572200086,611.464572200086,611.464572200086,611.464572200086,611.464572200086,611.464572200086,611.464572200086,611.464572200086,611.464572200086,611.464572200086,611.464572200086,611.464572200086,611.464572200086,611.464572200086,611.464572200086,611.464572200086,611.464572200086,613.9735938999802,613.9735938999802,613.9735938999802,613.9735938999802,613.9735938999802,65,60,53,60,60,81,3.0,0.4481073999777436,614.4389177002013,616.2843240001239,,,,,,,116,f,23,2022-12-11_15h26.16.798,RL,2022.2.4,60.00920546824139,
1,77,0,77,0,,,,,,,,,,None,616.2843240001239,616.2843240001239,616.2843240001239,616.2843240001239,616.2843240001239,616.2843240001239,i,0.3962368001230061,616.7027378999628,616.7027378999628,616.7027378999628,616.7027378999628,616.7027378999628,616.7027378999628,616.9990543001331,616.9990543001331,618.4621429000981,618.4621429000981,618.4621429000981,618.4621429000981,618.4621429000981,618.4621429000981,618.4621429000981,618.4621429000981,618.4621429000981,618.4621429000981,618.4621429000981,618.4621429000981,618.4621429000981,618.4621429000981,618.4621429000981,618.4621429000981,618.4621429000981,620.9712045001797,620.9712045001797,620.9712045001797,620.9712045001797,620.9712045001797,56,62,49,61,49,73,3.0,0.5304780998267233,621.5196853000671,623.3649126002565,,,,,,,116,f,23,2022-12-11_15h26.16.798,RL,2022.2.4,60.00920546824139,
1,78,0,78,0,,,,,,,,,,None,623.3649126002565,623.3649126002565,623.3649126002565,623.3649126002565,623.3649126002565,623.3649126002565,f,0.292361699976027,623.6866434002295,623.6866434002295,623.6866434002295,623.6866434002295,623.6866434002295,623.6866434002295,623.980024700053,623.980024700053,625.5590377002954,625.5590377002954,625.5755691002123,625.5755691002123,625.5755691002123,625.5755691002123,625.5755691002123,625.5755691002123,625.5755691002123,625.5755691002123,625.5755691002123,625.5755691002123,625.5755691002123,625.5755691002123,625.5755691002123,625.5755691002123,625.5755691002123,628.0849251002073,628.0849251002073,628.0849251002073,628.0849251002073,628.0849251002073,60,63,56,60,63,70,3.0,0.46674529975280166,628.5666002002545,630.1301074000075,,,,,,,116,f,23,2022-12-11_15h26.16.798,RL,2022.2.4,60.00920546824139,
1,79,0,79,0,,,,,,,,,,None,630.1301074000075,630.1301074000075,630.1301074000075,630.1301074000075,630.1301074000075,630.1301074000075,r,0.2796394000761211,630.433226400055,630.433226400055,630.433226400055,630.433226400055,630.433226400055,630.433226400055,630.7283113999292,630.7283113999292,632.5900918999687,632.5900918999687,632.5900918999687,632.5900918999687,632.5900918999687,632.5900918999687,632.5900918999687,632.5900918999687,632.5900918999687,632.5900918999687,632.5900918999687,632.5900918999687,632.5900918999687,632.5900918999687,632.5900918999687,632.5900918999687,632.5900918999687,635.0992548000067,635.0992548000067,635.0992548000067,635.0992548000067,635.0992548000067,63,65,45,56,63,45,3.0,0.5967325000092387,635.7138613001443,637.4267404000275,,,,,,,116,f,23,2022-12-11_15h26.16.798,RL,2022.2.4,60.00920546824139,
1,80,0,80,0,,,,,,,,,,None,637.4267404000275,637.4267404000275,637.4267404000275,637.4267404000275,637.4267404000275,637.4267404000275,r,0.4747615000233054,637.9282249002717,637.9282249002717,637.9282249002717,637.9282249002717,637.9282249002717,637.9282249002717,638.2246671002358,638.2246671002358,639.4213761999272,639.4213761999272,639.4213761999272,639.4213761999272,639.4213761999272,639.4213761999272,639.4213761999272,639.4213761999272,639.4213761999272,639.4213761999272,639.4213761999272,639.4213761999272,639.4213761999272,639.4213761999272,639.4213761999272,639.4213761999272,639.4213761999272,641.930802100338,641.930802100338,641.930802100338,641.930802100338,641.930802100338,57,60,38,54,57,63,3.0,0.482026900164783,642.4289657999761,643.9423486003652,,,,,,,116,f,23,2022-12-11_15h26.16.798,RL,2022.2.4,60.00920546824139,
1,81,0,81,0,,,,,,,,,,None,643.9423486003652,643.9423486003652,643.9423486003652,643.9423486003652,643.9423486003652,643.9423486003652,r,0.3769803000614047,644.3434765003622,644.3434765003622,644.3434765003622,644.3434765003622,644.3434765003622,644.3434765003622,644.6405506003648,644.6405506003648,645.4548283000477,645.4548283000477,645.4548283000477,645.4548283000477,645.4548283000477,645.4548283000477,645.4548283000477,645.4548283000477,645.4548283000477,645.4548283000477,645.4548283000477,645.4548283000477,645.4548283000477,645.4548283000477,645.4548283000477,645.4548283000477,645.4548283000477,647.9639429003,647.9639429003,647.9639429003,647.9639429003,647.9639429003,50,61,40,61,50,71,3.0,0.49719240004196763,648.4791665002704,650.0087989000604,,,,,,,116,f,23,2022-12-11_15h26.16.798,RL,2022.2.4,60.00920546824139,
1,82,0,82,0,,,,,,,,,,None,650.0087989000604,650.0087989000604,650.0087989000604,650.0087989000604,650.0087989000604,650.0087989000604,r,0.29908329993486404,650.3276816001162,650.3276816001162,650.3276816001162,650.3276816001162,650.3276816001162,650.3276816001162,650.6246919003315,650.6246919003315,651.7879833001643,651.7879833001643,651.8043643999845,651.8043643999845,651.8043643999845,651.8043643999845,651.8043643999845,651.8043643999845,651.8043643999845,651.8043643999845,651.8043643999845,651.8043643999845,651.8043643999845,651.8043643999845,651.8043643999845,651.8043643999845,651.8043643999845,654.3133001001552,654.3133001001552,654.3133001001552,654.3133001001552,654.3133001001552,56,70,41,60,56,62,3.0,0.6160303000360727,654.94501330005,656.6245132000186,,,,,,,116,f,23,2022-12-11_15h26.16.798,RL,2022.2.4,60.00920546824139,
1,83,0,83,0,,,,,,,,,,None,656.6245132000186,656.6245132000186,656.6245132000186,656.6245132000186,656.6245132000186,656.6245132000186,f,0.4414309002459049,657.09171529999,657.09171529999,657.09171529999,657.09171529999,657.09171529999,657.09171529999,657.3888027002104,657.3888027002104,659.3338370001875,659.3338370001875,659.3338370001875,659.3338370001875,659.3338370001875,659.3338370001875,659.3338370001875,659.3338370001875,659.3338370001875,659.3338370001875,659.3338370001875,659.3338370001875,659.3338370001875,659.3338370001875,659.3338370001875,659.3338370001875,659.3338370001875,661.842619500123,661.842619500123,661.842619500123,661.842619500123,661.842619500123,59,60,44,67,60,49,4.0,1.146207599900663,663.0063971001655,664.851724000182,,,,,,,116,f,23,2022-12-11_15h26.16.798,RL,2022.2.4,60.00920546824139,
1,84,0,84,0,,,,,,,,,,None,664.851724000182,664.851724000182,664.851724000182,664.851724000182,664.851724000182,664.851724000182,f,0.28106030030176044,665.1522690001875,665.1522690001875,665.1522690001875,665.1522690001875,665.1522690001875,665.1522690001875,665.4505302999169,665.4505302999169,666.6971094002947,666.6971094002947,666.6971094002947,666.6971094002947,666.6971094002947,666.6971094002947,666.6971094002947,666.6971094002947,666.6971094002947,666.6971094002947,666.6971094002947,666.6971094002947,666.6971094002947,666.6971094002947,666.6971094002947,666.6971094002947,666.6971094002947,669.2056264001876,669.2056264001876,669.2056264001876,669.2056264001876,669.2056264001876,65,57,43,66,57,67,3.0,0.5327328001148999,669.7544161002152,671.7329632001929,,,,,,,116,f,23,2022-12-11_15h26.16.798,RL,2022.2.4,60.00920546824139,
1,85,0,85,0,,,,,,,,,,None,671.7329632001929,671.7329632001929,671.7329632001929,671.7329632001929,671.7329632001929,671.7329632001929,i,0.36672900011762977,672.1351566002704,672.1351566002704,672.1351566002704,672.1351566002704,672.1351566002704,672.1351566002704,672.431559999939,672.431559999939,674.3264240999706,674.3264240999706,674.3427520999685,674.3427520999685,674.3427520999685,674.3427520999685,674.3427520999685,674.3427520999685,674.3427520999685,674.3427520999685,674.3427520999685,674.3427520999685,674.3427520999685,674.3427520999685,674.3427520999685,674.3427520999685,674.3427520999685,676.8519540000707,676.8519540000707,676.8519540000707,676.8519540000707,676.8519540000707,54,64,41,55,41,55,3.0,0.44759649969637394,677.3175209001638,678.896535300184,,,,,,,116,f,23,2022-12-11_15h26.16.798,RL,2022.2.4,60.00920546824139,
1,86,0,86,0,,,,,,,,,,None,678.896535300184,678.896535300184,678.896535300184,678.896535300184,678.896535300184,678.896535300184,f,0.3761430000886321,679.2985380999744,679.2985380999744,679.2985380999744,679.2985380999744,679.2985380999744,679.2985380999744,679.595136300195,679.595136300195,681.274451599922,681.274451599922,681.274451599922,681.274451599922,681.274451599922,681.274451599922,681.274451599922,681.274451599922,681.274451599922,681.274451599922,681.274451599922,681.274451599922,681.274451599922,681.274451599922,681.274451599922,681.274451599922,681.274451599922,683.7833028002642,683.7833028002642,683.7833028002642,683.7833028002642,683.7833028002642,48,51,45,55,51,68,3.0,0.3980260998941958,684.1984198000282,685.7447077999823,,,,,,,116,f,23,2022-12-11_15h26.16.798,RL,2022.2.4,60.00920546824139,
1,87,0,87,0,,,,,,,,,,None,685.7447077999823,685.7447077999823,685.7447077999823,685.7447077999823,685.7447077999823,685.7447077999823,j,0.29059069976210594,686.063230200205,686.063230200205,686.063230200205,686.063230200205,686.063230200205,686.063230200205,686.3601691001095,686.3601691001095,687.2745031001978,687.2745031001978,687.2745031001978,687.2745031001978,687.2745031001978,687.2745031001978,687.2745031001978,687.2745031001978,687.2745031001978,687.2745031001978,687.2745031001978,687.2745031001978,687.2745031001978,687.2745031001978,687.2745031001978,687.2745031001978,687.2745031001978,689.7835548003204,689.7835548003204,689.7835548003204,689.7835548003204,689.7835548003204,54,47,48,60,60,63,3.0,0.6305875000543892,690.4315642002039,692.2605085000396,,,,,,,116,f,23,2022-12-11_15h26.16.798,RL,2022.2.4,60.00920546824139,
1,88,0,88,0,,,,,,,,,,None,692.2605085000396,692.2605085000396,692.2605085000396,692.2605085000396,692.2605085000396,692.2605085000396,j,0.3578146998770535,692.6457577999681,692.6457577999681,692.6457577999681,692.6457577999681,692.6457577999681,692.6457577999681,692.942427800037,692.942427800037,694.1554952003062,694.1554952003062,694.1554952003062,694.1554952003062,694.1554952003062,694.1554952003062,694.1554952003062,694.1554952003062,694.1554952003062,694.1554952003062,694.1554952003062,694.1554952003062,694.1554952003062,694.1554952003062,694.1554952003062,694.1554952003062,694.1554952003062,696.6646619001403,696.6646619001403,696.6646619001403,696.6646619001403,696.6646619001403,47,58,40,67,67,42,5.0,0.5968645000830293,697.2792704999447,699.2579709999263,,,,,,,116,f,23,2022-12-11_15h26.16.798,RL,2022.2.4,60.00920546824139,
1,89,0,89,0,,,,,,,,,,None,699.2579709999263,699.2579709999263,699.2579709999263,699.2579709999263,699.2579709999263,699.2579709999263,j,0.30783060006797314,699.5919960001484,699.5919960001484,699.5919960001484,699.5919960001484,699.5919960001484,699.5919960001484,699.8899821001105,699.8899821001105,701.7515761000104,701.7515761000104,701.7515761000104,701.7515761000104,701.7515761000104,701.7515761000104,701.7515761000104,701.7515761000104,701.7515761000104,701.7515761000104,701.7515761000104,701.7515761000104,701.7515761000104,701.7515761000104,701.7515761000104,701.7515761000104,701.7515761000104,704.2606836003251,704.2606836003251,704.2606836003251,704.2606836003251,704.2606836003251,59,46,43,57,57,34,5.0,0.4477709997445345,704.725906000007,706.4880614001304,,,,,,,116,f,23,2022-12-11_15h26.16.798,RL,2022.2.4,60.00920546824139,
1,90,0,90,0,,,,,,,,,,None,706.4880614001304,706.4880614001304,706.4880614001304,706.4880614001304,706.4880614001304,706.4880614001304,j,0.3100556996650994,706.8232837002724,706.8232837002724,706.8232837002724,706.8232837002724,706.8232837002724,706.8232837002724,707.119945100043,707.119945100043,708.2171857999638,708.2171857999638,708.2171857999638,708.2171857999638,708.2171857999638,708.2171857999638,708.2171857999638,708.2171857999638,708.2171857999638,708.2171857999638,708.2171857999638,708.2171857999638,708.2171857999638,708.2171857999638,708.2171857999638,708.2171857999638,708.2171857999638,710.7263495000079,710.7263495000079,710.7263495000079,710.7263495000079,710.7263495000079,61,51,38,60,60,55,5.0,0.4971308000385761,711.2415042002685,713.0870134001598,,,,,,,116,f,23,2022-12-11_15h26.16.798,RL,2022.2.4,60.00920546824139,
1,91,0,91,0,,,,,,,,,,None,713.0870134001598,713.0870134001598,713.0870134001598,713.0870134001598,713.0870134001598,713.0870134001598,j,0.3500922000966966,713.474262600299,713.474262600299,713.474262600299,713.474262600299,713.474262600299,713.474262600299,713.7684928001836,713.7684928001836,714.6163316001184,714.6163316001184,714.6163316001184,714.6163316001184,714.6163316001184,714.6163316001184,714.6163316001184,714.6163316001184,714.6163316001184,714.6163316001184,714.6163316001184,714.6163316001184,714.6163316001184,714.6163316001184,714.6163316001184,714.6163316001184,714.6163316001184,717.1256890003569,717.1256890003569,717.1256890003569,717.1256890003569,717.1256890003569,58,42,39,55,55,55,5.0,0.4808569001033902,717.6238891002722,719.3200818002224,,,,,,,116,f,23,2022-12-11_15h26.16.798,RL,2022.2.4,60.00920546824139,
1,92,0,92,0,,,,,,,,,,None,719.3200818002224,719.3200818002224,719.3200818002224,719.3200818002224,719.3200818002224,719.3200818002224,j,0.33906689984723926,719.6866020001471,719.6866020001471,719.6866020001471,719.6866020001471,719.6866020001471,719.6866020001471,719.9848847999237,719.9848847999237,720.998744700104,720.998744700104,721.0155382002704,721.0155382002704,721.0155382002704,721.0155382002704,721.0155382002704,721.0155382002704,721.0155382002704,721.0155382002704,721.0155382002704,721.0155382002704,721.0155382002704,721.0155382002704,721.0155382002704,721.0155382002704,721.0155382002704,723.5246199001558,723.5246199001558,723.5246199001558,723.5246199001558,723.5246199001558,65,44,47,50,50,65,3.0,0.5146643999032676,724.0563370003365,725.8523719003424,,,,,,,116,f,23,2022-12-11_15h26.16.798,RL,2022.2.4,60.00920546824139,
1,93,0,93,0,,,,,,,,,,None,725.8523719003424,725.8523719003424,725.8523719003424,725.8523719003424,725.8523719003424,725.8523719003424,i,0.27481089998036623,726.1543600000441,726.1543600000441,726.1543600000441,726.1543600000441,726.1543600000441,726.1543600000441,726.4505144003779,726.4505144003779,728.4450145000592,728.4450145000592,728.4620810002089,728.4620810002089,728.4620810002089,728.4620810002089,728.4620810002089,728.4620810002089,728.4620810002089,728.4620810002089,728.4620810002089,728.4620810002089,728.4620810002089,728.4620810002089,728.4620810002089,728.4620810002089,728.4620810002089,730.9709558002651,730.9709558002651,730.9709558002651,730.9709558002651,730.9709558002651,59,47,37,50,37,54,3.0,0.4493745998479426,731.4363550003618,733.0659769000486,,,,,,,116,f,23,2022-12-11_15h26.16.798,RL,2022.2.4,60.00920546824139,
1,94,0,94,0,,,,,,,,,,None,733.0659769000486,733.0659769000486,733.0659769000486,733.0659769000486,733.0659769000486,733.0659769000486,r,0.3207292999140918,733.4177991002798,733.4177991002798,733.4177991002798,733.4177991002798,733.4177991002798,733.4177991002798,733.7142822002061,733.7142822002061,735.3266173000447,735.3266173000447,735.3266173000447,735.3266173000447,735.3266173000447,735.3266173000447,735.3266173000447,735.3266173000447,735.3266173000447,735.3266173000447,735.3266173000447,735.3266173000447,735.3266173000447,735.3266173000447,735.3266173000447,735.3266173000447,735.3266173000447,737.8357572001405,737.8357572001405,737.8357572001405,737.8357572001405,737.8357572001405,56,45,44,48,56,53,5.0,0.6967362998984754,738.5500014000572,740.4624201999977,,,,,,,116,f,23,2022-12-11_15h26.16.798,RL,2022.2.4,60.00920546824139,
1,95,0,95,0,,,,,,,,,,None,740.4624201999977,740.4624201999977,740.4624201999977,740.4624201999977,740.4624201999977,740.4624201999977,r,0.2942281002178788,740.7798701003194,740.7798701003194,740.7798701003194,740.7798701003194,740.7798701003194,740.7798701003194,741.0773108000867,741.0773108000867,741.9583931001835,741.9583931001835,741.9583931001835,741.9583931001835,741.9583931001835,741.9583931001835,741.9583931001835,741.9583931001835,741.9583931001835,741.9583931001835,741.9583931001835,741.9583931001835,741.9583931001835,741.9583931001835,741.9583931001835,741.9583931001835,741.9583931001835,744.4673848999664,744.4673848999664,744.4673848999664,744.4673848999664,744.4673848999664,49,41,57,46,49,60,5.0,0.5640166001394391,745.048675800208,746.994180700276,,,,,,,116,f,23,2022-12-11_15h26.16.798,RL,2022.2.4,60.00920546824139,
1,96,0,96,0,,,,,,,,,,None,746.994180700276,746.994180700276,746.994180700276,746.994180700276,746.994180700276,746.994180700276,r,0.2508422997780144,747.2798602003604,747.2798602003604,747.2798602003604,747.2798602003604,747.2798602003604,747.2798602003604,747.576146400068,747.576146400068,749.1055946000852,749.1055946000852,749.1055946000852,749.1055946000852,749.1055946000852,749.1055946000852,749.1055946000852,749.1055946000852,749.1055946000852,749.1055946000852,749.1055946000852,749.1055946000852,749.1055946000852,749.1055946000852,749.1055946000852,749.1055946000852,749.1055946000852,751.6146263000555,751.6146263000555,751.6146263000555,751.6146263000555,751.6146263000555,62,41,53,49,62,59,5.0,0.41351470025256276,752.0464566000737,753.7092054001987,,,,,,,116,f,23,2022-12-11_15h26.16.798,RL,2022.2.4,60.00920546824139,
1,97,0,97,0,,,,,,,,,,None,753.7092054001987,753.7092054001987,753.7092054001987,753.7092054001987,753.7092054001987,753.7092054001987,r,0.26414999971166253,753.9933458999731,753.9933458999731,753.9933458999731,753.9933458999731,753.9933458999731,753.9933458999731,754.2915048999712,754.2915048999712,755.9368118001148,755.9368118001148,755.9368118001148,755.9368118001148,755.9368118001148,755.9368118001148,755.9368118001148,755.9368118001148,755.9368118001148,755.9368118001148,755.9368118001148,755.9368118001148,755.9368118001148,755.9368118001148,755.9368118001148,755.9368118001148,755.9368118001148,758.4458543001674,758.4458543001674,758.4458543001674,758.4458543001674,758.4458543001674,49,43,49,36,49,49,5.0,0.46463089995086193,758.9280697000213,760.8729497999884,,,,,,,116,f,23,2022-12-11_15h26.16.798,RL,2022.2.4,60.00920546824139,
1,98,0,98,0,,,,,,,,,,None,760.8729497999884,760.8729497999884,760.8729497999884,760.8729497999884,760.8729497999884,760.8729497999884,r,0.27275050012394786,761.1741524003446,761.1741524003446,761.1741524003446,761.1741524003446,761.1741524003446,761.1741524003446,761.4718194003217,761.4718194003217,762.8680869000964,762.8680869000964,762.8680869000964,762.8680869000964,762.8680869000964,762.8680869000964,762.8680869000964,762.8680869000964,762.8680869000964,762.8680869000964,762.8680869000964,762.8680869000964,762.8680869000964,762.8680869000964,762.8680869000964,762.8680869000964,762.8680869000964,765.3768792999908,765.3768792999908,765.3768792999908,765.3768792999908,765.3768792999908,62,43,51,42,62,57,5.0,0.5320296003483236,765.9254559003748,767.8374685002491,,,,,,,116,f,23,2022-12-11_15h26.16.798,RL,2022.2.4,60.00920546824139,
1,99,0,99,0,,,,,,,,,,None,767.8374685002491,767.8374685002491,767.8374685002491,767.8374685002491,767.8374685002491,767.8374685002491,r,0.3005348998121917,768.1747622000985,768.1747622000985,768.1747622000985,768.1747622000985,768.1747622000985,768.1747622000985,768.4692301000468,768.4692301000468,770.2979446002282,770.2979446002282,770.3142405003309,770.3142405003309,770.3142405003309,770.3142405003309,770.3142405003309,770.3142405003309,770.3142405003309,770.3142405003309,770.3142405003309,770.3142405003309,770.3142405003309,770.3142405003309,770.3142405003309,770.3142405003309,770.3142405003309,772.8233171002939,772.8233171002939,772.8233171002939,772.8233171002939,772.8233171002939,43,39,42,35,43,56,5.0,0.5306369001045823,773.3719457001425,775.317185500171,,,,,,,116,f,23,2022-12-11_15h26.16.798,RL,2022.2.4,60.00920546824139,
1,100,0,100,0,,,,,,,,,,None,775.317185500171,775.317185500171,775.317185500171,775.317185500171,775.317185500171,775.317185500171,r,0.2528764000162482,775.6025402001105,775.6025402001105,775.6025402001105,775.6025402001105,775.6025402001105,775.6025402001105,775.8991058003157,775.8991058003157,777.394837200176,777.394837200176,777.394837200176,777.394837200176,777.394837200176,777.394837200176,777.394837200176,777.394837200176,777.394837200176,777.394837200176,777.394837200176,777.394837200176,777.394837200176,777.394837200176,777.394837200176,777.394837200176,777.394837200176,779.9040662003681,779.9040662003681,779.9040662003681,779.9040662003681,779.9040662003681,47,26,42,42,47,47,5.0,0.5144011001102626,780.4358252002858,782.0986834000796,,,,,,,116,f,23,2022-12-11_15h26.16.798,RL,2022.2.4,60.00920546824139,
1,101,0,101,0,,,,,,,,,,None,782.0986834000796,782.0986834000796,782.0986834000796,782.0986834000796,782.0986834000796,782.0986834000796,f,0.3306837002746761,782.4498121002689,782.4498121002689,782.4498121002689,782.4498121002689,782.4498121002689,782.4498121002689,782.7468830002472,782.7468830002472,784.724950700067,784.724950700067,784.724950700067,784.724950700067,784.724950700067,784.724950700067,784.724950700067,784.724950700067,784.724950700067,784.724950700067,784.724950700067,784.724950700067,784.724950700067,784.724950700067,784.724950700067,784.724950700067,784.724950700067,787.2339097000659,787.2339097000659,787.2339097000659,787.2339097000659,787.2339097000659,51,39,40,49,39,55,5.0,0.5633271997794509,787.8158885999583,789.7113330001011,,,,,,,116,f,23,2022-12-11_15h26.16.798,RL,2022.2.4,60.00920546824139,
1,102,0,102,0,,,,,,,,,,None,789.7113330001011,789.7113330001011,789.7113330001011,789.7113330001011,789.7113330001011,789.7113330001011,j,0.298895999789238,790.0445032003336,790.0445032003336,790.0445032003336,790.0445032003336,790.0445032003336,790.0445032003336,790.3429413000122,790.3429413000122,791.2405473003164,791.2405473003164,791.2569272001274,791.2569272001274,791.2569272001274,791.2569272001274,791.2569272001274,791.2569272001274,791.2569272001274,791.2569272001274,791.2569272001274,791.2569272001274,791.2569272001274,791.2569272001274,791.2569272001274,791.2569272001274,791.2569272001274,793.7660372001119,793.7660372001119,793.7660372001119,793.7660372001119,793.7660372001119,48,37,44,47,47,19,5.0,0.4973238999955356,794.2816754002124,795.8113416000269,,,,,,,116,f,23,2022-12-11_15h26.16.798,RL,2022.2.4,60.00920546824139,
1,103,0,103,0,,,,,,,,,,None,795.8113416000269,795.8113416000269,795.8113416000269,795.8113416000269,795.8113416000269,795.8113416000269,j,0.32212929986417294,796.1627349001355,796.1627349001355,796.1627349001355,796.1627349001355,796.1627349001355,796.1627349001355,796.4596196003258,796.4596196003258,798.1217674999498,798.1217674999498,798.1217674999498,798.1217674999498,798.1217674999498,798.1217674999498,798.1217674999498,798.1217674999498,798.1217674999498,798.1217674999498,798.1217674999498,798.1217674999498,798.1217674999498,798.1217674999498,798.1217674999498,798.1217674999498,798.1217674999498,800.6308166002855,800.6308166002855,800.6308166002855,800.6308166002855,800.6308166002855,54,37,63,50,50,17,6.0,0.8307349998503923,801.4786789002828,803.0580457001925,,,,,,,116,f,23,2022-12-11_15h26.16.798,RL,2022.2.4,60.00920546824139,
1,104,0,104,0,,,,,,,,,,None,803.0580457001925,803.0580457001925,803.0580457001925,803.0580457001925,803.0580457001925,803.0580457001925,j,0.4022527001798153,803.4934348999523,803.4934348999523,803.4934348999523,803.4934348999523,803.4934348999523,803.4934348999523,803.7898385003209,803.7898385003209,805.5016410001554,805.5016410001554,805.5016410001554,805.5016410001554,805.5016410001554,805.5016410001554,805.5016410001554,805.5016410001554,805.5016410001554,805.5016410001554,805.5016410001554,805.5016410001554,805.5016410001554,805.5016410001554,805.5016410001554,805.5016410001554,805.5016410001554,808.0107990000397,808.0107990000397,808.0107990000397,808.0107990000397,808.0107990000397,54,35,47,55,55,75,3.0,0.7139950999990106,808.7419867999852,810.3548217001371,,,,,,,116,f,23,2022-12-11_15h26.16.798,RL,2022.2.4,60.00920546824139,
1,105,0,105,0,,,,,,,,,,None,810.3548217001371,810.3548217001371,810.3548217001371,810.3548217001371,810.3548217001371,810.3548217001371,j,0.29791880026459694,810.6732320999727,810.6732320999727,810.6732320999727,810.6732320999727,810.6732320999727,810.6732320999727,810.9701413000003,810.9701413000003,812.1671140003018,812.1671140003018,812.1671140003018,812.1671140003018,812.1671140003018,812.1671140003018,812.1671140003018,812.1671140003018,812.1671140003018,812.1671140003018,812.1671140003018,812.1671140003018,812.1671140003018,812.1671140003018,812.1671140003018,812.1671140003018,812.1671140003018,814.6757991001941,814.6757991001941,814.6757991001941,814.6757991001941,814.6757991001941,52,29,51,54,54,41,5.0,0.6312815002165735,815.3240442001261,816.9036349002272,,,,,,,116,f,23,2022-12-11_15h26.16.798,RL,2022.2.4,60.00920546824139,
1,106,0,106,0,,,,,,,,,,None,816.9036349002272,816.9036349002272,816.9036349002272,816.9036349002272,816.9036349002272,816.9036349002272,j,0.2770225997082889,817.2045037001371,817.2045037001371,817.2045037001371,817.2045037001371,817.2045037001371,817.2045037001371,817.5025066002272,817.5025066002272,819.3305803001858,819.3305803001858,819.3305803001858,819.3305803001858,819.3305803001858,819.3305803001858,819.3305803001858,819.3305803001858,819.3305803001858,819.3305803001858,819.3305803001858,819.3305803001858,819.3305803001858,819.3305803001858,819.3305803001858,819.3305803001858,819.3305803001858,821.8398850001395,821.8398850001395,821.8398850001395,821.8398850001395,821.8398850001395,55,25,47,49,49,32,5.0,0.46444320026785135,822.3215183001012,823.8516114000231,,,,,,,116,f,23,2022-12-11_15h26.16.798,RL,2022.2.4,60.00920546824139,
1,107,0,107,0,,,,,,,,,,None,823.8516114000231,823.8516114000231,823.8516114000231,823.8516114000231,823.8516114000231,823.8516114000231,j,0.7411948000080884,824.6198460003361,824.6198460003361,824.6198460003361,824.6198460003361,824.6198460003361,824.6198460003361,824.9152983003296,824.9152983003296,826.3944681999274,826.3944681999274,826.4115527002141,826.4115527002141,826.4115527002141,826.4115527002141,826.4115527002141,826.4115527002141,826.4115527002141,826.4115527002141,826.4115527002141,826.4115527002141,826.4115527002141,826.4115527002141,826.4115527002141,826.4115527002141,826.4115527002141,828.920184600167,828.920184600167,828.920184600167,828.920184600167,828.920184600167,54,17,45,59,59,58,5.0,0.5150552000850439,829.4521866999567,831.0318681001663,,,,,,,116,f,23,2022-12-11_15h26.16.798,RL,2022.2.4,60.00920546824139,
1,108,0,108,0,,,,,,,,,,None,831.0318681001663,831.0318681001663,831.0318681001663,831.0318681001663,831.0318681001663,831.0318681001663,j,0.31806359998881817,831.3821320999414,831.3821320999414,831.3821320999414,831.3821320999414,831.3821320999414,831.3821320999414,831.6803590003401,831.6803590003401,833.0761311999522,833.0761311999522,833.0931969000958,833.0931969000958,833.0931969000958,833.0931969000958,833.0931969000958,833.0931969000958,833.0931969000958,833.0931969000958,833.0931969000958,833.0931969000958,833.0931969000958,833.0931969000958,833.0931969000958,833.0931969000958,833.0931969000958,835.6020378000103,835.6020378000103,835.6020378000103,835.6020378000103,835.6020378000103,59,36,33,56,56,75,3.0,0.5142394001595676,836.1338035999797,837.747010699939,,,,,,,116,f,23,2022-12-11_15h26.16.798,RL,2022.2.4,60.00920546824139,
1,109,0,109,0,,,,,,,,,,None,837.747010699939,837.747010699939,837.747010699939,837.747010699939,837.747010699939,837.747010699939,j,0.5149104003794491,838.2974791000597,838.2974791000597,838.2974791000597,838.2974791000597,838.2974791000597,838.2974791000597,838.5945566999726,838.5945566999726,840.5891195000149,840.5891195000149,840.5891195000149,840.5891195000149,840.5891195000149,840.5891195000149,840.5891195000149,840.5891195000149,840.5891195000149,840.5891195000149,840.5891195000149,840.5891195000149,840.5891195000149,840.5891195000149,840.5891195000149,840.5891195000149,840.5891195000149,843.098229800351,843.098229800351,843.098229800351,843.098229800351,843.098229800351,68,28,37,66,66,68,3.0,0.6467551002278924,843.7631964003667,845.7086531003006,,,,,,,116,f,23,2022-12-11_15h26.16.798,RL,2022.2.4,60.00920546824139,
1,110,0,110,0,,,,,,,,,,None,845.7086531003006,845.7086531003006,845.7086531003006,845.7086531003006,845.7086531003006,845.7086531003006,j,0.3669189000502229,846.1094101001509,846.1094101001509,846.1094101001509,846.1094101001509,846.1094101001509,846.1094101001509,846.4067828003317,846.4067828003317,847.5039314003661,847.5039314003661,847.5039314003661,847.5039314003661,847.5039314003661,847.5039314003661,847.5039314003661,847.5039314003661,847.5039314003661,847.5039314003661,847.5039314003661,847.5039314003661,847.5039314003661,847.5039314003661,847.5039314003661,847.5039314003661,847.5039314003661,850.0125970002264,850.0125970002264,850.0125970002264,850.0125970002264,850.0125970002264,56,36,32,59,59,74,3.0,0.46493769995868206,850.4949293001555,852.323936900124,,,,,,,116,f,23,2022-12-11_15h26.16.798,RL,2022.2.4,60.00920546824139,
1,111,0,111,0,,,,,,,,,,None,852.323936900124,852.323936900124,852.323936900124,852.323936900124,852.323936900124,852.323936900124,j,0.2526646996848285,852.6088752001524,852.6088752001524,852.6088752001524,852.6088752001524,852.6088752001524,852.6088752001524,852.905640100129,852.905640100129,853.7696000002325,853.7696000002325,853.7862400999293,853.7862400999293,853.7862400999293,853.7862400999293,853.7862400999293,853.7862400999293,853.7862400999293,853.7862400999293,853.7862400999293,853.7862400999293,853.7862400999293,853.7862400999293,853.7862400999293,853.7862400999293,853.7862400999293,856.2958769001998,856.2958769001998,856.2958769001998,856.2958769001998,856.2958769001998,63,34,38,61,61,65,3.0,0.6637914995662868,856.9774681003764,858.7393562002108,,,,,,,116,f,23,2022-12-11_15h26.16.798,RL,2022.2.4,60.00920546824139,
1,112,0,112,0,,,,,,,,,,None,858.7393562002108,858.7393562002108,858.7393562002108,858.7393562002108,858.7393562002108,858.7393562002108,j,0.2400437998585403,859.0063575003296,859.0063575003296,859.0063575003296,859.0063575003296,859.0063575003296,859.0063575003296,859.3048423002474,859.3048423002474,860.7008611001074,860.7008611001074,860.7008611001074,860.7008611001074,860.7008611001074,860.7008611001074,860.7008611001074,860.7008611001074,860.7008611001074,860.7008611001074,860.7008611001074,860.7008611001074,860.7008611001074,860.7008611001074,860.7008611001074,860.7008611001074,860.7008611001074,863.2101879999973,863.2101879999973,863.2101879999973,863.2101879999973,863.2101879999973,58,28,40,60,60,45,5.0,0.5639249999076128,863.7917490000837,865.5374839003198,,,,,,,116,f,23,2022-12-11_15h26.16.798,RL,2022.2.4,60.00920546824139,
1,113,0,113,0,,,,,,,,,,None,865.5374839003198,865.5374839003198,865.5374839003198,865.5374839003198,865.5374839003198,865.5374839003198,j,0.2646392001770437,865.824234300293,865.824234300293,865.824234300293,865.824234300293,865.824234300293,865.824234300293,866.1195613001473,866.1195613001473,867.7982795001008,867.7982795001008,867.7982795001008,867.7982795001008,867.7982795001008,867.7982795001008,867.7982795001008,867.7982795001008,867.7982795001008,867.7982795001008,867.7982795001008,867.7982795001008,867.7982795001008,867.7982795001008,867.7982795001008,867.7982795001008,867.7982795001008,870.30753870029,870.30753870029,870.30753870029,870.30753870029,870.30753870029,59,30,41,62,62,70,3.0,0.5140193998813629,870.8393673999235,872.7844589003362,,,,,,,116,f,23,2022-12-11_15h26.16.798,RL,2022.2.4,60.00920546824139,
1,114,0,114,0,,,,,,,,,,None,872.7844589003362,872.7844589003362,872.7844589003362,872.7844589003362,872.7844589003362,872.7844589003362,j,0.2746511003933847,873.0856388001703,873.0856388001703,873.0856388001703,873.0856388001703,873.0856388001703,873.0856388001703,873.3833127999678,873.3833127999678,874.9122280003503,874.9122280003503,874.9122280003503,874.9122280003503,874.9122280003503,874.9122280003503,874.9122280003503,874.9122280003503,874.9122280003503,874.9122280003503,874.9122280003503,874.9122280003503,874.9122280003503,874.9122280003503,874.9122280003503,874.9122280003503,874.9122280003503,877.4216835000552,877.4216835000552,877.4216835000552,877.4216835000552,877.4216835000552,66,30,44,60,60,74,3.0,1.3457051999866962,878.7843003002927,880.3803072003648,,,,,,,116,f,23,2022-12-11_15h26.16.798,RL,2022.2.4,60.00920546824139,
