bandit,trials.thisRepN,trials.thisTrialN,trials.thisN,trials.thisIndex,instru_img1.started,instru_resp.started,instru_resp.keys,instru_resp.rt,instru_img2.started,instru_resp2.started,instru_resp2.keys,instru_resp2.rt,fixbefore_2.started,rest_response.keys,red.started,green.started,yellow.started,blue.started,choose_bandit.started,Fixation.started,choose_bandit.keys,choose_bandit.rt,black.started,red_2.started,green_2.started,yellow_2.started,blue_2.started,fixation_2.started,docs.started,image_2.started,docs.stopped,image_2.stopped,black.stopped,red_2.stopped,green_2.stopped,yellow_2.stopped,blue_2.stopped,fixation_2.stopped,black_com.started,reward_sub.started,palyerb.started,reward__sub.started,compare.started,red_compare.started,green_com.started,yellow_com.started,blue_com.started,image_3.started,slider.started,text.started,image_4.started,image_5.started,rewardyellow,rewardred,rewardblue,rewardgreen,subchoose,playerb,slider.response,slider.rt,intertrialfix.started,intertrialfix.stopped,bigx.started,bigx.stopped,rest_image.started,rest_response.started,rest_response.rt,image.started,key_resp.started,key_resp.keys,participant,Gender,Age,date,expName,psychopyVersion,frameRate,
,,,,,18.59913060022518,18.59913060022518,space,3.9141685999929905,,,,,,,,,,,,,,,,,,,,,,,,,,,,,,,,,,,,,,,,,,,,,,,,,,,,,,,,,,,,,,,117,f,1,2022-12-11_16h07.20.815,RL,2022.2.4,60.14639629499411,
,,,,,,,,,22.54702759999782,22.54702759999782,space,19.505144199822098,,,,,,,,,,,,,,,,,,,,,,,,,,,,,,,,,,,,,,,,,,,,,,,,,,,,,,,,,,,117,f,1,2022-12-11_16h07.20.815,RL,2022.2.4,60.14639629499411,
1,0,0,0,0,,,,,,,,,42.06819040002301,None,43.08434069994837,43.08434069994837,43.08434069994837,43.08434069994837,43.08434069994837,43.08434069994837,r,0.3815188999287784,43.55329990014434,43.55329990014434,43.55329990014434,43.55329990014434,43.55329990014434,43.55329990014434,43.79796260036528,43.79796260036528,45.67572800023481,45.67572800023481,45.73093800013885,45.73093800013885,45.73093800013885,45.73093800013885,45.73093800013885,45.73093800013885,45.73093800013885,45.73093800013885,45.73093800013885,45.73093800013885,45.73093800013885,45.73093800013885,45.73093800013885,45.73093800013885,45.73093800013885,48.234840700402856,48.234840700402856,48.234840700402856,48.234840700402856,48.234840700402856,60,43,49,51,60,65,4.0,2.343312199693173,50.63709700014442,52.474079800304025,,,,,,,,,117,f,1,2022-12-11_16h07.20.815,RL,2022.2.4,60.14639629499411,
1,1,0,1,0,,,,,,,,,,None,52.474079800304025,52.474079800304025,52.474079800304025,52.474079800304025,52.474079800304025,52.474079800304025,r,0.6680045002140105,53.17483700020239,53.17483700020239,53.17483700020239,53.17483700020239,53.17483700020239,53.17483700020239,53.47132690018043,53.47132690018043,54.850414300337434,54.850414300337434,54.850414300337434,54.850414300337434,54.850414300337434,54.850414300337434,54.850414300337434,54.850414300337434,54.850414300337434,54.850414300337434,54.850414300337434,54.850414300337434,54.850414300337434,54.850414300337434,54.850414300337434,54.850414300337434,54.850414300337434,57.35944649996236,57.35944649996236,57.35944649996236,57.35944649996236,57.35944649996236,67,35,51,54,67,56,4.0,1.262463300023228,58.63992620026693,60.352111500222236,,,,,,,,,117,f,1,2022-12-11_16h07.20.815,RL,2022.2.4,60.14639629499411,
1,2,0,2,0,,,,,,,,,,None,60.352111500222236,60.352111500222236,60.352111500222236,60.352111500222236,60.352111500222236,60.352111500222236,r,1.1473201997578144,61.53295599995181,61.53295599995181,61.53295599995181,61.53295599995181,61.53295599995181,61.53295599995181,61.83185750013217,61.83185750013217,63.527047500014305,63.527047500014305,63.527047500014305,63.527047500014305,63.527047500014305,63.527047500014305,63.527047500014305,63.527047500014305,63.527047500014305,63.527047500014305,63.527047500014305,63.527047500014305,63.527047500014305,63.527047500014305,63.527047500014305,63.527047500014305,63.527047500014305,66.03613120038062,66.03613120038062,66.03613120038062,66.03613120038062,66.03613120038062,73,46,46,55,73,41,4.0,1.1953858998604119,67.2498167003505,69.14469650015235,,,,,,,,,117,f,1,2022-12-11_16h07.20.815,RL,2022.2.4,60.14639629499411,
1,3,0,3,0,,,,,,,,,,None,69.14469650015235,69.14469650015235,69.14469650015235,69.14469650015235,69.14469650015235,69.14469650015235,r,0.9514528997242451,70.12940220022574,70.12940220022574,70.12940220022574,70.12940220022574,70.12940220022574,70.12940220022574,70.42482420010492,70.42482420010492,72.15349930012599,72.15349930012599,72.15349930012599,72.15349930012599,72.15349930012599,72.15349930012599,72.15349930012599,72.15349930012599,72.15349930012599,72.15349930012599,72.15349930012599,72.15349930012599,72.15349930012599,72.15349930012599,72.15349930012599,72.15349930012599,72.15349930012599,74.66256870003417,74.66256870003417,74.66256870003417,74.66256870003417,74.66256870003417,67,41,49,59,67,35,5.0,1.5782683002762496,76.25827160011977,78.18661130033433,,,,,,,,,117,f,1,2022-12-11_16h07.20.815,RL,2022.2.4,60.14639629499411,
1,4,0,4,0,,,,,,,,,,None,78.18661130033433,78.18661130033433,78.18661130033433,78.18661130033433,78.18661130033433,78.18661130033433,r,0.6808269997127354,78.90208310028538,78.90208310028538,78.90208310028538,78.90208310028538,78.90208310028538,78.90208310028538,79.2008731001988,79.2008731001988,80.26450490020216,80.26450490020216,80.26450490020216,80.26450490020216,80.26450490020216,80.26450490020216,80.26450490020216,80.26450490020216,80.26450490020216,80.26450490020216,80.26450490020216,80.26450490020216,80.26450490020216,80.26450490020216,80.26450490020216,80.26450490020216,80.26450490020216,82.77378839999437,82.77378839999437,82.77378839999437,82.77378839999437,82.77378839999437,66,43,42,48,66,59,5.0,1.6114866002462804,84.40270390035585,86.19854530040175,,,,,,,,,117,f,1,2022-12-11_16h07.20.815,RL,2022.2.4,60.14639629499411,
1,5,0,5,0,,,,,,,,,,None,86.19854530040175,86.19854530040175,86.19854530040175,86.19854530040175,86.19854530040175,86.19854530040175,r,0.44683120027184486,86.66837060032412,86.66837060032412,86.66837060032412,86.66837060032412,86.66837060032412,86.66837060032412,86.96333579998463,86.96333579998463,87.89395810011774,87.89395810011774,87.91029300028458,87.91029300028458,87.91029300028458,87.91029300028458,87.91029300028458,87.91029300028458,87.91029300028458,87.91029300028458,87.91029300028458,87.91029300028458,87.91029300028458,87.91029300028458,87.91029300028458,87.91029300028458,87.91029300028458,90.41952170012519,90.41952170012519,90.41952170012519,90.41952170012519,90.41952170012519,70,44,55,58,70,34,5.0,1.1965801999904215,91.63299830025062,93.46163630019873,,,,,,,,,117,f,1,2022-12-11_16h07.20.815,RL,2022.2.4,60.14639629499411,
1,6,0,6,0,,,,,,,,,,None,93.46163630019873,93.46163630019873,93.46163630019873,93.46163630019873,93.46163630019873,93.46163630019873,r,0.46077820006757975,93.94428940024227,93.94428940024227,93.94428940024227,93.94428940024227,93.94428940024227,93.94428940024227,94.24326460016891,94.24326460016891,96.07154050003737,96.07154050003737,96.08998000016436,96.08998000016436,96.08998000016436,96.08998000016436,96.08998000016436,96.08998000016436,96.08998000016436,96.08998000016436,96.08998000016436,96.08998000016436,96.08998000016436,96.08998000016436,96.08998000016436,96.08998000016436,96.08998000016436,98.59750300040469,98.59750300040469,98.59750300040469,98.59750300040469,98.59750300040469,58,46,49,56,58,28,5.0,1.029569000005722,99.64420030033216,101.55645600007847,,,,,,,,,117,f,1,2022-12-11_16h07.20.815,RL,2022.2.4,60.14639629499411,
1,7,0,7,0,,,,,,,,,,None,101.55645600007847,101.55645600007847,101.55645600007847,101.55645600007847,101.55645600007847,101.55645600007847,r,0.45269619999453425,102.03915269998834,102.03915269998834,102.03915269998834,102.03915269998834,102.03915269998834,102.03915269998834,102.33804710023105,102.33804710023105,103.56774610001594,103.56774610001594,103.56774610001594,103.56774610001594,103.56774610001594,103.56774610001594,103.56774610001594,103.56774610001594,103.56774610001594,103.56774610001594,103.56774610001594,103.56774610001594,103.56774610001594,103.56774610001594,103.56774610001594,103.56774610001594,103.56774610001594,106.07700690021738,106.07700690021738,106.07700690021738,106.07700690021738,106.07700690021738,64,47,47,63,64,47,4.0,2.059895799960941,108.15426400024444,110.09992130007595,,,,,,,,,117,f,1,2022-12-11_16h07.20.815,RL,2022.2.4,60.14639629499411,
1,8,0,8,0,,,,,,,,,,None,110.09992130007595,110.09992130007595,110.09992130007595,110.09992130007595,110.09992130007595,110.09992130007595,r,0.6610523001290858,110.7816755999811,110.7816755999811,110.7816755999811,110.7816755999811,110.7816755999811,110.7816755999811,111.08059700019658,111.08059700019658,111.94470330001786,111.94470330001786,111.94470330001786,111.94470330001786,111.94470330001786,111.94470330001786,111.94470330001786,111.94470330001786,111.94470330001786,111.94470330001786,111.94470330001786,111.94470330001786,111.94470330001786,111.94470330001786,111.94470330001786,111.94470330001786,111.94470330001786,114.45417680032551,114.45417680032551,114.45417680032551,114.45417680032551,114.45417680032551,59,45,48,58,59,34,4.0,1.1625475999899209,115.63390660006553,117.54603660013527,,,,,,,,,117,f,1,2022-12-11_16h07.20.815,RL,2022.2.4,60.14639629499411,
1,9,0,9,0,,,,,,,,,,None,117.54603660013527,117.54603660013527,117.54603660013527,117.54603660013527,117.54603660013527,117.54603660013527,r,0.6216661003418267,118.1970696002245,118.1970696002245,118.1970696002245,118.1970696002245,118.1970696002245,118.1970696002245,118.49415890034288,118.49415890034288,119.8733820002526,119.8733820002526,119.8733820002526,119.8733820002526,119.8733820002526,119.8733820002526,119.8733820002526,119.8733820002526,119.8733820002526,119.8733820002526,119.8733820002526,119.8733820002526,119.8733820002526,119.8733820002526,119.8733820002526,119.8733820002526,119.8733820002526,122.38254950009286,122.38254950009286,122.38254950009286,122.38254950009286,122.38254950009286,56,40,50,58,56,59,4.0,1.8442466002888978,124.24381200037897,126.2390808002092,,,,,,,,,117,f,1,2022-12-11_16h07.20.815,RL,2022.2.4,60.14639629499411,
1,10,0,10,0,,,,,,,,,,None,126.2390808002092,126.2390808002092,126.2390808002092,126.2390808002092,126.2390808002092,126.2390808002092,r,0.6243892000056803,126.88939260039479,126.88939260039479,126.88939260039479,126.88939260039479,126.88939260039479,126.88939260039479,127.18656569998711,127.18656569998711,128.63289150036871,128.63289150036871,128.63289150036871,128.63289150036871,128.63289150036871,128.63289150036871,128.63289150036871,128.63289150036871,128.63289150036871,128.63289150036871,128.63289150036871,128.63289150036871,128.63289150036871,128.63289150036871,128.63289150036871,128.63289150036871,128.63289150036871,131.14195040008053,131.14195040008053,131.14195040008053,131.14195040008053,131.14195040008053,58,45,42,58,58,42,5.0,1.111868899781257,132.27174980007112,133.80203000037,,,,,,,,,117,f,1,2022-12-11_16h07.20.815,RL,2022.2.4,60.14639629499411,
1,11,0,11,0,,,,,,,,,,None,133.80203000037,133.80203000037,133.80203000037,133.80203000037,133.80203000037,133.80203000037,r,0.6926444000564516,134.51891950005665,134.51891950005665,134.51891950005665,134.51891950005665,134.51891950005665,134.51891950005665,134.81603780016303,134.81603780016303,135.96288610016927,135.96288610016927,135.9792210003361,135.9792210003361,135.9792210003361,135.9792210003361,135.9792210003361,135.9792210003361,135.9792210003361,135.9792210003361,135.9792210003361,135.9792210003361,135.9792210003361,135.9792210003361,135.9792210003361,135.9792210003361,135.9792210003361,138.4883787999861,138.4883787999861,138.4883787999861,138.4883787999861,138.4883787999861,55,50,47,58,55,31,5.0,1.3626557001844049,139.8683470003307,141.68030370026827,,,,,,,,,117,f,1,2022-12-11_16h07.20.815,RL,2022.2.4,60.14639629499411,
1,12,0,12,0,,,,,,,,,,None,141.68030370026827,141.68030370026827,141.68030370026827,141.68030370026827,141.68030370026827,141.68030370026827,r,0.5473672999069095,142.2460169000551,142.2460169000551,142.2460169000551,142.2460169000551,142.2460169000551,142.2460169000551,142.54494410008192,142.54494410008192,143.87480100011453,143.87480100011453,143.87480100011453,143.87480100011453,143.87480100011453,143.87480100011453,143.87480100011453,143.87480100011453,143.87480100011453,143.87480100011453,143.87480100011453,143.87480100011453,143.87480100011453,143.87480100011453,143.87480100011453,143.87480100011453,143.87480100011453,146.38341270014644,146.38341270014644,146.38341270014644,146.38341270014644,146.38341270014644,49,49,51,69,49,32,4.0,1.0123975998722017,147.41391380038112,149.3760699001141,,,,,,,,,117,f,1,2022-12-11_16h07.20.815,RL,2022.2.4,60.14639629499411,
1,13,0,13,0,,,,,,,,,,None,149.3760699001141,149.3760699001141,149.3760699001141,149.3760699001141,149.3760699001141,149.3760699001141,r,0.3829834000207484,149.7949849003926,149.7949849003926,149.7949849003926,149.7949849003926,149.7949849003926,149.7949849003926,150.09079860011116,150.09079860011116,151.73635830031708,151.73635830031708,151.73635830031708,151.73635830031708,151.73635830031708,151.73635830031708,151.73635830031708,151.73635830031708,151.73635830031708,151.73635830031708,151.73635830031708,151.73635830031708,151.73635830031708,151.73635830031708,151.73635830031708,151.73635830031708,151.73635830031708,154.24572740029544,154.24572740029544,154.24572740029544,154.24572740029544,154.24572740029544,60,42,54,56,60,54,4.0,1.179125600028783,155.44202610012144,157.43744550039992,,,,,,,,,117,f,1,2022-12-11_16h07.20.815,RL,2022.2.4,60.14639629499411,
1,14,0,14,0,,,,,,,,,,None,157.43744550039992,157.43744550039992,157.43744550039992,157.43744550039992,157.43744550039992,157.43744550039992,r,0.5480674002319574,158.02087190002203,158.02087190002203,158.02087190002203,158.02087190002203,158.02087190002203,158.02087190002203,158.31881180033088,158.31881180033088,159.44883550005034,159.44883550005034,159.44883550005034,159.44883550005034,159.44883550005034,159.44883550005034,159.44883550005034,159.44883550005034,159.44883550005034,159.44883550005034,159.44883550005034,159.44883550005034,159.44883550005034,159.44883550005034,159.44883550005034,159.44883550005034,159.44883550005034,161.95807270007208,161.95807270007208,161.95807270007208,161.95807270007208,161.95807270007208,63,45,52,57,63,70,4.0,1.2462023999541998,163.2206709999591,165.11643960000947,,,,,,,,,117,f,1,2022-12-11_16h07.20.815,RL,2022.2.4,60.14639629499411,
1,15,0,15,0,,,,,,,,,,None,165.11643960000947,165.11643960000947,165.11643960000947,165.11643960000947,165.11643960000947,165.11643960000947,None,,,,,,,,,,,,,,,,,,,,,,,,,,,,,,,,58,33,60,58,0,**,None,None,171.14940560003743,173.01156350038946,166.63646160019562,171.14940560003743,,,,,,,117,f,1,2022-12-11_16h07.20.815,RL,2022.2.4,60.14639629499411,
1,16,0,16,0,,,,,,,,,,None,173.01156350038946,173.01156350038946,173.01156350038946,173.01156350038946,173.01156350038946,173.01156350038946,f,0.6080959001556039,173.6482795001939,173.6482795001939,173.6482795001939,173.6482795001939,173.6482795001939,173.6482795001939,173.94257410010323,173.94257410010323,175.47134970035404,175.47134970035404,175.48840770032257,175.48840770032257,175.48840770032257,175.48840770032257,175.48840770032257,175.48840770032257,175.48840770032257,175.48840770032257,175.48840770032257,175.48840770032257,175.48840770032257,175.48840770032257,175.48840770032257,175.48840770032257,175.48840770032257,177.99699950031936,177.99699950031936,177.99699950031936,177.99699950031936,177.99699950031936,59,36,55,57,36,49,3.0,1.7628929000347853,179.7757700001821,181.33898650016636,,,,,,,,,117,f,1,2022-12-11_16h07.20.815,RL,2022.2.4,60.14639629499411,
1,17,0,17,0,,,,,,,,,,None,181.33898650016636,181.33898650016636,181.33898650016636,181.33898650016636,181.33898650016636,181.33898650016636,r,0.4080921998247504,181.77611440001056,181.77611440001056,181.77611440001056,181.77611440001056,181.77611440001056,181.77611440001056,182.07070410018787,182.07070410018787,183.56611820030957,183.56611820030957,183.5825877999887,183.5825877999887,183.5825877999887,183.5825877999887,183.5825877999887,183.5825877999887,183.5825877999887,183.5825877999887,183.5825877999887,183.5825877999887,183.5825877999887,183.5825877999887,183.5825877999887,183.5825877999887,183.5825877999887,186.09178759995848,186.09178759995848,186.09178759995848,186.09178759995848,186.09178759995848,56,31,56,65,56,51,5.0,1.162811300251633,187.27183310035616,188.98457920039073,,,,,,,,,117,f,1,2022-12-11_16h07.20.815,RL,2022.2.4,60.14639629499411,
1,18,0,18,0,,,,,,,,,,None,188.98457920039073,188.98457920039073,188.98457920039073,188.98457920039073,188.98457920039073,188.98457920039073,j,0.564104899764061,189.5689398003742,189.5689398003742,189.5689398003742,189.5689398003742,189.5689398003742,189.5689398003742,189.8658209000714,189.8658209000714,191.79420160036534,191.79420160036534,191.79420160036534,191.79420160036534,191.79420160036534,191.79420160036534,191.79420160036534,191.79420160036534,191.79420160036534,191.79420160036534,191.79420160036534,191.79420160036534,191.79420160036534,191.79420160036534,191.79420160036534,191.79420160036534,191.79420160036534,194.30333240004256,194.30333240004256,194.30333240004256,194.30333240004256,194.30333240004256,58,28,57,70,70,47,5.0,1.7776777003891766,196.09784190030769,197.6108519001864,,,,,,,,,117,f,1,2022-12-11_16h07.20.815,RL,2022.2.4,60.14639629499411,
1,19,0,19,0,,,,,,,,,,None,197.6108519001864,197.6108519001864,197.6108519001864,197.6108519001864,197.6108519001864,197.6108519001864,j,0.8421554998494685,198.4756979001686,198.4756979001686,198.4756979001686,198.4756979001686,198.4756979001686,198.4756979001686,198.77463720040396,198.77463720040396,200.22071970021352,200.22071970021352,200.22071970021352,200.22071970021352,200.22071970021352,200.22071970021352,200.22071970021352,200.22071970021352,200.22071970021352,200.22071970021352,200.22071970021352,200.22071970021352,200.22071970021352,200.22071970021352,200.22071970021352,200.22071970021352,200.22071970021352,202.72952260030434,202.72952260030434,202.72952260030434,202.72952260030434,202.72952260030434,70,23,50,72,72,61,5.0,0.9297613999806345,203.67736650025472,205.40624719997868,,,,,,,,,117,f,1,2022-12-11_16h07.20.815,RL,2022.2.4,60.14639629499411,
1,20,0,20,0,,,,,,,,,,None,205.40624719997868,205.40624719997868,205.40624719997868,205.40624719997868,205.40624719997868,205.40624719997868,j,0.44473750004544854,205.87370400037616,205.87370400037616,205.87370400037616,205.87370400037616,205.87370400037616,205.87370400037616,206.17114760028198,206.17114760028198,207.8502248004079,207.8502248004079,207.8502248004079,207.8502248004079,207.8502248004079,207.8502248004079,207.8502248004079,207.8502248004079,207.8502248004079,207.8502248004079,207.8502248004079,207.8502248004079,207.8502248004079,207.8502248004079,207.8502248004079,207.8502248004079,207.8502248004079,210.3593800002709,210.3593800002709,210.3593800002709,210.3593800002709,210.3593800002709,60,31,54,63,63,44,5.0,1.0805403999984264,211.45577890006825,212.98556679999456,,,,,,,,,117,f,1,2022-12-11_16h07.20.815,RL,2022.2.4,60.14639629499411,
1,21,0,21,0,,,,,,,,,,None,212.98556679999456,212.98556679999456,212.98556679999456,212.98556679999456,212.98556679999456,212.98556679999456,j,0.22354699997231364,213.23778820037842,213.23778820037842,213.23778820037842,213.23778820037842,213.23778820037842,213.23778820037842,213.53485340019688,213.53485340019688,215.17982800025493,215.17982800025493,215.19638650026172,215.19638650026172,215.19638650026172,215.19638650026172,215.19638650026172,215.19638650026172,215.19638650026172,215.19638650026172,215.19638650026172,215.19638650026172,215.19638650026172,215.19638650026172,215.19638650026172,215.19638650026172,215.19638650026172,217.70594809995964,217.70594809995964,217.70594809995964,217.70594809995964,217.70594809995964,54,24,59,69,69,60,5.0,1.0956516000442207,218.81921320036054,220.69820280000567,,,,,,,,,117,f,1,2022-12-11_16h07.20.815,RL,2022.2.4,60.14639629499411,
1,22,0,22,0,,,,,,,,,,None,220.69820280000567,220.69820280000567,220.69820280000567,220.69820280000567,220.69820280000567,220.69820280000567,j,0.34115010034292936,221.0689497999847,221.0689497999847,221.0689497999847,221.0689497999847,221.0689497999847,221.0689497999847,221.36312530003488,221.36312530003488,222.65941420011222,222.65941420011222,222.65941420011222,222.65941420011222,222.65941420011222,222.65941420011222,222.65941420011222,222.65941420011222,222.65941420011222,222.65941420011222,222.65941420011222,222.65941420011222,222.65941420011222,222.65941420011222,222.65941420011222,222.65941420011222,222.65941420011222,225.16859799996018,225.16859799996018,225.16859799996018,225.16859799996018,225.16859799996018,72,23,56,66,66,66,5.0,0.9642981998622417,226.14970780024305,228.16111420001835,,,,,,,,,117,f,1,2022-12-11_16h07.20.815,RL,2022.2.4,60.14639629499411,
1,23,0,23,0,,,,,,,,,,None,228.16111420001835,228.16111420001835,228.16111420001835,228.16111420001835,228.16111420001835,228.16111420001835,j,0.22532599978148937,228.413874800317,228.413874800317,228.413874800317,228.413874800317,228.413874800317,228.413874800317,228.71011940017343,228.71011940017343,230.58806270034984,230.58806270034984,230.58806270034984,230.58806270034984,230.58806270034984,230.58806270034984,230.58806270034984,230.58806270034984,230.58806270034984,230.58806270034984,230.58806270034984,230.58806270034984,230.58806270034984,230.58806270034984,230.58806270034984,230.58806270034984,230.58806270034984,233.09734390024096,233.09734390024096,233.09734390024096,233.09734390024096,233.09734390024096,67,28,46,61,61,58,5.0,1.0800139997154474,234.1939763003029,236.0563853001222,,,,,,,,,117,f,1,2022-12-11_16h07.20.815,RL,2022.2.4,60.14639629499411,
1,24,0,24,0,,,,,,,,,,None,236.0563853001222,236.0563853001222,236.0563853001222,236.0563853001222,236.0563853001222,236.0563853001222,i,0.34117829985916615,236.42426250036806,236.42426250036806,236.42426250036806,236.42426250036806,236.42426250036806,236.42426250036806,236.72120320005342,236.72120320005342,238.31711900001392,238.31711900001392,238.31711900001392,238.31711900001392,238.31711900001392,238.31711900001392,238.31711900001392,238.31711900001392,238.31711900001392,238.31711900001392,238.31711900001392,238.31711900001392,238.31711900001392,238.31711900001392,238.31711900001392,238.31711900001392,238.31711900001392,240.82614390039816,240.82614390039816,240.82614390039816,240.82614390039816,240.82614390039816,67,16,49,66,49,61,4.0,1.9932777998037636,242.83723450032994,244.5994596001692,,,,,,,,,117,f,1,2022-12-11_16h07.20.815,RL,2022.2.4,60.14639629499411,
1,25,0,25,0,,,,,,,,,,None,244.5994596001692,244.5994596001692,244.5994596001692,244.5994596001692,244.5994596001692,244.5994596001692,j,0.32505680015310645,244.95012550009415,244.95012550009415,244.95012550009415,244.95012550009415,244.95012550009415,244.95012550009415,245.24817120004445,245.24817120004445,246.594074500259,246.594074500259,246.594074500259,246.594074500259,246.594074500259,246.594074500259,246.594074500259,246.594074500259,246.594074500259,246.594074500259,246.594074500259,246.594074500259,246.594074500259,246.594074500259,246.594074500259,246.594074500259,246.594074500259,249.10376770002767,249.10376770002767,249.10376770002767,249.10376770002767,249.10376770002767,68,25,50,61,61,34,5.0,1.179455100093037,250.2999482001178,252.24516399996355,,,,,,,,,117,f,1,2022-12-11_16h07.20.815,RL,2022.2.4,60.14639629499411,
1,26,0,26,0,,,,,,,,,,None,252.24516399996355,252.24516399996355,252.24516399996355,252.24516399996355,252.24516399996355,252.24516399996355,j,0.5557322003878653,252.82763050030917,252.82763050030917,252.82763050030917,252.82763050030917,252.82763050030917,252.82763050030917,253.12635540030897,253.12635540030897,254.10745030036196,254.10745030036196,254.10745030036196,254.10745030036196,254.10745030036196,254.10745030036196,254.10745030036196,254.10745030036196,254.10745030036196,254.10745030036196,254.10745030036196,254.10745030036196,254.10745030036196,254.10745030036196,254.10745030036196,254.10745030036196,254.10745030036196,256.61600599996746,256.61600599996746,256.61600599996746,256.61600599996746,256.61600599996746,71,26,51,67,67,56,5.0,0.9458693000487983,257.5799770001322,259.49206820037216,,,,,,,,,117,f,1,2022-12-11_16h07.20.815,RL,2022.2.4,60.14639629499411,
1,27,0,27,0,,,,,,,,,,None,259.49206820037216,259.49206820037216,259.49206820037216,259.49206820037216,259.49206820037216,259.49206820037216,j,0.27637229999527335,259.7932640002109,259.7932640002109,259.7932640002109,259.7932640002109,259.7932640002109,259.7932640002109,260.09078620001674,260.09078620001674,260.9716452001594,260.9716452001594,260.9716452001594,260.9716452001594,260.9716452001594,260.9716452001594,260.9716452001594,260.9716452001594,260.9716452001594,260.9716452001594,260.9716452001594,260.9716452001594,260.9716452001594,260.9716452001594,260.9716452001594,260.9716452001594,260.9716452001594,263.4809314003214,263.4809314003214,263.4809314003214,263.4809314003214,263.4809314003214,56,21,57,63,63,51,5.0,0.9306743000634015,264.4282468999736,266.2569887000136,,,,,,,,,117,f,1,2022-12-11_16h07.20.815,RL,2022.2.4,60.14639629499411,
1,28,0,28,0,,,,,,,,,,None,266.2569887000136,266.2569887000136,266.2569887000136,266.2569887000136,266.2569887000136,266.2569887000136,j,0.38387030037119985,266.6758616999723,266.6758616999723,266.6758616999723,266.6758616999723,266.6758616999723,266.6758616999723,266.97201990010217,266.97201990010217,268.7837010002695,268.7837010002695,268.7837010002695,268.7837010002695,268.7837010002695,268.7837010002695,268.7837010002695,268.7837010002695,268.7837010002695,268.7837010002695,268.7837010002695,268.7837010002695,268.7837010002695,268.7837010002695,268.7837010002695,268.7837010002695,268.7837010002695,271.2931246003136,271.2931246003136,271.2931246003136,271.2931246003136,271.2931246003136,66,24,49,61,61,57,5.0,0.9469278999604285,272.2569969999604,274.0028048004024,,,,,,,,,117,f,1,2022-12-11_16h07.20.815,RL,2022.2.4,60.14639629499411,
1,29,0,29,0,,,,,,,,,,None,274.0028048004024,274.0028048004024,274.0028048004024,274.0028048004024,274.0028048004024,274.0028048004024,j,0.2955764001235366,274.32391100004315,274.32391100004315,274.32391100004315,274.32391100004315,274.32391100004315,274.32391100004315,274.6177235003561,274.6177235003561,276.5125851002522,276.5125851002522,276.5125851002522,276.5125851002522,276.5125851002522,276.5125851002522,276.5125851002522,276.5125851002522,276.5125851002522,276.5125851002522,276.5125851002522,276.5125851002522,276.5125851002522,276.5125851002522,276.5125851002522,276.5125851002522,276.5125851002522,279.0215491000563,279.0215491000563,279.0215491000563,279.0215491000563,279.0215491000563,64,24,59,71,71,49,6.0,1.4785690000280738,280.5177764003165,282.4960167002864,,,,,,,,,117,f,1,2022-12-11_16h07.20.815,RL,2022.2.4,60.14639629499411,
1,30,0,30,0,,,,,,,,,,None,282.4960167002864,282.4960167002864,282.4960167002864,282.4960167002864,282.4960167002864,282.4960167002864,j,0.6289933999069035,283.1458330000751,283.1458330000751,283.1458330000751,283.1458330000751,283.1458330000751,283.1458330000751,283.44429720006883,283.44429720006883,284.42416850011796,284.42416850011796,284.42416850011796,284.42416850011796,284.42416850011796,284.42416850011796,284.42416850011796,284.42416850011796,284.42416850011796,284.42416850011796,284.42416850011796,284.42416850011796,284.42416850011796,284.42416850011796,284.42416850011796,284.42416850011796,284.42416850011796,286.9337037000805,286.9337037000805,286.9337037000805,286.9337037000805,286.9337037000805,57,30,55,81,81,50,6.0,0.9468242996372283,287.8976420001127,289.89271380007267,,,,,,,,,117,f,1,2022-12-11_16h07.20.815,RL,2022.2.4,60.14639629499411,
1,31,0,31,0,,,,,,,,,,None,289.89271380007267,289.89271380007267,289.89271380007267,289.89271380007267,289.89271380007267,289.89271380007267,j,0.2602725997567177,290.1759838000871,290.1759838000871,290.1759838000871,290.1759838000871,290.1759838000871,290.1759838000871,290.47444240003824,290.47444240003824,292.0370988002978,292.0370988002978,292.0370988002978,292.0370988002978,292.0370988002978,292.0370988002978,292.0370988002978,292.0370988002978,292.0370988002978,292.0370988002978,292.0370988002978,292.0370988002978,292.0370988002978,292.0370988002978,292.0370988002978,292.0370988002978,292.0370988002978,294.54601890034974,294.54601890034974,294.54601890034974,294.54601890034974,294.54601890034974,60,33,57,81,81,54,6.0,0.9794216002337635,295.5437287003733,297.45524800010026,,,,,,,,,117,f,1,2022-12-11_16h07.20.815,RL,2022.2.4,60.14639629499411,
1,32,0,32,0,,,,,,,,,,None,297.45524800010026,297.45524800010026,297.45524800010026,297.45524800010026,297.45524800010026,297.45524800010026,j,0.29837309988215566,297.77352980012074,297.77352980012074,297.77352980012074,297.77352980012074,297.77352980012074,297.77352980012074,298.07043880037963,298.07043880037963,299.0010114000179,299.0010114000179,299.0181198003702,299.0181198003702,299.0181198003702,299.0181198003702,299.0181198003702,299.0181198003702,299.0181198003702,299.0181198003702,299.0181198003702,299.0181198003702,299.0181198003702,299.0181198003702,299.0181198003702,299.0181198003702,299.0181198003702,301.5273202001117,301.5273202001117,301.5273202001117,301.5273202001117,301.5273202001117,53,27,57,81,81,52,6.0,0.7144722999073565,302.25848160032183,303.8709265999496,,,,,,,,,117,f,1,2022-12-11_16h07.20.815,RL,2022.2.4,60.14639629499411,
1,33,0,33,0,,,,,,,,,,None,303.8709265999496,303.8709265999496,303.8709265999496,303.8709265999496,303.8709265999496,303.8709265999496,j,0.30610569985583425,304.20686369994655,304.20686369994655,304.20686369994655,304.20686369994655,304.20686369994655,304.20686369994655,304.50326499994844,304.50326499994844,306.41477310005575,306.41477310005575,306.41477310005575,306.41477310005575,306.41477310005575,306.41477310005575,306.41477310005575,306.41477310005575,306.41477310005575,306.41477310005575,306.41477310005575,306.41477310005575,306.41477310005575,306.41477310005575,306.41477310005575,306.41477310005575,306.41477310005575,308.92355330009013,308.92355330009013,308.92355330009013,308.92355330009013,308.92355330009013,50,30,50,71,71,50,6.0,0.6797110997140408,309.621682099998,311.36748350039124,,,,,,,,,117,f,1,2022-12-11_16h07.20.815,RL,2022.2.4,60.14639629499411,
1,34,0,34,0,,,,,,,,,,None,311.36748350039124,311.36748350039124,311.36748350039124,311.36748350039124,311.36748350039124,311.36748350039124,j,0.27736059995368123,311.6669155000709,311.6669155000709,311.6669155000709,311.6669155000709,311.6669155000709,311.6669155000709,311.9660541000776,311.9660541000776,313.195984700229,313.195984700229,313.2125625000335,313.2125625000335,313.2125625000335,313.2125625000335,313.2125625000335,313.2125625000335,313.2125625000335,313.2125625000335,313.2125625000335,313.2125625000335,313.2125625000335,313.2125625000335,313.2125625000335,313.2125625000335,313.2125625000335,315.7216850002296,315.7216850002296,315.7216850002296,315.7216850002296,315.7216850002296,51,22,52,75,75,66,6.0,0.76402199966833,316.5030396003276,318.29862960008904,,,,,,,,,117,f,1,2022-12-11_16h07.20.815,RL,2022.2.4,60.14639629499411,
1,35,0,35,0,,,,,,,,,,None,318.29862960008904,318.29862960008904,318.29862960008904,318.29862960008904,318.29862960008904,318.29862960008904,j,0.30850990023463964,318.633340400178,318.633340400178,318.633340400178,318.633340400178,318.633340400178,318.633340400178,318.9308254001662,318.9308254001662,320.0773450001143,320.0773450001143,320.0773450001143,320.0773450001143,320.0773450001143,320.0773450001143,320.0773450001143,320.0773450001143,320.0773450001143,320.0773450001143,320.0773450001143,320.0773450001143,320.0773450001143,320.0773450001143,320.0773450001143,320.0773450001143,320.0773450001143,322.58597420016304,322.58597420016304,322.58597420016304,322.58597420016304,322.58597420016304,62,26,47,64,64,60,6.0,1.0293703000061214,323.63366340007633,325.3791596000083,,,,,,,,,117,f,1,2022-12-11_16h07.20.815,RL,2022.2.4,60.14639629499411,
1,36,0,36,0,,,,,,,,,,None,325.3791596000083,325.3791596000083,325.3791596000083,325.3791596000083,325.3791596000083,325.3791596000083,j,0.24578139977529645,325.6505579999648,325.6505579999648,325.6505579999648,325.6505579999648,325.6505579999648,325.6505579999648,325.9445949001238,325.9445949001238,327.6398487002589,327.6398487002589,327.65626730024815,327.65626730024815,327.65626730024815,327.65626730024815,327.65626730024815,327.65626730024815,327.65626730024815,327.65626730024815,327.65626730024815,327.65626730024815,327.65626730024815,327.65626730024815,327.65626730024815,327.65626730024815,327.65626730024815,330.1655348003842,330.1655348003842,330.1655348003842,330.1655348003842,330.1655348003842,58,35,47,76,76,56,6.0,0.8967051999643445,331.07940219994634,332.92505459999666,,,,,,,,,117,f,1,2022-12-11_16h07.20.815,RL,2022.2.4,60.14639629499411,
1,37,0,37,0,,,,,,,,,,None,332.92505459999666,332.92505459999666,332.92505459999666,332.92505459999666,332.92505459999666,332.92505459999666,j,0.31721109990030527,333.27668960019946,333.27668960019946,333.27668960019946,333.27668960019946,333.27668960019946,333.27668960019946,333.574036099948,333.574036099948,335.31906360015273,335.31906360015273,335.31906360015273,335.31906360015273,335.31906360015273,335.31906360015273,335.31906360015273,335.31906360015273,335.31906360015273,335.31906360015273,335.31906360015273,335.31906360015273,335.31906360015273,335.31906360015273,335.31906360015273,335.31906360015273,335.31906360015273,337.8278397000395,337.8278397000395,337.8278397000395,337.8278397000395,337.8278397000395,68,25,46,79,79,57,6.0,2.3613702999427915,340.2049049003981,341.8008922999725,,,,,,,,,117,f,1,2022-12-11_16h07.20.815,RL,2022.2.4,60.14639629499411,
1,38,0,38,0,,,,,,,,,,None,341.8008922999725,341.8008922999725,341.8008922999725,341.8008922999725,341.8008922999725,341.8008922999725,j,0.3033369998447597,342.13721460010856,342.13721460010856,342.13721460010856,342.13721460010856,342.13721460010856,342.13721460010856,342.4329625000246,342.4329625000246,343.994955400005,343.994955400005,343.994955400005,343.994955400005,343.994955400005,343.994955400005,343.994955400005,343.994955400005,343.994955400005,343.994955400005,343.994955400005,343.994955400005,343.994955400005,343.994955400005,343.994955400005,343.994955400005,343.994955400005,346.50422210013494,346.50422210013494,346.50422210013494,346.50422210013494,346.50422210013494,57,30,51,79,79,50,6.0,0.697895500343293,347.2187648001127,349.1308252001181,,,,,,,,,117,f,1,2022-12-11_16h07.20.815,RL,2022.2.4,60.14639629499411,
1,39,0,39,0,,,,,,,,,,None,349.1308252001181,349.1308252001181,349.1308252001181,349.1308252001181,349.1308252001181,349.1308252001181,j,0.3106096996925771,349.4663015003316,349.4663015003316,349.4663015003316,349.4663015003316,349.4663015003316,349.4663015003316,349.763115900103,349.763115900103,350.7105694003403,350.7105694003403,350.7105694003403,350.7105694003403,350.7105694003403,350.7105694003403,350.7105694003403,350.7105694003403,350.7105694003403,350.7105694003403,350.7105694003403,350.7105694003403,350.7105694003403,350.7105694003403,350.7105694003403,350.7105694003403,350.7105694003403,353.21951680025086,353.21951680025086,353.21951680025086,353.21951680025086,353.21951680025086,60,31,53,85,85,52,6.0,1.7773694000206888,355.01415560021996,356.7769502000883,,,,,,,,,117,f,1,2022-12-11_16h07.20.815,RL,2022.2.4,60.14639629499411,
1,40,0,40,0,,,,,,,,,,None,356.7769502000883,356.7769502000883,356.7769502000883,356.7769502000883,356.7769502000883,356.7769502000883,j,0.5406082002446055,357.34661300014704,357.34661300014704,357.34661300014704,357.34661300014704,357.34661300014704,357.34661300014704,357.64150010002777,357.64150010002777,359.0543337999843,359.0543337999843,359.07050260016695,359.07050260016695,359.07050260016695,359.07050260016695,359.07050260016695,359.07050260016695,359.07050260016695,359.07050260016695,359.07050260016695,359.07050260016695,359.07050260016695,359.07050260016695,359.07050260016695,359.07050260016695,359.07050260016695,361.5797272999771,361.5797272999771,361.5797272999771,361.5797272999771,361.5797272999771,60,30,46,88,88,55,6.0,1.1309332000091672,362.7265513003804,364.256448100321,,,,,,,,,117,f,1,2022-12-11_16h07.20.815,RL,2022.2.4,60.14639629499411,
1,41,0,41,0,,,,,,,,,,None,364.256448100321,364.256448100321,364.256448100321,364.256448100321,364.256448100321,364.256448100321,j,0.37323209969326854,364.6584981000051,364.6584981000051,364.6584981000051,364.6584981000051,364.6584981000051,364.6584981000051,364.9546019001864,364.9546019001864,365.9354952001013,365.9354952001013,365.9354952001013,365.9354952001013,365.9354952001013,365.9354952001013,365.9354952001013,365.9354952001013,365.9354952001013,365.9354952001013,365.9354952001013,365.9354952001013,365.9354952001013,365.9354952001013,365.9354952001013,365.9354952001013,365.9354952001013,368.44457800034434,368.44457800034434,368.44457800034434,368.44457800034434,368.44457800034434,47,26,42,90,90,53,6.0,0.7303229002282023,369.19200689997524,371.104163300246,,,,,,,,,117,f,1,2022-12-11_16h07.20.815,RL,2022.2.4,60.14639629499411,
1,42,0,42,0,,,,,,,,,,None,371.104163300246,371.104163300246,371.104163300246,371.104163300246,371.104163300246,371.104163300246,j,0.24868680024519563,371.3727208999917,371.3727208999917,371.3727208999917,371.3727208999917,371.3727208999917,371.3727208999917,371.6698427000083,371.6698427000083,373.331565100234,373.331565100234,373.34857639996335,373.34857639996335,373.34857639996335,373.34857639996335,373.34857639996335,373.34857639996335,373.34857639996335,373.34857639996335,373.34857639996335,373.34857639996335,373.34857639996335,373.34857639996335,373.34857639996335,373.34857639996335,373.34857639996335,375.8575228000991,375.8575228000991,375.8575228000991,375.8575228000991,375.8575228000991,55,31,52,82,82,42,6.0,0.7138427998870611,376.5887972000055,378.28452220000327,,,,,,,,,117,f,1,2022-12-11_16h07.20.815,RL,2022.2.4,60.14639629499411,
1,43,0,43,0,,,,,,,,,,None,378.28452220000327,378.28452220000327,378.28452220000327,378.28452220000327,378.28452220000327,378.28452220000327,j,0.3009843002073467,378.6193317002617,378.6193317002617,378.6193317002617,378.6193317002617,378.6193317002617,378.6193317002617,378.9163826000877,378.9163826000877,379.8974863002077,379.8974863002077,379.8974863002077,379.8974863002077,379.8974863002077,379.8974863002077,379.8974863002077,379.8974863002077,379.8974863002077,379.8974863002077,379.8974863002077,379.8974863002077,379.8974863002077,379.8974863002077,379.8974863002077,379.8974863002077,379.8974863002077,382.4061855999753,382.4061855999753,382.4061855999753,382.4061855999753,382.4061855999753,63,22,48,89,89,52,6.0,0.7469735997729003,383.17090310016647,384.95020260009915,,,,,,,,,117,f,1,2022-12-11_16h07.20.815,RL,2022.2.4,60.14639629499411,
1,44,0,44,0,,,,,,,,,,None,384.95020260009915,384.95020260009915,384.95020260009915,384.95020260009915,384.95020260009915,384.95020260009915,j,0.2479994003660977,385.2164595001377,385.2164595001377,385.2164595001377,385.2164595001377,385.2164595001377,385.2164595001377,385.51538880029693,385.51538880029693,387.4436040003784,387.4436040003784,387.4436040003784,387.4436040003784,387.4436040003784,387.4436040003784,387.4436040003784,387.4436040003784,387.4436040003784,387.4436040003784,387.4436040003784,387.4436040003784,387.4436040003784,387.4436040003784,387.4436040003784,387.4436040003784,387.4436040003784,389.95257870014757,389.95257870014757,389.95257870014757,389.95257870014757,389.95257870014757,50,25,54,91,91,33,6.0,0.7315167998895049,390.700458700303,392.496225300245,,,,,,,,,117,f,1,2022-12-11_16h07.20.815,RL,2022.2.4,60.14639629499411,
1,45,0,45,0,,,,,,,,,,None,392.496225300245,392.496225300245,392.496225300245,392.496225300245,392.496225300245,392.496225300245,j,0.32413139985874295,392.8476118003018,392.8476118003018,392.8476118003018,392.8476118003018,392.8476118003018,392.8476118003018,393.14437670027837,393.14437670027837,395.02301130024716,395.02301130024716,395.02301130024716,395.02301130024716,395.02301130024716,395.02301130024716,395.02301130024716,395.02301130024716,395.02301130024716,395.02301130024716,395.02301130024716,395.02301130024716,395.02301130024716,395.02301130024716,395.02301130024716,395.02301130024716,395.02301130024716,397.53188870009035,397.53188870009035,397.53188870009035,397.53188870009035,397.53188870009035,53,35,46,89,89,54,6.0,0.8140419996343553,398.36273240018636,400.12506330013275,,,,,,,,,117,f,1,2022-12-11_16h07.20.815,RL,2022.2.4,60.14639629499411,
1,46,0,46,0,,,,,,,,,,None,400.12506330013275,400.12506330013275,400.12506330013275,400.12506330013275,400.12506330013275,400.12506330013275,j,0.3064446998760104,400.45997690036893,400.45997690036893,400.45997690036893,400.45997690036893,400.45997690036893,400.45997690036893,400.7573371003382,400.7573371003382,401.6881420002319,401.6881420002319,401.6881420002319,401.6881420002319,401.6881420002319,401.6881420002319,401.6881420002319,401.6881420002319,401.6881420002319,401.6881420002319,401.6881420002319,401.6881420002319,401.6881420002319,401.6881420002319,401.6881420002319,401.6881420002319,401.6881420002319,404.19715590029955,404.19715590029955,404.19715590029955,404.19715590029955,404.19715590029955,46,17,50,77,77,57,6.0,1.1462997999042273,405.36033690022305,407.13921150006354,,,,,,,,,117,f,1,2022-12-11_16h07.20.815,RL,2022.2.4,60.14639629499411,
1,47,0,47,0,,,,,,,,,,None,407.13921150006354,407.13921150006354,407.13921150006354,407.13921150006354,407.13921150006354,407.13921150006354,j,0.309818800073117,407.47392700007185,407.47392700007185,407.47392700007185,407.47392700007185,407.47392700007185,407.47392700007185,407.7712508002296,407.7712508002296,408.7019577003084,408.7019577003084,408.7187956003472,408.7187956003472,408.7187956003472,408.7187956003472,408.7187956003472,408.7187956003472,408.7187956003472,408.7187956003472,408.7187956003472,408.7187956003472,408.7187956003472,408.7187956003472,408.7187956003472,408.7187956003472,408.7187956003472,411.22791590029374,411.22791590029374,411.22791590029374,411.22791590029374,411.22791590029374,53,30,47,83,83,51,6.0,0.8469312000088394,412.0919703003019,413.7711633001454,,,,,,,,,117,f,1,2022-12-11_16h07.20.815,RL,2022.2.4,60.14639629499411,
1,48,0,48,0,,,,,,,,,,None,413.7711633001454,413.7711633001454,413.7711633001454,413.7711633001454,413.7711633001454,413.7711633001454,j,0.3860169998370111,414.1896563000046,414.1896563000046,414.1896563000046,414.1896563000046,414.1896563000046,414.1896563000046,414.48649960011244,414.48649960011244,416.14817000040784,416.14817000040784,416.14817000040784,416.14817000040784,416.14817000040784,416.14817000040784,416.14817000040784,416.14817000040784,416.14817000040784,416.14817000040784,416.14817000040784,416.14817000040784,416.14817000040784,416.14817000040784,416.14817000040784,416.14817000040784,416.14817000040784,418.65758490003645,418.65758490003645,418.65758490003645,418.65758490003645,418.65758490003645,41,17,53,78,78,53,6.0,0.6471691997721791,419.3222195999697,420.85206180019304,,,,,,,,,117,f,1,2022-12-11_16h07.20.815,RL,2022.2.4,60.14639629499411,
1,49,0,49,0,,,,,,,,,,None,420.85206180019304,420.85206180019304,420.85206180019304,420.85206180019304,420.85206180019304,420.85206180019304,j,0.2634965996257961,421.13860259996727,421.13860259996727,421.13860259996727,421.13860259996727,421.13860259996727,421.13860259996727,421.43434699997306,421.43434699997306,422.68048200011253,422.68048200011253,422.6973322001286,422.6973322001286,422.6973322001286,422.6973322001286,422.6973322001286,422.6973322001286,422.6973322001286,422.6973322001286,422.6973322001286,422.6973322001286,422.6973322001286,422.6973322001286,422.6973322001286,422.6973322001286,422.6973322001286,425.20623040013015,425.20623040013015,425.20623040013015,425.20623040013015,425.20623040013015,50,31,57,79,79,43,6.0,0.8129679998382926,426.0374748003669,427.94923730008304,,,,,,,,,117,f,1,2022-12-11_16h07.20.815,RL,2022.2.4,60.14639629499411,
1,50,0,50,0,,,,,,,,,,None,427.94923730008304,427.94923730008304,427.94923730008304,427.94923730008304,427.94923730008304,427.94923730008304,j,0.27355320006608963,428.25376650039107,428.25376650039107,428.25376650039107,428.25376650039107,428.25376650039107,428.25376650039107,428.54803499998525,428.54803499998525,430.45908960001543,430.45908960001543,430.47587250033394,430.47587250033394,430.47587250033394,430.47587250033394,430.47587250033394,430.47587250033394,430.47587250033394,430.47587250033394,430.47587250033394,430.47587250033394,430.47587250033394,430.47587250033394,430.47587250033394,430.47587250033394,430.47587250033394,432.98514330014586,432.98514330014586,432.98514330014586,432.98514330014586,432.98514330014586,43,23,52,74,74,43,6.0,0.730365099851042,433.7328199003823,435.6614288999699,,,,,,,,,117,f,1,2022-12-11_16h07.20.815,RL,2022.2.4,60.14639629499411,
1,51,0,51,0,,,,,,,,,,None,435.6614288999699,435.6614288999699,435.6614288999699,435.6614288999699,435.6614288999699,435.6614288999699,j,0.4085679999552667,436.0957283000462,436.0957283000462,436.0957283000462,436.0957283000462,436.0957283000462,436.0957283000462,436.39333220012486,436.39333220012486,438.1881249002181,438.1881249002181,438.1881249002181,438.1881249002181,438.1881249002181,438.1881249002181,438.1881249002181,438.1881249002181,438.1881249002181,438.1881249002181,438.1881249002181,438.1881249002181,438.1881249002181,438.1881249002181,438.1881249002181,438.1881249002181,438.1881249002181,440.6978309000842,440.6978309000842,440.6978309000842,440.6978309000842,440.6978309000842,32,21,42,77,77,49,6.0,0.8303761002607644,441.54501290014014,443.22416790015996,,,,,,,,,117,f,1,2022-12-11_16h07.20.815,RL,2022.2.4,60.14639629499411,
1,52,0,52,0,,,,,,,,,,None,443.22416790015996,443.22416790015996,443.22416790015996,443.22416790015996,443.22416790015996,443.22416790015996,j,0.23856390034779906,443.4930838001892,443.4930838001892,443.4930838001892,443.4930838001892,443.4930838001892,443.4930838001892,443.78965050028637,443.78965050028637,445.2188957002945,445.2188957002945,445.23546510003507,445.23546510003507,445.23546510003507,445.23546510003507,445.23546510003507,445.23546510003507,445.23546510003507,445.23546510003507,445.23546510003507,445.23546510003507,445.23546510003507,445.23546510003507,445.23546510003507,445.23546510003507,445.23546510003507,447.744731400162,447.744731400162,447.744731400162,447.744731400162,447.744731400162,44,22,49,64,64,35,6.0,0.8305383999831975,448.5924717001617,450.1053943000734,,,,,,,,,117,f,1,2022-12-11_16h07.20.815,RL,2022.2.4,60.14639629499411,
1,53,0,53,0,,,,,,,,,,None,450.1053943000734,450.1053943000734,450.1053943000734,450.1053943000734,450.1053943000734,450.1053943000734,j,0.3193262000568211,450.4572896002792,450.4572896002792,450.4572896002792,450.4572896002792,450.4572896002792,450.4572896002792,450.7542105000466,450.7542105000466,451.684625599999,451.684625599999,451.684625599999,451.684625599999,451.684625599999,451.684625599999,451.684625599999,451.684625599999,451.684625599999,451.684625599999,451.684625599999,451.684625599999,451.684625599999,451.684625599999,451.684625599999,451.684625599999,451.684625599999,454.19385359995067,454.19385359995067,454.19385359995067,454.19385359995067,454.19385359995067,36,21,50,69,69,32,6.0,0.7975731999613345,455.00836610002443,456.7705613002181,,,,,,,,,117,f,1,2022-12-11_16h07.20.815,RL,2022.2.4,60.14639629499411,
1,54,0,54,0,,,,,,,,,,None,456.7705613002181,456.7705613002181,456.7705613002181,456.7705613002181,456.7705613002181,456.7705613002181,j,0.35827359976246953,457.15528570022434,457.15528570022434,457.15528570022434,457.15528570022434,457.15528570022434,457.15528570022434,457.45243850024417,457.45243850024417,458.94843049999326,458.94843049999326,458.96462580002844,458.96462580002844,458.96462580002844,458.96462580002844,458.96462580002844,458.96462580002844,458.96462580002844,458.96462580002844,458.96462580002844,458.96462580002844,458.96462580002844,458.96462580002844,458.96462580002844,458.96462580002844,458.96462580002844,461.47400050004944,461.47400050004944,461.47400050004944,461.47400050004944,461.47400050004944,45,13,47,79,79,43,6.0,1.211507299914956,462.70366210024804,464.25025230040774,,,,,,,,,117,f,1,2022-12-11_16h07.20.815,RL,2022.2.4,60.14639629499411,
1,55,0,55,0,,,,,,,,,,None,464.25025230040774,464.25025230040774,464.25025230040774,464.25025230040774,464.25025230040774,464.25025230040774,j,0.26117360033094883,464.53580630011857,464.53580630011857,464.53580630011857,464.53580630011857,464.53580630011857,464.53580630011857,464.83235150016844,464.83235150016844,465.82932030037045,465.82932030037045,465.82932030037045,465.82932030037045,465.82932030037045,465.82932030037045,465.82932030037045,465.82932030037045,465.82932030037045,465.82932030037045,465.82932030037045,465.82932030037045,465.82932030037045,465.82932030037045,465.82932030037045,465.82932030037045,465.82932030037045,468.3383575002663,468.3383575002663,468.3383575002663,468.3383575002663,468.3383575002663,48,23,53,77,77,65,6.0,1.063059899955988,469.41889620013535,471.18157530017197,,,,,,,,,117,f,1,2022-12-11_16h07.20.815,RL,2022.2.4,60.14639629499411,
1,56,0,56,0,,,,,,,,,,None,471.18157530017197,471.18157530017197,471.18157530017197,471.18157530017197,471.18157530017197,471.18157530017197,j,0.6475514997728169,471.8492053002119,471.8492053002119,471.8492053002119,471.8492053002119,471.8492053002119,471.8492053002119,472.145993700251,472.145993700251,472.9604474999942,472.9604474999942,472.9604474999942,472.9604474999942,472.9604474999942,472.9604474999942,472.9604474999942,472.9604474999942,472.9604474999942,472.9604474999942,472.9604474999942,472.9604474999942,472.9604474999942,472.9604474999942,472.9604474999942,472.9604474999942,472.9604474999942,475.46922840038314,475.46922840038314,475.46922840038314,475.46922840038314,475.46922840038314,40,9,57,78,78,64,6.0,1.1627890998497605,476.6496208002791,478.24520540004596,,,,,,,,,117,f,1,2022-12-11_16h07.20.815,RL,2022.2.4,60.14639629499411,
1,57,0,57,0,,,,,,,,,,None,478.24520540004596,478.24520540004596,478.24520540004596,478.24520540004596,478.24520540004596,478.24520540004596,j,0.2671945998445153,478.5473962002434,478.5473962002434,478.5473962002434,478.5473962002434,478.5473962002434,478.5473962002434,478.84456420037895,478.84456420037895,480.5391780002974,480.5391780002974,480.5391780002974,480.5391780002974,480.5391780002974,480.5391780002974,480.5391780002974,480.5391780002974,480.5391780002974,480.5391780002974,480.5391780002974,480.5391780002974,480.5391780002974,480.5391780002974,480.5391780002974,480.5391780002974,480.5391780002974,483.0484751001932,483.0484751001932,483.0484751001932,483.0484751001932,483.0484751001932,43,14,45,76,76,57,5.0,0.9629087001085281,484.02926340000704,485.57557100011036,,,,,,,,,117,f,1,2022-12-11_16h07.20.815,RL,2022.2.4,60.14639629499411,
1,58,0,58,0,,,,,,,,,,None,485.57557100011036,485.57557100011036,485.57557100011036,485.57557100011036,485.57557100011036,485.57557100011036,j,0.3997287000529468,486.0100606000051,486.0100606000051,486.0100606000051,486.0100606000051,486.0100606000051,486.0100606000051,486.306940600276,486.306940600276,487.53712330013514,487.53712330013514,487.53712330013514,487.53712330013514,487.53712330013514,487.53712330013514,487.53712330013514,487.53712330013514,487.53712330013514,487.53712330013514,487.53712330013514,487.53712330013514,487.53712330013514,487.53712330013514,487.53712330013514,487.53712330013514,487.53712330013514,490.04600250022486,490.04600250022486,490.04600250022486,490.04600250022486,490.04600250022486,45,11,49,75,75,54,5.0,0.7303160997107625,490.79387480020523,492.78896100027487,,,,,,,,,117,f,1,2022-12-11_16h07.20.815,RL,2022.2.4,60.14639629499411,
1,59,0,59,0,,,,,,,,,,None,492.78896100027487,492.78896100027487,492.78896100027487,492.78896100027487,492.78896100027487,492.78896100027487,j,0.25290080020204186,493.0737192002125,493.0737192002125,493.0737192002125,493.0737192002125,493.0737192002125,493.0737192002125,493.37105410033837,493.37105410033837,495.29931290028617,495.29931290028617,495.29931290028617,495.29931290028617,495.29931290028617,495.29931290028617,495.29931290028617,495.29931290028617,495.29931290028617,495.29931290028617,495.29931290028617,495.29931290028617,495.29931290028617,495.29931290028617,495.29931290028617,495.29931290028617,495.29931290028617,497.8080098000355,497.8080098000355,497.8080098000355,497.8080098000355,497.8080098000355,46,17,52,76,76,46,5.0,0.7805806002579629,498.60597950033844,500.46837879996747,,,,,,,,,117,f,1,2022-12-11_16h07.20.815,RL,2022.2.4,60.14639629499411,
1,60,0,60,0,,,,,,,,,,None,500.46837879996747,500.46837879996747,500.46837879996747,500.46837879996747,500.46837879996747,500.46837879996747,j,0.3606485999189317,500.8530127000995,500.8530127000995,500.8530127000995,500.8530127000995,500.8530127000995,500.8530127000995,501.1500848000869,501.1500848000869,501.99758910015225,501.99758910015225,502.01449150033295,502.01449150033295,502.01449150033295,502.01449150033295,502.01449150033295,502.01449150033295,502.01449150033295,502.01449150033295,502.01449150033295,502.01449150033295,502.01449150033295,502.01449150033295,502.01449150033295,502.01449150033295,502.01449150033295,504.523415800184,504.523415800184,504.523415800184,504.523415800184,504.523415800184,40,10,48,70,70,68,5.0,1.4777990002185106,506.0190175003372,507.9810480000451,,,,,,,,,117,f,1,2022-12-11_16h07.20.815,RL,2022.2.4,60.14639629499411,
1,61,0,61,0,,,,,,,,,,None,507.9810480000451,507.9810480000451,507.9810480000451,507.9810480000451,507.9810480000451,507.9810480000451,j,0.27525610011070967,508.28258320037276,508.28258320037276,508.28258320037276,508.28258320037276,508.28258320037276,508.28258320037276,508.5794966001995,508.5794966001995,509.4602761999704,509.4602761999704,509.4773478000425,509.4773478000425,509.4773478000425,509.4773478000425,509.4773478000425,509.4773478000425,509.4773478000425,509.4773478000425,509.4773478000425,509.4773478000425,509.4773478000425,509.4773478000425,509.4773478000425,509.4773478000425,509.4773478000425,511.98598120035604,511.98598120035604,511.98598120035604,511.98598120035604,511.98598120035604,42,8,50,68,68,50,4.0,1.129594299942255,513.13289730018,515.0617708000354,,,,,,,,,117,f,1,2022-12-11_16h07.20.815,RL,2022.2.4,60.14639629499411,
1,62,0,62,0,,,,,,,,,,None,515.0617708000354,515.0617708000354,515.0617708000354,515.0617708000354,515.0617708000354,515.0617708000354,j,0.40179539984092116,515.4965668004006,515.4965668004006,515.4965668004006,515.4965668004006,515.4965668004006,515.4965668004006,515.7932286001742,515.7932286001742,517.0729162003845,517.0729162003845,517.0895824003965,517.0895824003965,517.0895824003965,517.0895824003965,517.0895824003965,517.0895824003965,517.0895824003965,517.0895824003965,517.0895824003965,517.0895824003965,517.0895824003965,517.0895824003965,517.0895824003965,517.0895824003965,517.0895824003965,519.5985811003484,519.5985811003484,519.5985811003484,519.5985811003484,519.5985811003484,46,16,49,60,60,69,4.0,1.0133247999474406,520.6292690001428,522.3917495999485,,,,,,,,,117,f,1,2022-12-11_16h07.20.815,RL,2022.2.4,60.14639629499411,
1,63,0,63,0,,,,,,,,,,None,522.3917495999485,522.3917495999485,522.3917495999485,522.3917495999485,522.3917495999485,522.3917495999485,j,0.3785888999700546,522.7930870000273,522.7930870000273,522.7930870000273,522.7930870000273,522.7930870000273,522.7930870000273,523.0898859002627,523.0898859002627,524.3033286002465,524.3033286002465,524.3033286002465,524.3033286002465,524.3033286002465,524.3033286002465,524.3033286002465,524.3033286002465,524.3033286002465,524.3033286002465,524.3033286002465,524.3033286002465,524.3033286002465,524.3033286002465,524.3033286002465,524.3033286002465,524.3033286002465,526.8126421002671,526.8126421002671,526.8126421002671,526.8126421002671,526.8126421002671,46,8,42,68,68,54,4.0,0.7796529000625014,527.6100775999948,529.306326800026,,,,,,,,,117,f,1,2022-12-11_16h07.20.815,RL,2022.2.4,60.14639629499411,
1,64,0,64,0,,,,,,,,,,None,529.306326800026,529.306326800026,529.306326800026,529.306326800026,529.306326800026,529.306326800026,j,0.4014361002482474,529.7409316003323,529.7409316003323,529.7409316003323,529.7409316003323,529.7409316003323,529.7409316003323,530.0379556999542,530.0379556999542,531.4672660003416,531.4672660003416,531.4672660003416,531.4672660003416,531.4672660003416,531.4672660003416,531.4672660003416,531.4672660003416,531.4672660003416,531.4672660003416,531.4672660003416,531.4672660003416,531.4672660003416,531.4672660003416,531.4672660003416,531.4672660003416,531.4672660003416,533.9762729001231,533.9762729001231,533.9762729001231,533.9762729001231,533.9762729001231,43,10,48,56,56,59,4.0,0.7133133998140693,534.7074546003714,536.6192661002278,,,,,,,,,117,f,1,2022-12-11_16h07.20.815,RL,2022.2.4,60.14639629499411,
1,65,0,65,0,,,,,,,,,,None,536.6192661002278,536.6192661002278,536.6192661002278,536.6192661002278,536.6192661002278,536.6192661002278,j,0.37637569988146424,537.0212976001203,537.0212976001203,537.0212976001203,537.0212976001203,537.0212976001203,537.0212976001203,537.3181716003455,537.3181716003455,538.6806042003445,538.6806042003445,538.6806042003445,538.6806042003445,538.6806042003445,538.6806042003445,538.6806042003445,538.6806042003445,538.6806042003445,538.6806042003445,538.6806042003445,538.6806042003445,538.6806042003445,538.6806042003445,538.6806042003445,538.6806042003445,538.6806042003445,541.1897681001574,541.1897681001574,541.1897681001574,541.1897681001574,541.1897681001574,44,4,53,59,59,58,4.0,0.680559900123626,541.8880263003521,543.5007792003453,,,,,,,,,117,f,1,2022-12-11_16h07.20.815,RL,2022.2.4,60.14639629499411,
1,66,0,66,0,,,,,,,,,,None,543.5007792003453,543.5007792003453,543.5007792003453,543.5007792003453,543.5007792003453,543.5007792003453,j,0.27797980001196265,543.8017313000746,543.8017313000746,543.8017313000746,543.8017313000746,543.8017313000746,543.8017313000746,544.0994814001024,544.0994814001024,545.1299113002606,545.1299113002606,545.1299113002606,545.1299113002606,545.1299113002606,545.1299113002606,545.1299113002606,545.1299113002606,545.1299113002606,545.1299113002606,545.1299113002606,545.1299113002606,545.1299113002606,545.1299113002606,545.1299113002606,545.1299113002606,545.1299113002606,547.6389602003619,547.6389602003619,547.6389602003619,547.6389602003619,547.6389602003619,46,2,44,64,64,62,4.0,0.6800707997754216,548.3370970999822,549.9333063000813,,,,,,,,,117,f,1,2022-12-11_16h07.20.815,RL,2022.2.4,60.14639629499411,
1,67,0,67,0,,,,,,,,,,None,549.9333063000813,549.9333063000813,549.9333063000813,549.9333063000813,549.9333063000813,549.9333063000813,j,0.24865289963781834,550.1996563002467,550.1996563002467,550.1996563002467,550.1996563002467,550.1996563002467,550.1996563002467,550.4988868003711,550.4988868003711,552.2435979000293,552.2435979000293,552.2435979000293,552.2435979000293,552.2435979000293,552.2435979000293,552.2435979000293,552.2435979000293,552.2435979000293,552.2435979000293,552.2435979000293,552.2435979000293,552.2435979000293,552.2435979000293,552.2435979000293,552.2435979000293,552.2435979000293,554.7532141003758,554.7532141003758,554.7532141003758,554.7532141003758,554.7532141003758,43,6,44,60,60,56,4.0,0.8463531997986138,555.617358200252,557.1470621000044,,,,,,,,,117,f,1,2022-12-11_16h07.20.815,RL,2022.2.4,60.14639629499411,
1,68,0,68,0,,,,,,,,,,None,557.1470621000044,557.1470621000044,557.1470621000044,557.1470621000044,557.1470621000044,557.1470621000044,j,0.3477407000027597,557.51732120011,557.51732120011,557.51732120011,557.51732120011,557.51732120011,557.51732120011,557.8121061003767,557.8121061003767,559.1414372003637,559.1414372003637,559.1580385002308,559.1580385002308,559.1580385002308,559.1580385002308,559.1580385002308,559.1580385002308,559.1580385002308,559.1580385002308,559.1580385002308,559.1580385002308,559.1580385002308,559.1580385002308,559.1580385002308,559.1580385002308,559.1580385002308,561.6672384003177,561.6672384003177,561.6672384003177,561.6672384003177,561.6672384003177,46,2,47,44,44,48,3.0,0.9966998002491891,562.6811910001561,564.6597648002207,,,,,,,,,117,f,1,2022-12-11_16h07.20.815,RL,2022.2.4,60.14639629499411,
1,69,0,69,0,,,,,,,,,,None,564.6597648002207,564.6597648002207,564.6597648002207,564.6597648002207,564.6597648002207,564.6597648002207,r,0.34736450016498566,565.0269367001019,565.0269367001019,565.0269367001019,565.0269367001019,565.0269367001019,565.0269367001019,565.3246732000262,565.3246732000262,566.7876059003174,566.7876059003174,566.7876059003174,566.7876059003174,566.7876059003174,566.7876059003174,566.7876059003174,566.7876059003174,566.7876059003174,566.7876059003174,566.7876059003174,566.7876059003174,566.7876059003174,566.7876059003174,566.7876059003174,566.7876059003174,566.7876059003174,569.2966073001735,569.2966073001735,569.2966073001735,569.2966073001735,569.2966073001735,43,14,43,61,43,43,4.0,1.5448770001530647,570.8585752001964,572.5380959003232,,,,,,,,,117,f,1,2022-12-11_16h07.20.815,RL,2022.2.4,60.14639629499411,
1,70,0,70,0,,,,,,,,,,None,572.5380959003232,572.5380959003232,572.5380959003232,572.5380959003232,572.5380959003232,572.5380959003232,j,0.37553009996190667,572.9386809002608,572.9386809002608,572.9386809002608,572.9386809002608,572.9386809002608,572.9386809002608,573.2363877999596,573.2363877999596,574.9649660000578,574.9649660000578,574.9649660000578,574.9649660000578,574.9649660000578,574.9649660000578,574.9649660000578,574.9649660000578,574.9649660000578,574.9649660000578,574.9649660000578,574.9649660000578,574.9649660000578,574.9649660000578,574.9649660000578,574.9649660000578,574.9649660000578,577.4740887000225,577.4740887000225,577.4740887000225,577.4740887000225,577.4740887000225,46,4,49,55,55,56,4.0,0.7625082000158727,578.2552763000131,580.2503682002425,,,,,,,,,117,f,1,2022-12-11_16h07.20.815,RL,2022.2.4,60.14639629499411,
1,71,0,71,0,,,,,,,,,,None,580.2503682002425,580.2503682002425,580.2503682002425,580.2503682002425,580.2503682002425,580.2503682002425,j,0.2654770999215543,580.551451400388,580.551451400388,580.551451400388,580.551451400388,580.551451400388,580.551451400388,580.8489411999471,580.8489411999471,582.4611069001257,582.4611069001257,582.4611069001257,582.4611069001257,582.4611069001257,582.4611069001257,582.4611069001257,582.4611069001257,582.4611069001257,582.4611069001257,582.4611069001257,582.4611069001257,582.4611069001257,582.4611069001257,582.4611069001257,582.4611069001257,582.4611069001257,584.9702460002154,584.9702460002154,584.9702460002154,584.9702460002154,584.9702460002154,48,7,48,53,53,55,4.0,0.6974647999741137,585.6849249000661,587.1984247001819,,,,,,,,,117,f,1,2022-12-11_16h07.20.815,RL,2022.2.4,60.14639629499411,
1,72,0,72,0,,,,,,,,,,None,587.1984247001819,587.1984247001819,587.1984247001819,587.1984247001819,587.1984247001819,587.1984247001819,j,0.5097968000918627,587.7331729000434,587.7331729000434,587.7331729000434,587.7331729000434,587.7331729000434,587.7331729000434,588.0293708001263,588.0293708001263,589.2095389999449,589.2095389999449,589.2095389999449,589.2095389999449,589.2095389999449,589.2095389999449,589.2095389999449,589.2095389999449,589.2095389999449,589.2095389999449,589.2095389999449,589.2095389999449,589.2095389999449,589.2095389999449,589.2095389999449,589.2095389999449,589.2095389999449,591.7186758001335,591.7186758001335,591.7186758001335,591.7186758001335,591.7186758001335,53,8,44,53,53,68,4.0,0.9964927998371422,592.7325638001785,594.4120019003749,,,,,,,,,117,f,1,2022-12-11_16h07.20.815,RL,2022.2.4,60.14639629499411,
1,73,0,73,0,,,,,,,,,,None,594.4120019003749,594.4120019003749,594.4120019003749,594.4120019003749,594.4120019003749,594.4120019003749,j,0.36544790025800467,594.8139749001712,594.8139749001712,594.8139749001712,594.8139749001712,594.8139749001712,594.8139749001712,595.1103691002354,595.1103691002354,596.2401344999671,596.2401344999671,596.2401344999671,596.2401344999671,596.2401344999671,596.2401344999671,596.2401344999671,596.2401344999671,596.2401344999671,596.2401344999671,596.2401344999671,596.2401344999671,596.2401344999671,596.2401344999671,596.2401344999671,596.2401344999671,596.2401344999671,598.749947800301,598.749947800301,598.749947800301,598.749947800301,598.749947800301,44,15,49,58,58,69,4.0,0.7968069002963603,599.5637664003298,601.5260433000512,,,,,,,,,117,f,1,2022-12-11_16h07.20.815,RL,2022.2.4,60.14639629499411,
1,74,0,74,0,,,,,,,,,,None,601.5260433000512,601.5260433000512,601.5260433000512,601.5260433000512,601.5260433000512,601.5260433000512,j,0.2945054997690022,601.8438244001009,601.8438244001009,601.8438244001009,601.8438244001009,601.8438244001009,601.8438244001009,602.1408084002323,602.1408084002323,603.7366273002699,603.7366273002699,603.7366273002699,603.7366273002699,603.7366273002699,603.7366273002699,603.7366273002699,603.7366273002699,603.7366273002699,603.7366273002699,603.7366273002699,603.7366273002699,603.7366273002699,603.7366273002699,603.7366273002699,603.7366273002699,603.7366273002699,606.2455888004042,606.2455888004042,606.2455888004042,606.2455888004042,606.2455888004042,49,11,41,62,62,69,4.0,0.8979581999592483,607.1599108004011,608.9049072000198,,,,,,,,,117,f,1,2022-12-11_16h07.20.815,RL,2022.2.4,60.14639629499411,
1,75,0,75,0,,,,,,,,,,q,660.680919600185,660.680919600185,660.680919600185,660.680919600185,660.680919600185,660.680919600185,f,0.9519305001012981,661.6654807003215,661.6654807003215,661.6654807003215,661.6654807003215,661.6654807003215,661.6654807003215,661.9610137999989,661.9610137999989,663.4239194002002,663.4239194002002,663.4239194002002,663.4239194002002,663.4239194002002,663.4239194002002,663.4239194002002,663.4239194002002,663.4239194002002,663.4239194002002,663.4239194002002,663.4239194002002,663.4239194002002,663.4239194002002,663.4239194002002,663.4239194002002,663.4239194002002,665.9332727002911,665.9332727002911,665.9332727002911,665.9332727002911,665.9332727002911,41,8,50,59,8,51,3.0,2.210737199988216,668.159970600158,669.7397599001415,,,608.9049072000198,608.9049072000198,51.754136600065976,,,,117,f,1,2022-12-11_16h07.20.815,RL,2022.2.4,60.14639629499411,
1,76,0,76,0,,,,,,,,,,None,669.7397599001415,669.7397599001415,669.7397599001415,669.7397599001415,669.7397599001415,669.7397599001415,j,0.27977559994906187,670.0402505001985,670.0402505001985,670.0402505001985,670.0402505001985,670.0402505001985,670.0402505001985,670.3385648000985,670.3385648000985,672.1167681002989,672.1167681002989,672.1167681002989,672.1167681002989,672.1167681002989,672.1167681002989,672.1167681002989,672.1167681002989,672.1167681002989,672.1167681002989,672.1167681002989,672.1167681002989,672.1167681002989,672.1167681002989,672.1167681002989,672.1167681002989,672.1167681002989,674.6259967000224,674.6259967000224,674.6259967000224,674.6259967000224,674.6259967000224,39,7,54,56,56,64,4.0,1.5608366997912526,676.2049489002675,677.9006409002468,,,,,,,,,117,f,1,2022-12-11_16h07.20.815,RL,2022.2.4,60.14639629499411,
1,77,0,77,0,,,,,,,,,,None,677.9006409002468,677.9006409002468,677.9006409002468,677.9006409002468,677.9006409002468,677.9006409002468,j,0.2718556998297572,678.2030088002793,678.2030088002793,678.2030088002793,678.2030088002793,678.2030088002793,678.2030088002793,678.4992513000034,678.4992513000034,680.0118816001341,680.0118816001341,680.0118816001341,680.0118816001341,680.0118816001341,680.0118816001341,680.0118816001341,680.0118816001341,680.0118816001341,680.0118816001341,680.0118816001341,680.0118816001341,680.0118816001341,680.0118816001341,680.0118816001341,680.0118816001341,680.0118816001341,682.5208893003874,682.5208893003874,682.5208893003874,682.5208893003874,682.5208893003874,25,9,47,55,55,57,4.0,0.7302704001776874,683.2687707003206,684.9315801002085,,,,,,,,,117,f,1,2022-12-11_16h07.20.815,RL,2022.2.4,60.14639629499411,
1,78,0,78,0,,,,,,,,,,None,684.9315801002085,684.9315801002085,684.9315801002085,684.9315801002085,684.9315801002085,684.9315801002085,j,0.3480787998996675,685.2994881002232,685.2994881002232,685.2994881002232,685.2994881002232,685.2994881002232,685.2994881002232,685.5966202002019,685.5966202002019,686.6769008003175,686.6769008003175,686.6769008003175,686.6769008003175,686.6769008003175,686.6769008003175,686.6769008003175,686.6769008003175,686.6769008003175,686.6769008003175,686.6769008003175,686.6769008003175,686.6769008003175,686.6769008003175,686.6769008003175,686.6769008003175,686.6769008003175,689.1859562001191,689.1859562001191,689.1859562001191,689.1859562001191,689.1859562001191,36,4,49,68,68,60,5.0,0.9963921001181006,690.2000108002685,692.1117726000957,,,,,,,,,117,f,1,2022-12-11_16h07.20.815,RL,2022.2.4,60.14639629499411,
1,79,0,79,0,,,,,,,,,,None,692.1117726000957,692.1117726000957,692.1117726000957,692.1117726000957,692.1117726000957,692.1117726000957,j,0.2811935003846884,692.41425000038,692.41425000038,692.41425000038,692.41425000038,692.41425000038,692.41425000038,692.7104820003733,692.7104820003733,694.704894900322,694.704894900322,694.7215782003477,694.7215782003477,694.7215782003477,694.7215782003477,694.7215782003477,694.7215782003477,694.7215782003477,694.7215782003477,694.7215782003477,694.7215782003477,694.7215782003477,694.7215782003477,694.7215782003477,694.7215782003477,694.7215782003477,697.2309069000185,697.2309069000185,697.2309069000185,697.2309069000185,697.2309069000185,31,3,58,65,65,66,5.0,0.680299200117588,697.9288115003146,699.4753066999838,,,,,,,,,117,f,1,2022-12-11_16h07.20.815,RL,2022.2.4,60.14639629499411,
1,80,0,80,0,,,,,,,,,,None,699.4753066999838,699.4753066999838,699.4753066999838,699.4753066999838,699.4753066999838,699.4753066999838,j,0.23469029972329736,699.743479500059,699.743479500059,699.743479500059,699.743479500059,699.743479500059,699.743479500059,700.0404747002758,700.0404747002758,701.8190566999838,701.8190566999838,701.8190566999838,701.8190566999838,701.8190566999838,701.8190566999838,701.8190566999838,701.8190566999838,701.8190566999838,701.8190566999838,701.8190566999838,701.8190566999838,701.8190566999838,701.8190566999838,701.8190566999838,701.8190566999838,701.8190566999838,704.3282323000021,704.3282323000021,704.3282323000021,704.3282323000021,704.3282323000021,30,8,61,72,72,63,5.0,0.7141247997060418,705.0596147002652,706.6722645000555,,,,,,,,,117,f,1,2022-12-11_16h07.20.815,RL,2022.2.4,60.14639629499411,
1,81,0,81,0,,,,,,,,,,None,706.6722645000555,706.6722645000555,706.6722645000555,706.6722645000555,706.6722645000555,706.6722645000555,j,0.23390749981626868,706.94096180005,706.94096180005,706.94096180005,706.94096180005,706.94096180005,706.94096180005,707.2379553001374,707.2379553001374,709.1156371003017,709.1156371003017,709.1156371003017,709.1156371003017,709.1156371003017,709.1156371003017,709.1156371003017,709.1156371003017,709.1156371003017,709.1156371003017,709.1156371003017,709.1156371003017,709.1156371003017,709.1156371003017,709.1156371003017,709.1156371003017,709.1156371003017,711.624784400221,711.624784400221,711.624784400221,711.624784400221,711.624784400221,30,1,60,62,62,55,5.0,0.680008300114423,712.3226838000119,714.0524091003463,,,,,,,,,117,f,1,2022-12-11_16h07.20.815,RL,2022.2.4,60.14639629499411,
1,82,0,82,0,,,,,,,,,,None,714.0524091003463,714.0524091003463,714.0524091003463,714.0524091003463,714.0524091003463,714.0524091003463,j,0.2315457002259791,714.3032874003984,714.3032874003984,714.3032874003984,714.3032874003984,714.3032874003984,714.3032874003984,714.6007501003332,714.6007501003332,715.6809650999494,715.6809650999494,715.6809650999494,715.6809650999494,715.6809650999494,715.6809650999494,715.6809650999494,715.6809650999494,715.6809650999494,715.6809650999494,715.6809650999494,715.6809650999494,715.6809650999494,715.6809650999494,715.6809650999494,715.6809650999494,715.6809650999494,718.1901946002617,718.1901946002617,718.1901946002617,718.1901946002617,718.1901946002617,32,19,53,68,68,60,5.0,2.0946389003656805,720.3009461001493,722.0141095002182,,,,,,,,,117,f,1,2022-12-11_16h07.20.815,RL,2022.2.4,60.14639629499411,
1,83,0,83,0,,,,,,,,,,None,722.0141095002182,722.0141095002182,722.0141095002182,722.0141095002182,722.0141095002182,722.0141095002182,j,0.29192199977114797,722.3317877002992,722.3317877002992,722.3317877002992,722.3317877002992,722.3317877002992,722.3317877002992,722.6291638002731,722.6291638002731,723.7260279003531,723.7260279003531,723.7260279003531,723.7260279003531,723.7260279003531,723.7260279003531,723.7260279003531,723.7260279003531,723.7260279003531,723.7260279003531,723.7260279003531,723.7260279003531,723.7260279003531,723.7260279003531,723.7260279003531,723.7260279003531,723.7260279003531,726.2349853999913,726.2349853999913,726.2349853999913,726.2349853999913,726.2349853999913,33,17,57,75,75,45,6.0,1.3122841999866068,727.5646248003468,729.4936041003093,,,,,,,,,117,f,1,2022-12-11_16h07.20.815,RL,2022.2.4,60.14639629499411,
1,84,0,84,0,,,,,,,,,,None,729.4936041003093,729.4936041003093,729.4936041003093,729.4936041003093,729.4936041003093,729.4936041003093,j,0.27417710004374385,729.7949602999724,729.7949602999724,729.7949602999724,729.7949602999724,729.7949602999724,729.7949602999724,730.0922410003841,730.0922410003841,731.2224352001213,731.2224352001213,731.2224352001213,731.2224352001213,731.2224352001213,731.2224352001213,731.2224352001213,731.2224352001213,731.2224352001213,731.2224352001213,731.2224352001213,731.2224352001213,731.2224352001213,731.2224352001213,731.2224352001213,731.2224352001213,731.2224352001213,733.731344900094,733.731344900094,733.731344900094,733.731344900094,733.731344900094,29,13,60,62,62,66,5.0,0.9804869000799954,734.72829500027,736.3744542002678,,,,,,,,,117,f,1,2022-12-11_16h07.20.815,RL,2022.2.4,60.14639629499411,
1,85,0,85,0,,,,,,,,,,None,736.3744542002678,736.3744542002678,736.3744542002678,736.3744542002678,736.3744542002678,736.3744542002678,j,0.2668647998943925,736.6762085002847,736.6762085002847,736.6762085002847,736.6762085002847,736.6762085002847,736.6762085002847,736.9733166000806,736.9733166000806,738.0699995001778,738.0699995001778,738.0699995001778,738.0699995001778,738.0699995001778,738.0699995001778,738.0699995001778,738.0699995001778,738.0699995001778,738.0699995001778,738.0699995001778,738.0699995001778,738.0699995001778,738.0699995001778,738.0699995001778,738.0699995001778,738.0699995001778,740.5794468000531,740.5794468000531,740.5794468000531,740.5794468000531,740.5794468000531,26,15,50,70,70,63,5.0,0.7965957997366786,741.3937356001697,742.9236089000478,,,,,,,,,117,f,1,2022-12-11_16h07.20.815,RL,2022.2.4,60.14639629499411,
1,86,0,86,0,,,,,,,,,,None,742.9236089000478,742.9236089000478,742.9236089000478,742.9236089000478,742.9236089000478,742.9236089000478,j,0.21578049985691905,743.174932199996,743.174932199996,743.174932199996,743.174932199996,743.174932199996,743.174932199996,743.472178300377,743.472178300377,744.7352754999883,744.7352754999883,744.7521301000379,744.7521301000379,744.7521301000379,744.7521301000379,744.7521301000379,744.7521301000379,744.7521301000379,744.7521301000379,744.7521301000379,744.7521301000379,744.7521301000379,744.7521301000379,744.7521301000379,744.7521301000379,744.7521301000379,747.2610864001326,747.2610864001326,747.2610864001326,747.2610864001326,747.2610864001326,30,25,49,74,74,58,5.0,1.0798372998833656,748.3581402003765,750.0703528001904,,,,,,,,,117,f,1,2022-12-11_16h07.20.815,RL,2022.2.4,60.14639629499411,
1,87,0,87,0,,,,,,,,,,None,750.0703528001904,750.0703528001904,750.0703528001904,750.0703528001904,750.0703528001904,750.0703528001904,j,0.25693870009854436,750.3549430002458,750.3549430002458,750.3549430002458,750.3549430002458,750.3549430002458,750.3549430002458,750.6527162999846,750.6527162999846,752.4143024003133,752.4143024003133,752.4143024003133,752.4143024003133,752.4143024003133,752.4143024003133,752.4143024003133,752.4143024003133,752.4143024003133,752.4143024003133,752.4143024003133,752.4143024003133,752.4143024003133,752.4143024003133,752.4143024003133,752.4143024003133,752.4143024003133,754.9236373002641,754.9236373002641,754.9236373002641,754.9236373002641,754.9236373002641,28,17,52,70,70,64,5.0,0.7134636002592742,755.6544691002928,757.5339533002116,,,,,,,,,117,f,1,2022-12-11_16h07.20.815,RL,2022.2.4,60.14639629499411,
1,88,0,88,0,,,,,,,,,,None,757.5339533002116,757.5339533002116,757.5339533002116,757.5339533002116,757.5339533002116,757.5339533002116,j,0.5208593001589179,758.0843673003837,758.0843673003837,758.0843673003837,758.0843673003837,758.0843673003837,758.0843673003837,758.381409900263,758.381409900263,759.9105747002177,759.9105747002177,759.9274016004056,759.9274016004056,759.9274016004056,759.9274016004056,759.9274016004056,759.9274016004056,759.9274016004056,759.9274016004056,759.9274016004056,759.9274016004056,759.9274016004056,759.9274016004056,759.9274016004056,759.9274016004056,759.9274016004056,762.436136000324,762.436136000324,762.436136000324,762.436136000324,762.436136000324,27,17,40,69,69,54,5.0,1.1463582003489137,763.5997303002514,765.112861300353,,,,,,,,,117,f,1,2022-12-11_16h07.20.815,RL,2022.2.4,60.14639629499411,
1,89,0,89,0,,,,,,,,,,None,765.112861300353,765.112861300353,765.112861300353,765.112861300353,765.112861300353,765.112861300353,j,0.3248939998447895,765.4637647001073,765.4637647001073,765.4637647001073,765.4637647001073,765.4637647001073,765.4637647001073,765.7612344999798,765.7612344999798,767.7558279000223,767.7558279000223,767.7558279000223,767.7558279000223,767.7558279000223,767.7558279000223,767.7558279000223,767.7558279000223,767.7558279000223,767.7558279000223,767.7558279000223,767.7558279000223,767.7558279000223,767.7558279000223,767.7558279000223,767.7558279000223,767.7558279000223,770.2651764000766,770.2651764000766,770.2651764000766,770.2651764000766,770.2651764000766,28,21,52,69,69,29,5.0,1.4453875999897718,771.7276909002103,773.5726185003296,,,,,,,,,117,f,1,2022-12-11_16h07.20.815,RL,2022.2.4,60.14639629499411,
1,90,0,90,0,,,,,,,,,,None,773.5726185003296,773.5726185003296,773.5726185003296,773.5726185003296,773.5726185003296,773.5726185003296,j,0.3073764997534454,773.9098268002272,773.9098268002272,773.9098268002272,773.9098268002272,773.9098268002272,773.9098268002272,774.2046896000393,774.2046896000393,775.750583300367,775.750583300367,775.7676854999736,775.7676854999736,775.7676854999736,775.7676854999736,775.7676854999736,775.7676854999736,775.7676854999736,775.7676854999736,775.7676854999736,775.7676854999736,775.7676854999736,775.7676854999736,775.7676854999736,775.7676854999736,775.7676854999736,778.2764209001325,778.2764209001325,778.2764209001325,778.2764209001325,778.2764209001325,31,23,42,58,58,58,4.0,2.093649399932474,780.3870994001627,781.9339002002962,,,,,,,,,117,f,1,2022-12-11_16h07.20.815,RL,2022.2.4,60.14639629499411,
1,91,0,91,0,,,,,,,,,,None,781.9339002002962,781.9339002002962,781.9339002002962,781.9339002002962,781.9339002002962,781.9339002002962,j,0.28835299983620644,782.2526454003528,782.2526454003528,782.2526454003528,782.2526454003528,782.2526454003528,782.2526454003528,782.5487564001232,782.5487564001232,783.4462346001528,783.4462346001528,783.4462346001528,783.4462346001528,783.4462346001528,783.4462346001528,783.4462346001528,783.4462346001528,783.4462346001528,783.4462346001528,783.4462346001528,783.4462346001528,783.4462346001528,783.4462346001528,783.4462346001528,783.4462346001528,783.4462346001528,785.9553731000051,785.9553731000051,785.9553731000051,785.9553731000051,785.9553731000051,31,30,44,67,67,64,5.0,1.0134413996711373,786.9861481999978,788.8147094002925,,,,,,,,,117,f,1,2022-12-11_16h07.20.815,RL,2022.2.4,60.14639629499411,
1,92,0,92,0,,,,,,,,,,None,788.8147094002925,788.8147094002925,788.8147094002925,788.8147094002925,788.8147094002925,788.8147094002925,j,0.4003449999727309,789.2483550002798,789.2483550002798,789.2483550002798,789.2483550002798,789.2483550002798,789.2483550002798,789.5466364002787,789.5466364002787,790.5769413001835,790.5769413001835,790.5769413001835,790.5769413001835,790.5769413001835,790.5769413001835,790.5769413001835,790.5769413001835,790.5769413001835,790.5769413001835,790.5769413001835,790.5769413001835,790.5769413001835,790.5769413001835,790.5769413001835,790.5769413001835,790.5769413001835,793.0864099003375,793.0864099003375,793.0864099003375,793.0864099003375,793.0864099003375,26,24,48,69,69,58,5.0,1.0460773999802768,794.1495012999512,795.9123506001197,,,,,,,,,117,f,1,2022-12-11_16h07.20.815,RL,2022.2.4,60.14639629499411,
1,93,0,93,0,,,,,,,,,,None,795.9123506001197,795.9123506001197,795.9123506001197,795.9123506001197,795.9123506001197,795.9123506001197,j,0.27108560036867857,796.2134364000522,796.2134364000522,796.2134364000522,796.2134364000522,796.2134364000522,796.2134364000522,796.5107692000456,796.5107692000456,798.2392672002316,798.2392672002316,798.2392672002316,798.2392672002316,798.2392672002316,798.2392672002316,798.2392672002316,798.2392672002316,798.2392672002316,798.2392672002316,798.2392672002316,798.2392672002316,798.2392672002316,798.2392672002316,798.2392672002316,798.2392672002316,798.2392672002316,800.7481855000369,800.7481855000369,800.7481855000369,800.7481855000369,800.7481855000369,35,32,51,71,71,69,6.0,1.0295027000829577,801.7956318003125,803.3084891000763,,,,,,,,,117,f,1,2022-12-11_16h07.20.815,RL,2022.2.4,60.14639629499411,
1,94,0,94,0,,,,,,,,,,None,803.3084891000763,803.3084891000763,803.3084891000763,803.3084891000763,803.3084891000763,803.3084891000763,j,0.34411370009183884,803.6772018000484,803.6772018000484,803.6772018000484,803.6772018000484,803.6772018000484,803.6772018000484,803.9736232999712,803.9736232999712,805.618986800313,805.618986800313,805.618986800313,805.618986800313,805.618986800313,805.618986800313,805.618986800313,805.618986800313,805.618986800313,805.618986800313,805.618986800313,805.618986800313,805.618986800313,805.618986800313,805.618986800313,805.618986800313,805.618986800313,808.1283597000875,808.1283597000875,808.1283597000875,808.1283597000875,808.1283597000875,26,37,45,61,61,67,5.0,1.545347400009632,809.6904929000884,811.3864261000417,,,,,,,,,117,f,1,2022-12-11_16h07.20.815,RL,2022.2.4,60.14639629499411,
1,95,0,95,0,,,,,,,,,,None,811.3864261000417,811.3864261000417,811.3864261000417,811.3864261000417,811.3864261000417,811.3864261000417,j,0.3013332998380065,811.7237541000359,811.7237541000359,811.7237541000359,811.7237541000359,811.7237541000359,811.7237541000359,812.0185915003531,812.0185915003531,813.5477881003171,813.5477881003171,813.5477881003171,813.5477881003171,813.5477881003171,813.5477881003171,813.5477881003171,813.5477881003171,813.5477881003171,813.5477881003171,813.5477881003171,813.5477881003171,813.5477881003171,813.5477881003171,813.5477881003171,813.5477881003171,813.5477881003171,816.056866100058,816.056866100058,816.056866100058,816.056866100058,816.056866100058,26,38,52,57,57,70,5.0,0.7980058002285659,816.8708493001759,818.4505436001346,,,,,,,,,117,f,1,2022-12-11_16h07.20.815,RL,2022.2.4,60.14639629499411,
1,96,0,96,0,,,,,,,,,,None,818.4505436001346,818.4505436001346,818.4505436001346,818.4505436001346,818.4505436001346,818.4505436001346,j,0.2101540002040565,818.6858632001095,818.6858632001095,818.6858632001095,818.6858632001095,818.6858632001095,818.6858632001095,818.9830542001873,818.9830542001873,819.9633937999606,819.9633937999606,819.9633937999606,819.9633937999606,819.9633937999606,819.9633937999606,819.9633937999606,819.9633937999606,819.9633937999606,819.9633937999606,819.9633937999606,819.9633937999606,819.9633937999606,819.9633937999606,819.9633937999606,819.9633937999606,819.9633937999606,822.4725135001354,822.4725135001354,822.4725135001354,822.4725135001354,822.4725135001354,19,28,42,56,56,51,5.0,0.7138066999614239,823.2041482003406,824.9164940002374,,,,,,,,,117,f,1,2022-12-11_16h07.20.815,RL,2022.2.4,60.14639629499411,
1,97,0,97,0,,,,,,,,,,None,824.9164940002374,824.9164940002374,824.9164940002374,824.9164940002374,824.9164940002374,824.9164940002374,j,0.23317199992015958,825.1830416000448,825.1830416000448,825.1830416000448,825.1830416000448,825.1830416000448,825.1830416000448,825.4816347002052,825.4816347002052,826.4124353001826,826.4124353001826,826.4124353001826,826.4124353001826,826.4124353001826,826.4124353001826,826.4124353001826,826.4124353001826,826.4124353001826,826.4124353001826,826.4124353001826,826.4124353001826,826.4124353001826,826.4124353001826,826.4124353001826,826.4124353001826,826.4124353001826,828.9218352003954,828.9218352003954,828.9218352003954,828.9218352003954,828.9218352003954,34,39,45,59,59,36,5.0,0.6135908998548985,829.5534272002988,831.2154794000089,,,,,,,,,117,f,1,2022-12-11_16h07.20.815,RL,2022.2.4,60.14639629499411,
1,98,0,98,0,,,,,,,,,,None,831.2154794000089,831.2154794000089,831.2154794000089,831.2154794000089,831.2154794000089,831.2154794000089,j,0.3192934999242425,831.5694674002007,831.5694674002007,831.5694674002007,831.5694674002007,831.5694674002007,831.5694674002007,831.8641567002051,831.8641567002051,833.226917900145,833.226917900145,833.226917900145,833.226917900145,833.226917900145,833.226917900145,833.226917900145,833.226917900145,833.226917900145,833.226917900145,833.226917900145,833.226917900145,833.226917900145,833.226917900145,833.226917900145,833.226917900145,833.226917900145,835.7365004001185,835.7365004001185,835.7365004001185,835.7365004001185,835.7365004001185,26,31,51,62,62,55,5.0,0.7973682000301778,836.5506080002524,838.1136129000224,,,,,,,,,117,f,1,2022-12-11_16h07.20.815,RL,2022.2.4,60.14639629499411,
1,99,0,99,0,,,,,,,,,,None,838.1136129000224,838.1136129000224,838.1136129000224,838.1136129000224,838.1136129000224,838.1136129000224,j,0.27814199961721897,838.4151075002737,838.4151075002737,838.4151075002737,838.4151075002737,838.4151075002737,838.4151075002737,838.7122165001929,838.7122165001929,840.5403949003667,840.5403949003667,840.5403949003667,840.5403949003667,840.5403949003667,840.5403949003667,840.5403949003667,840.5403949003667,840.5403949003667,840.5403949003667,840.5403949003667,840.5403949003667,840.5403949003667,840.5403949003667,840.5403949003667,840.5403949003667,840.5403949003667,843.0495768999681,843.0495768999681,843.0495768999681,843.0495768999681,843.0495768999681,38,32,48,62,62,67,5.0,0.8468087003566325,843.9139213999733,845.6929033002816,,,,,,,,,117,f,1,2022-12-11_16h07.20.815,RL,2022.2.4,60.14639629499411,
1,100,0,100,0,,,,,,,,,,None,845.6929033002816,845.6929033002816,845.6929033002816,845.6929033002816,845.6929033002816,845.6929033002816,j,0.24670200003311038,845.9621403003111,845.9621403003111,845.9621403003111,845.9621403003111,845.9621403003111,845.9621403003111,846.2586799999699,846.2586799999699,847.8872827002779,847.8872827002779,847.9041929002851,847.9041929002851,847.9041929002851,847.9041929002851,847.9041929002851,847.9041929002851,847.9041929002851,847.9041929002851,847.9041929002851,847.9041929002851,847.9041929002851,847.9041929002851,847.9041929002851,847.9041929002851,847.9041929002851,850.413493799977,850.413493799977,850.413493799977,850.413493799977,850.413493799977,37,30,49,67,67,54,6.0,1.1964595997706056,851.6263417000882,853.3055219002999,,,,,,,,,117,f,1,2022-12-11_16h07.20.815,RL,2022.2.4,60.14639629499411,
1,101,0,101,0,,,,,,,,,,None,853.3055219002999,853.3055219002999,853.3055219002999,853.3055219002999,853.3055219002999,853.3055219002999,j,0.6068943999707699,853.9409396001138,853.9409396001138,853.9409396001138,853.9409396001138,853.9409396001138,853.9409396001138,854.2365733999759,854.2365733999759,855.4666410000063,855.4666410000063,855.4666410000063,855.4666410000063,855.4666410000063,855.4666410000063,855.4666410000063,855.4666410000063,855.4666410000063,855.4666410000063,855.4666410000063,855.4666410000063,855.4666410000063,855.4666410000063,855.4666410000063,855.4666410000063,855.4666410000063,857.9758701003157,857.9758701003157,857.9758701003157,857.9758701003157,857.9758701003157,43,33,40,70,70,62,6.0,0.9306061998941004,858.9232777003199,860.6354287001304,,,,,,,,,117,f,1,2022-12-11_16h07.20.815,RL,2022.2.4,60.14639629499411,
1,102,0,102,0,,,,,,,,,,None,860.6354287001304,860.6354287001304,860.6354287001304,860.6354287001304,860.6354287001304,860.6354287001304,j,0.2649897998198867,860.921981499996,860.921981499996,860.921981499996,860.921981499996,860.921981499996,860.921981499996,861.2176939002238,861.2176939002238,863.228611800354,863.228611800354,863.228611800354,863.228611800354,863.228611800354,863.228611800354,863.228611800354,863.228611800354,863.228611800354,863.228611800354,863.228611800354,863.228611800354,863.228611800354,863.228611800354,863.228611800354,863.228611800354,863.228611800354,865.7377980002202,865.7377980002202,865.7377980002202,865.7377980002202,865.7377980002202,34,30,31,65,65,53,6.0,0.7301794001832604,866.4856440001167,868.3978633000515,,,,,,,,,117,f,1,2022-12-11_16h07.20.815,RL,2022.2.4,60.14639629499411,
1,103,0,103,0,,,,,,,,,,None,868.3978633000515,868.3978633000515,868.3978633000515,868.3978633000515,868.3978633000515,868.3978633000515,j,0.22509820014238358,868.6495985002257,868.6495985002257,868.6495985002257,868.6495985002257,868.6495985002257,868.6495985002257,868.9467219002545,868.9467219002545,869.7777260001749,869.7777260001749,869.7777260001749,869.7777260001749,869.7777260001749,869.7777260001749,869.7777260001749,869.7777260001749,869.7777260001749,869.7777260001749,869.7777260001749,869.7777260001749,869.7777260001749,869.7777260001749,869.7777260001749,869.7777260001749,869.7777260001749,872.2866515000351,872.2866515000351,872.2866515000351,872.2866515000351,872.2866515000351,34,32,41,60,60,54,5.0,0.9960463000461459,873.3002854003571,875.0130104003474,,,,,,,,,117,f,1,2022-12-11_16h07.20.815,RL,2022.2.4,60.14639629499411,
1,104,0,104,0,,,,,,,,,,None,875.0130104003474,875.0130104003474,875.0130104003474,875.0130104003474,875.0130104003474,875.0130104003474,j,0.2638081000186503,875.2975305002183,875.2975305002183,875.2975305002183,875.2975305002183,875.2975305002183,875.2975305002183,875.5948511003517,875.5948511003517,876.4922845000401,876.4922845000401,876.5092760999687,876.5092760999687,876.5092760999687,876.5092760999687,876.5092760999687,876.5092760999687,876.5092760999687,876.5092760999687,876.5092760999687,876.5092760999687,876.5092760999687,876.5092760999687,876.5092760999687,876.5092760999687,876.5092760999687,879.0178674003109,879.0178674003109,879.0178674003109,879.0178674003109,879.0178674003109,27,24,31,65,65,21,5.0,0.8138970998115838,879.8496396001428,881.5616512000561,,,,,,,,,117,f,1,2022-12-11_16h07.20.815,RL,2022.2.4,60.14639629499411,
1,105,0,105,0,,,,,,,,,,None,881.5616512000561,881.5616512000561,881.5616512000561,881.5616512000561,881.5616512000561,881.5616512000561,j,0.23333280021324754,881.8288300000131,881.8288300000131,881.8288300000131,881.8288300000131,881.8288300000131,881.8288300000131,882.1274721003138,882.1274721003138,882.9747174000368,882.9747174000368,882.9747174000368,882.9747174000368,882.9747174000368,882.9747174000368,882.9747174000368,882.9747174000368,882.9747174000368,882.9747174000368,882.9747174000368,882.9747174000368,882.9747174000368,882.9747174000368,882.9747174000368,882.9747174000368,882.9747174000368,885.4837450999767,885.4837450999767,885.4837450999767,885.4837450999767,885.4837450999767,28,33,39,64,64,55,5.0,0.6968369004316628,886.1983177000657,887.8446273002774,,,,,,,,,117,f,1,2022-12-11_16h07.20.815,RL,2022.2.4,60.14639629499411,
1,106,0,106,0,,,,,,,,,,None,887.8446273002774,887.8446273002774,887.8446273002774,887.8446273002774,887.8446273002774,887.8446273002774,j,0.20960119972005486,888.0801258999854,888.0801258999854,888.0801258999854,888.0801258999854,888.0801258999854,888.0801258999854,888.3770304000936,888.3770304000936,890.0390029000118,890.0390029000118,890.0390029000118,890.0390029000118,890.0390029000118,890.0390029000118,890.0390029000118,890.0390029000118,890.0390029000118,890.0390029000118,890.0390029000118,890.0390029000118,890.0390029000118,890.0390029000118,890.0390029000118,890.0390029000118,890.0390029000118,892.5479882000946,892.5479882000946,892.5479882000946,892.5479882000946,892.5479882000946,26,33,41,58,58,72,5.0,0.7800762001425028,893.3457189002074,895.3239645003341,,,,,,,,,117,f,1,2022-12-11_16h07.20.815,RL,2022.2.4,60.14639629499411,
1,107,0,107,0,,,,,,,,,,None,895.3239645003341,895.3239645003341,895.3239645003341,895.3239645003341,895.3239645003341,895.3239645003341,j,0.28286080015823245,895.6430091001093,895.6430091001093,895.6430091001093,895.6430091001093,895.6430091001093,895.6430091001093,895.9394009001553,895.9394009001553,897.9342179000378,897.9342179000378,897.9342179000378,897.9342179000378,897.9342179000378,897.9342179000378,897.9342179000378,897.9342179000378,897.9342179000378,897.9342179000378,897.9342179000378,897.9342179000378,897.9342179000378,897.9342179000378,897.9342179000378,897.9342179000378,897.9342179000378,900.4434462999925,900.4434462999925,900.4434462999925,900.4434462999925,900.4434462999925,31,32,49,66,66,55,5.0,0.7140729003585875,901.1741923000664,903.0033670002595,,,,,,,,,117,f,1,2022-12-11_16h07.20.815,RL,2022.2.4,60.14639629499411,
1,108,0,108,0,,,,,,,,,,None,903.0033670002595,903.0033670002595,903.0033670002595,903.0033670002595,903.0033670002595,903.0033670002595,j,0.08083589980378747,903.1051847999915,903.1051847999915,903.1051847999915,903.1051847999915,903.1051847999915,903.1051847999915,903.4023291002959,903.4023291002959,905.1647963002324,905.1647963002324,905.1647963002324,905.1647963002324,905.1647963002324,905.1647963002324,905.1647963002324,905.1647963002324,905.1647963002324,905.1647963002324,905.1647963002324,905.1647963002324,905.1647963002324,905.1647963002324,905.1647963002324,905.1647963002324,905.1647963002324,907.6736656003632,907.6736656003632,907.6736656003632,907.6736656003632,907.6736656003632,20,33,49,67,67,65,6.0,1.0797266000881791,908.7700376003049,910.5160128003918,,,,,,,,,117,f,1,2022-12-11_16h07.20.815,RL,2022.2.4,60.14639629499411,
1,109,0,109,0,,,,,,,,,,None,910.5160128003918,910.5160128003918,910.5160128003918,910.5160128003918,910.5160128003918,910.5160128003918,j,0.45540660014376044,911.0002449001186,911.0002449001186,911.0002449001186,911.0002449001186,911.0002449001186,911.0002449001186,911.2977807000279,911.2977807000279,913.009498000145,913.009498000145,913.009498000145,913.009498000145,913.009498000145,913.009498000145,913.009498000145,913.009498000145,913.009498000145,913.009498000145,913.009498000145,913.009498000145,913.009498000145,913.009498000145,913.009498000145,913.009498000145,913.009498000145,915.5187505003996,915.5187505003996,915.5187505003996,915.5187505003996,915.5187505003996,32,23,50,75,75,66,6.0,0.9633414000272751,916.4993509002961,918.1287639001384,,,,,,,,,117,f,1,2022-12-11_16h07.20.815,RL,2022.2.4,60.14639629499411,
1,110,0,110,0,,,,,,,,,,None,918.1287639001384,918.1287639001384,918.1287639001384,918.1287639001384,918.1287639001384,918.1287639001384,j,0.49481560010463,918.64440140035,918.64440140035,918.64440140035,918.64440140035,918.64440140035,918.64440140035,918.9435751000419,918.9435751000419,920.4055068003945,920.4055068003945,920.4055068003945,920.4055068003945,920.4055068003945,920.4055068003945,920.4055068003945,920.4055068003945,920.4055068003945,920.4055068003945,920.4055068003945,920.4055068003945,920.4055068003945,920.4055068003945,920.4055068003945,920.4055068003945,920.4055068003945,922.9150245999917,922.9150245999917,922.9150245999917,922.9150245999917,922.9150245999917,24,34,44,68,68,65,6.0,1.2791281999088824,924.2113287001848,925.9743638001382,,,,,,,,,117,f,1,2022-12-11_16h07.20.815,RL,2022.2.4,60.14639629499411,
1,111,0,111,0,,,,,,,,,,None,925.9743638001382,925.9743638001382,925.9743638001382,925.9743638001382,925.9743638001382,925.9743638001382,j,0.3971563000231981,926.3914473000914,926.3914473000914,926.3914473000914,926.3914473000914,926.3914473000914,926.3914473000914,926.6888111000881,926.6888111000881,928.0687227002345,928.0687227002345,928.0687227002345,928.0687227002345,928.0687227002345,928.0687227002345,928.0687227002345,928.0687227002345,928.0687227002345,928.0687227002345,928.0687227002345,928.0687227002345,928.0687227002345,928.0687227002345,928.0687227002345,928.0687227002345,928.0687227002345,930.5772792003118,930.5772792003118,930.5772792003118,930.5772792003118,930.5772792003118,21,25,34,59,59,67,5.0,1.048316199798137,931.6416019001044,933.6200741999783,,,,,,,,,117,f,1,2022-12-11_16h07.20.815,RL,2022.2.4,60.14639629499411,
1,112,0,112,0,,,,,,,,,,None,933.6200741999783,933.6200741999783,933.6200741999783,933.6200741999783,933.6200741999783,933.6200741999783,j,0.3029379998333752,933.9542203000747,933.9542203000747,933.9542203000747,933.9542203000747,933.9542203000747,933.9542203000747,934.2516025002114,934.2516025002114,936.2298743003048,936.2298743003048,936.2298743003048,936.2298743003048,936.2298743003048,936.2298743003048,936.2298743003048,936.2298743003048,936.2298743003048,936.2298743003048,936.2298743003048,936.2298743003048,936.2298743003048,936.2298743003048,936.2298743003048,936.2298743003048,936.2298743003048,938.738531100098,938.738531100098,938.738531100098,938.738531100098,938.738531100098,22,20,41,73,73,59,6.0,1.1296004997566342,939.8856530999765,941.8805713001639,,,,,,,,,117,f,1,2022-12-11_16h07.20.815,RL,2022.2.4,60.14639629499411,
1,113,0,113,0,,,,,,,,,,None,941.8805713001639,941.8805713001639,941.8805713001639,941.8805713001639,941.8805713001639,941.8805713001639,j,0.30374310025945306,942.2156055001542,942.2156055001542,942.2156055001542,942.2156055001542,942.2156055001542,942.2156055001542,942.5126872002147,942.5126872002147,943.6591191999614,943.6591191999614,943.6591191999614,943.6591191999614,943.6591191999614,943.6591191999614,943.6591191999614,943.6591191999614,943.6591191999614,943.6591191999614,943.6591191999614,943.6591191999614,943.6591191999614,943.6591191999614,943.6591191999614,943.6591191999614,943.6591191999614,946.1683649001643,946.1683649001643,946.1683649001643,946.1683649001643,946.1683649001643,17,26,50,76,76,54,6.0,1.2293692999519408,947.4147407002747,948.9445078000426,,,,,,,,,117,f,1,2022-12-11_16h07.20.815,RL,2022.2.4,60.14639629499411,
1,114,0,114,0,,,,,,,,,,None,948.9445078000426,948.9445078000426,948.9445078000426,948.9445078000426,948.9445078000426,948.9445078000426,j,0.8168891998939216,949.7940508001484,949.7940508001484,949.7940508001484,949.7940508001484,949.7940508001484,949.7940508001484,950.0920441001654,950.0920441001654,951.6541526000947,951.6541526000947,951.6541526000947,951.6541526000947,951.6541526000947,951.6541526000947,951.6541526000947,951.6541526000947,951.6541526000947,951.6541526000947,951.6541526000947,951.6541526000947,951.6541526000947,951.6541526000947,951.6541526000947,951.6541526000947,951.6541526000947,954.1632060003467,954.1632060003467,954.1632060003467,954.1632060003467,954.1632060003467,22,27,55,71,71,52,6.0,0.9463476999662817,955.1271465001628,956.6735257999972,,,,,,,,,117,f,1,2022-12-11_16h07.20.815,RL,2022.2.4,60.14639629499411,
1,115,0,115,0,,,,,,,,,,None,956.6735257999972,956.6735257999972,956.6735257999972,956.6735257999972,956.6735257999972,956.6735257999972,j,0.35037440015003085,957.0581034002826,957.0581034002826,957.0581034002826,957.0581034002826,957.0581034002826,957.0581034002826,957.3552316999994,957.3552316999994,958.9675076999702,958.9675076999702,958.9675076999702,958.9675076999702,958.9675076999702,958.9675076999702,958.9675076999702,958.9675076999702,958.9675076999702,958.9675076999702,958.9675076999702,958.9675076999702,958.9675076999702,958.9675076999702,958.9675076999702,958.9675076999702,958.9675076999702,961.4764082003385,961.4764082003385,961.4764082003385,961.4764082003385,961.4764082003385,19,28,51,78,78,58,7.0,0.9967407998628914,962.4902786002494,964.1364078000188,,,,,,,,,117,f,1,2022-12-11_16h07.20.815,RL,2022.2.4,60.14639629499411,
