bandit,trials.thisRepN,trials.thisTrialN,trials.thisN,trials.thisIndex,instru_img1.started,instru_img1.stopped,instru_resp.keys,instru_resp.rt,instru_resp.started,instru_resp.stopped,instru_img2.started,instru_img2.stopped,instru_resp2.keys,instru_resp2.rt,instru_resp2.started,instru_resp2.stopped,fixbefore_2.started,fixbefore_2.stopped,rest_image.started,rest_image.stopped,rest_response.keys,rest_response.started,rest_response.stopped,red.started,red.stopped,green.started,green.stopped,yellow.started,yellow.stopped,blue.started,blue.stopped,choose_bandit.keys,choose_bandit.rt,choose_bandit.started,choose_bandit.stopped,Fixation.started,Fixation.stopped,black.started,black.stopped,red_2.started,red_2.stopped,green_2.started,green_2.stopped,yellow_2.started,yellow_2.stopped,blue_2.started,blue_2.stopped,fixation_2.started,fixation_2.stopped,docs.started,docs.stopped,image_2.started,image_2.stopped,black_com.started,black_com.stopped,reward_sub.started,reward_sub.stopped,palyerb.started,palyerb.stopped,reward__sub.started,reward__sub.stopped,compare.started,compare.stopped,red_compare.started,red_compare.stopped,green_com.started,green_com.stopped,yellow_com.started,yellow_com.stopped,blue_com.started,blue_com.stopped,rewardyellow,rewardred,rewardblue,rewardgreen,subchoose,playerb,image_3.started,image_3.stopped,slider.response,slider.rt,slider.started,slider.stopped,text.started,text.stopped,image_4.started,image_4.stopped,image_5.started,image_5.stopped,bigx.started,bigx.stopped,intertrialfix.started,intertrialfix.stopped,rest_response.rt,image.started,image.stopped,key_resp.keys,key_resp.started,key_resp.stopped,participant,Gender,Age,date,expName,psychopyVersion,frameRate,
,,,,,1061.6257340998854,None,space,51.916809200076386,1061.6257340998854,None,,,,,,,,,,,,,,,,,,,,,,,,,,,,,,,,,,,,,,,,,,,,,,,,,,,,,,,,,,,,,,,,,,,,,,,,,,,,,,,,,,,,,,,,,,118,f,1,2022_Dec_11_1605,RL,2021.2.3,59.92275954682339,
,,,,,,,,,,,1113.5665416999254,None,space,50.012361500179395,1113.5665416999254,None,,,,,,,,,,,,,,,,,,,,,,,,,,,,,,,,,,,,,,,,,,,,,,,,,,,,,,,,,,,,,,,,,,,,,,,,,,,,,,,,,,,,118,f,1,2022_Dec_11_1605,RL,2021.2.3,59.92275954682339,
1,0,0,0,0,,,,,,,,,,,,,1163.5996293998323,None,None,None,None,None,None,1164.6015390998218,None,1164.6015390998218,None,1164.6015390998218,None,1164.6015390998218,None,i,0.8536771000362933,1164.6015390998218,None,1164.6015390998218,None,1165.5012140998151,None,1165.5012140998151,None,1165.5012140998151,None,1165.5012140998151,None,1165.5012140998151,None,1165.5012140998151,None,1165.8010938998777,None,1165.8010938998777,None,1166.64657789981,None,1166.64657789981,None,1166.64657789981,None,1166.64657789981,None,1166.64657789981,None,1166.64657789981,None,1166.64657789981,None,1166.64657789981,None,1166.64657789981,None,33,56,36,59,36,48,1169.1633058998268,None,4.0,2.663183599943295,1169.1633058998268,None,1169.1633058998268,None,1169.1633058998268,None,1169.1633058998268,None,None,None,1171.8614151999354,None,,,,,,,118,f,1,2022_Dec_11_1605,RL,2021.2.3,59.92275954682339,
1,1,0,1,0,,,,,,,,,,,,,,,None,None,None,None,None,1173.5896075000055,None,1173.5896075000055,None,1173.5896075000055,None,1173.5896075000055,None,f,1.0053145999554545,1173.5896075000055,None,1173.5896075000055,None,1174.6304056998342,None,1174.6304056998342,None,1174.6304056998342,None,1174.6304056998342,None,1174.6304056998342,None,1174.6304056998342,None,1174.9240683999378,None,1174.9240683999378,None,1176.647272199858,None,1176.647272199858,None,1176.647272199858,None,1176.647272199858,None,1176.647272199858,None,1176.647272199858,None,1176.647272199858,None,1176.647272199858,None,1176.647272199858,None,35,55,39,53,55,36,1179.1613361998461,None,6.0,1.7296198999974877,1179.1613361998461,None,1179.1613361998461,None,1179.1613361998461,None,1179.1613361998461,None,None,None,1180.9109443998896,None,,,,,,,118,f,1,2022_Dec_11_1605,RL,2021.2.3,59.92275954682339,
1,2,0,2,0,,,,,,,,,,,,,,,None,None,None,None,None,1182.7291983999312,None,1182.7291983999312,None,1182.7291983999312,None,1182.7291983999312,None,f,0.9666271000169218,1182.7291983999312,None,1182.7291983999312,None,1183.7204000998754,None,1183.7204000998754,None,1183.7204000998754,None,1183.7204000998754,None,1183.7204000998754,None,1183.7204000998754,None,1184.0138441999443,None,1184.0138441999443,None,1185.1342951999977,None,1185.1342951999977,None,1185.1342951999977,None,1185.1342951999977,None,1185.1342951999977,None,1185.1342951999977,None,1185.1342951999977,None,1185.1342951999977,None,1185.1342951999977,None,31,54,38,52,54,49,1187.6509002000093,None,6.0,1.3454982999246567,1187.6509002000093,None,1187.6509002000093,None,1187.6509002000093,None,1187.6509002000093,None,None,None,1189.0165847998578,None,,,,,,,118,f,1,2022_Dec_11_1605,RL,2021.2.3,59.92275954682339,
1,3,0,3,0,,,,,,,,,,,,,,,None,None,None,None,None,1191.018329899991,None,1191.018329899991,None,1191.018329899991,None,1191.018329899991,None,f,0.5275291001889855,1191.018329899991,None,1191.018329899991,None,1191.576764700003,None,1191.576764700003,None,1191.576764700003,None,1191.576764700003,None,1191.576764700003,None,1191.576764700003,None,1191.8690162999555,None,1191.8690162999555,None,1193.5420619000215,None,1193.5420619000215,None,1193.5420619000215,None,1193.5420619000215,None,1193.5420619000215,None,1193.5420619000215,None,1193.5420619000215,None,1193.5420619000215,None,1193.5420619000215,None,35,62,42,52,62,40,1196.057224499993,None,6.0,0.961432300042361,1196.057224499993,None,1196.057224499993,None,1196.057224499993,None,1196.057224499993,None,None,None,1197.0389693998732,None,,,,,,,118,f,1,2022_Dec_11_1605,RL,2021.2.3,59.92275954682339,
1,4,0,4,0,,,,,,,,,,,,,,,None,None,None,None,None,1198.8237685000058,None,1198.8237685000058,None,1198.8237685000058,None,1198.8237685000058,None,f,0.4715970999095589,1198.8237685000058,None,1198.8237685000058,None,1199.3300612999592,None,1199.3300612999592,None,1199.3300612999592,None,1199.3300612999592,None,1199.3300612999592,None,1199.3300612999592,None,1199.6078822999261,1200.891918099951,1199.6078822999261,1200.891918099951,1200.9108305999544,None,1200.9108305999544,None,1200.9108305999544,None,1200.9108305999544,None,1200.9108305999544,None,1200.9108305999544,None,1200.9108305999544,None,1200.9108305999544,None,1200.9108305999544,None,36,54,47,48,54,51,1203.4140304999892,None,5.0,1.3762036999687552,1203.4140304999892,None,1203.4140304999892,None,1203.4140304999892,None,1203.4140304999892,None,None,None,1204.8108608999755,None,,,,,,,118,f,1,2022_Dec_11_1605,RL,2021.2.3,59.92275954682339,
1,5,0,5,0,,,,,,,,,,,,,,,None,None,None,None,None,1206.7458032998256,None,1206.7458032998256,None,1206.7458032998256,None,1206.7458032998256,None,r,0.5203720999415964,1206.7458032998256,None,1206.7458032998256,None,1207.3026354999747,None,1207.3026354999747,None,1207.3026354999747,None,1207.3026354999747,None,1207.3026354999747,None,1207.3026354999747,None,1207.57990589994,1208.8141059998889,1207.57990589994,1208.8141059998889,1208.831102799857,None,1208.831102799857,None,1208.831102799857,None,1208.831102799857,None,1208.831102799857,None,1208.831102799857,None,1208.831102799857,None,1208.831102799857,None,1208.831102799857,None,42,59,49,50,42,40,1211.335780999856,None,5.0,1.2130743998568505,1211.335780999856,None,1211.335780999856,None,1211.335780999856,None,1211.335780999856,None,None,None,1212.5663463999517,None,,,,,,,118,f,1,2022_Dec_11_1605,RL,2021.2.3,59.92275954682339,
1,6,0,6,0,,,,,,,,,,,,,,,None,None,None,None,None,1214.088143899804,None,1214.088143899804,None,1214.088143899804,None,1214.088143899804,None,f,0.4277834000531584,1214.088143899804,None,1214.088143899804,None,1214.558793899836,None,1214.558793899836,None,1214.558793899836,None,1214.558793899836,None,1214.558793899836,None,1214.558793899836,None,1214.8518489999697,None,1214.8518489999697,None,1216.1623420999385,None,1216.1623420999385,None,1216.1623420999385,None,1216.1623420999385,None,1216.1623420999385,None,1216.1623420999385,None,1216.1623420999385,None,1216.1623420999385,None,1216.1623420999385,None,41,55,47,56,55,61,1218.683962199837,None,3.0,2.03776349988766,1218.683962199837,None,1218.683962199837,None,1218.683962199837,None,1218.683962199837,None,None,None,1220.7388496999629,None,,,,,,,118,f,1,2022_Dec_11_1605,RL,2021.2.3,59.92275954682339,
1,7,0,7,0,,,,,,,,,,,,,,,None,None,None,None,None,1222.3934092000127,None,1222.3934092000127,None,1222.3934092000127,None,1222.3934092000127,None,f,0.41244639991782606,1222.3934092000127,None,1222.3934092000127,None,1222.8548613998573,None,1222.8548613998573,None,1222.8548613998573,None,1222.8548613998573,None,1222.8548613998573,None,1222.8548613998573,None,1223.140887599904,1224.9254421999212,1223.140887599904,1224.9254421999212,1224.9602139999624,None,1224.9602139999624,None,1224.9602139999624,None,1224.9602139999624,None,1224.9602139999624,None,1224.9602139999624,None,1224.9602139999624,None,1224.9602139999624,None,1224.9602139999624,None,39,49,50,50,49,70,1227.473466699943,None,2.0,1.4909866000525653,1227.473466699943,None,1227.473466699943,None,1227.473466699943,None,1227.473466699943,None,None,None,1228.9833454999607,None,,,,,,,118,f,1,2022_Dec_11_1605,RL,2021.2.3,59.92275954682339,
1,8,0,8,0,,,,,,,,,,,,,,,None,None,None,None,None,1230.8664075999986,None,1230.8664075999986,None,1230.8664075999986,None,1230.8664075999986,None,j,0.4692852001171559,1230.8664075999986,None,1230.8664075999986,None,1231.3854649998248,None,1231.3854649998248,None,1231.3854649998248,None,1231.3854649998248,None,1231.3854649998248,None,1231.3854649998248,None,1231.680301599903,None,1231.680301599903,None,1233.1115674998146,None,1233.1115674998146,None,1233.1115674998146,None,1233.1115674998146,None,1233.1115674998146,None,1233.1115674998146,None,1233.1115674998146,None,1233.1115674998146,None,1233.1115674998146,None,39,41,48,34,34,51,1235.6291068999562,None,2.0,1.5340891000814736,1235.6291068999562,None,1235.6291068999562,None,1235.6291068999562,None,1235.6291068999562,None,None,None,1237.186125200009,None,,,,,,,118,f,1,2022_Dec_11_1605,RL,2021.2.3,59.92275954682339,
1,9,0,9,0,,,,,,,,,,,,,,,None,None,None,None,None,1239.0050327999052,None,1239.0050327999052,None,1239.0050327999052,None,1239.0050327999052,None,r,0.4410568999592215,1239.0050327999052,None,1239.0050327999052,None,1239.4903569000307,None,1239.4903569000307,None,1239.4903569000307,None,1239.4903569000307,None,1239.4903569000307,None,1239.4903569000307,None,1239.785770499846,None,1239.785770499846,None,1241.3230420998298,None,1241.3230420998298,None,1241.3230420998298,None,1241.3230420998298,None,1241.3230420998298,None,1241.3230420998298,None,1241.3230420998298,None,1241.3230420998298,None,1241.3230420998298,None,35,40,51,53,35,67,1243.8320861998945,None,2.0,1.3413511000107974,1243.8320861998945,None,1243.8320861998945,None,1243.8320861998945,None,1243.8320861998945,None,None,None,1245.1893207998946,None,,,,,,,118,f,1,2022_Dec_11_1605,RL,2021.2.3,59.92275954682339,
1,10,0,10,0,,,,,,,,,,,,,,,None,None,None,None,None,1247.0765263999347,None,1247.0765263999347,None,1247.0765263999347,None,1247.0765263999347,None,f,0.37058109999634326,1247.0765263999347,None,1247.0765263999347,None,1247.497295399895,None,1247.497295399895,None,1247.497295399895,None,1247.497295399895,None,1247.497295399895,None,1247.497295399895,None,1247.7913653999567,None,1247.7913653999567,None,1249.289338799892,None,1249.289338799892,None,1249.289338799892,None,1249.289338799892,None,1249.289338799892,None,1249.289338799892,None,1249.289338799892,None,1249.289338799892,None,1249.289338799892,None,36,44,49,52,44,66,1251.80595119996,None,2.0,1.2382489000447094,1251.80595119996,None,1251.80595119996,None,1251.80595119996,None,1251.80595119996,None,None,None,1253.0611268000212,None,,,,,,,118,f,1,2022_Dec_11_1605,RL,2021.2.3,59.92275954682339,
1,11,0,11,0,,,,,,,,,,,,,,,None,None,None,None,None,1254.6325179999694,None,1254.6325179999694,None,1254.6325179999694,None,1254.6325179999694,None,i,0.3043802999891341,1254.6325179999694,None,1254.6325179999694,None,1254.985946699977,None,1254.985946699977,None,1254.985946699977,None,1254.985946699977,None,1254.985946699977,None,1254.985946699977,None,1255.2799794999883,None,1255.2799794999883,None,1256.4611631999724,None,1256.4611631999724,None,1256.4611631999724,None,1256.4611631999724,None,1256.4611631999724,None,1256.4611631999724,None,1256.4611631999724,None,1256.4611631999724,None,1256.4611631999724,None,38,40,45,39,45,49,1258.9785466999747,None,2.0,2.9251946001313627,1258.9785466999747,None,1258.9785466999747,None,1258.9785466999747,None,1258.9785466999747,None,None,None,1261.9171332998667,None,,,,,,,118,f,1,2022_Dec_11_1605,RL,2021.2.3,59.92275954682339,
1,12,0,12,0,,,,,,,,,,,,,,,None,None,None,None,None,1263.9052265000064,None,1263.9052265000064,None,1263.9052265000064,None,1263.9052265000064,None,i,0.3220218999776989,1263.9052265000064,None,1263.9052265000064,None,1264.2730886999052,None,1264.2730886999052,None,1264.2730886999052,None,1264.2730886999052,None,1264.2730886999052,None,1264.2730886999052,None,1264.5696988999844,None,1264.5696988999844,None,1266.2001111998688,None,1266.2001111998688,None,1266.2001111998688,None,1266.2001111998688,None,1266.2001111998688,None,1266.2001111998688,None,1266.2001111998688,None,1266.2001111998688,None,1266.2001111998688,None,37,40,43,54,43,69,1268.7182120999787,None,3.0,1.3709523000288755,1268.7182120999787,None,1268.7182120999787,None,1268.7182120999787,None,1268.7182120999787,None,None,None,1270.1061897999607,None,,,,,,,118,f,1,2022_Dec_11_1605,RL,2021.2.3,59.92275954682339,
1,13,0,13,0,,,,,,,,,,,,,,,None,None,None,None,None,1271.6938959998079,None,1271.6938959998079,None,1271.6938959998079,None,1271.6938959998079,None,f,0.9432461000978947,1271.6938959998079,None,1271.6938959998079,None,1272.6815350998659,None,1272.6815350998659,None,1272.6815350998659,None,1272.6815350998659,None,1272.6815350998659,None,1272.6815350998659,None,1272.9588861998636,1274.5429870998487,1272.9588861998636,1274.5429870998487,1274.5731638998259,None,1274.5731638998259,None,1274.5731638998259,None,1274.5731638998259,None,1274.5731638998259,None,1274.5731638998259,None,1274.5731638998259,None,1274.5731638998259,None,1274.5731638998259,None,42,46,48,45,46,70,1277.0908738998696,None,3.0,1.339945500018075,1277.0908738998696,None,1277.0908738998696,None,1277.0908738998696,None,1277.0908738998696,None,None,None,1278.4497871999629,None,,,,,,,118,f,1,2022_Dec_11_1605,RL,2021.2.3,59.92275954682339,
1,14,0,14,0,,,,,,,,,,,,,,,None,None,None,None,None,1280.3170789999422,None,1280.3170789999422,None,1280.3170789999422,None,1280.3170789999422,None,j,0.6900388998910785,1280.3170789999422,None,1280.3170789999422,None,1281.0556938999798,None,1281.0556938999798,None,1281.0556938999798,None,1281.0556938999798,None,1281.0556938999798,None,1281.0556938999798,None,1281.3478450998664,1282.4818541998975,1281.3478450998664,1282.4818541998975,1282.512663200032,None,1282.512663200032,None,1282.512663200032,None,1282.512663200032,None,1282.512663200032,None,1282.512663200032,None,1282.512663200032,None,1282.512663200032,None,1282.512663200032,None,36,45,54,36,36,68,1285.0343465998303,None,3.0,1.284973599947989,1285.0343465998303,None,1285.0343465998303,None,1285.0343465998303,None,1285.0343465998303,None,None,None,1286.3342436999083,None,,,,,,,118,f,1,2022_Dec_11_1605,RL,2021.2.3,59.92275954682339,
1,15,0,15,0,,,,,,,,,,,,,,,None,None,None,None,None,1288.2224345998839,None,1288.2224345998839,None,1288.2224345998839,None,1288.2224345998839,None,f,0.5249944000970572,1288.2224345998839,None,1288.2224345998839,None,1288.790224299999,None,1288.790224299999,None,1288.790224299999,None,1288.790224299999,None,1288.790224299999,None,1288.790224299999,None,1289.0867208000273,1290.4877285999246,1289.0867208000273,1290.4877285999246,1290.5193327998277,None,1290.5193327998277,None,1290.5193327998277,None,1290.5193327998277,None,1290.5193327998277,None,1290.5193327998277,None,1290.5193327998277,None,1290.5193327998277,None,1290.5193327998277,None,26,48,48,39,48,70,1293.0352400999982,None,2.0,1.9369618000928313,1293.0352400999982,None,1293.0352400999982,None,1293.0352400999982,None,1293.0352400999982,None,None,None,1294.9902075999416,None,,,,,,,118,f,1,2022_Dec_11_1605,RL,2021.2.3,59.92275954682339,
1,16,0,16,0,,,,,,,,,,,,,,,None,None,None,None,None,1296.6111626999918,None,1296.6111626999918,None,1296.6111626999918,None,1296.6111626999918,None,i,0.4163757001515478,1296.6111626999918,None,1296.6111626999918,None,1297.0786774998996,None,1297.0786774998996,None,1297.0786774998996,None,1297.0786774998996,None,1297.0786774998996,None,1297.0786774998996,None,1297.3758944999427,None,1297.3758944999427,None,1299.2410412000027,None,1299.2410412000027,None,1299.2410412000027,None,1299.2410412000027,None,1299.2410412000027,None,1299.2410412000027,None,1299.2410412000027,None,1299.2410412000027,None,1299.2410412000027,None,27,42,47,38,47,71,1301.7588918998372,None,2.0,1.6875110999681056,1301.7588918998372,None,1301.7588918998372,None,1301.7588918998372,None,1301.7588918998372,None,None,None,1303.4626809000038,None,,,,,,,118,f,1,2022_Dec_11_1605,RL,2021.2.3,59.92275954682339,
1,17,0,17,0,,,,,,,,,,,,,,,None,None,None,None,None,1305.4176140998024,None,1305.4176140998024,None,1305.4176140998024,None,1305.4176140998024,None,i,0.3902806001715362,1305.4176140998024,None,1305.4176140998024,None,1305.8562312999275,None,1305.8562312999275,None,1305.8562312999275,None,1305.8562312999275,None,1305.8562312999275,None,1305.8562312999275,None,1306.1483922998887,1307.8662963998504,1306.1483922998887,1307.8662963998504,1307.895303600002,None,1307.895303600002,None,1307.895303600002,None,1307.895303600002,None,1307.895303600002,None,1307.895303600002,None,1307.895303600002,None,1307.895303600002,None,1307.895303600002,None,28,46,52,41,52,47,1310.4145313999616,None,4.0,1.672887299908325,1310.4145313999616,None,1310.4145313999616,None,1310.4145313999616,None,1310.4145313999616,None,None,None,1312.1021264998708,None,,,,,,,118,f,1,2022_Dec_11_1605,RL,2021.2.3,59.92275954682339,
1,18,0,18,0,,,,,,,,,,,,,,,None,None,None,None,None,1313.690215599956,None,1313.690215599956,None,1313.690215599956,None,1313.690215599956,None,i,0.4170815001707524,1313.690215599956,None,1313.690215599956,None,1314.1633329999167,None,1314.1633329999167,None,1314.1633329999167,None,1314.1633329999167,None,1314.1633329999167,None,1314.1633329999167,None,1314.4541690999176,1316.1052411999553,1314.4541690999176,1316.1052411999553,1316.1336199999787,None,1316.1336199999787,None,1316.1336199999787,None,1316.1336199999787,None,1316.1336199999787,None,1316.1336199999787,None,1316.1336199999787,None,1316.1336199999787,None,1316.1336199999787,None,29,45,50,43,50,39,1318.6523551000282,None,5.0,1.4084008999634534,1318.6523551000282,None,1318.6523551000282,None,1318.6523551000282,None,1318.6523551000282,None,None,None,1320.0779399999883,None,,,,,,,118,f,1,2022_Dec_11_1605,RL,2021.2.3,59.92275954682339,
1,19,0,19,0,,,,,,,,,,,,,,,None,None,None,None,None,1321.9456880998332,None,1321.9456880998332,None,1321.9456880998332,None,1321.9456880998332,None,i,0.5016803999897093,1321.9456880998332,None,1321.9456880998332,None,1322.5028676998336,None,1322.5028676998336,None,1322.5028676998336,None,1322.5028676998336,None,1322.5028676998336,None,1322.5028676998336,None,1322.793351399945,1324.4445687998086,1322.793351399945,1324.4445687998086,1324.480926899938,None,1324.480926899938,None,1324.480926899938,None,1324.480926899938,None,1324.480926899938,None,1324.480926899938,None,1324.480926899938,None,1324.480926899938,None,1324.480926899938,None,34,48,44,46,44,59,1327.0127824998926,None,3.0,1.0040200999937952,1327.0127824998926,None,1327.0127824998926,None,1327.0127824998926,None,1327.0127824998926,None,None,None,1328.0385314999148,None,,,,,,,118,f,1,2022_Dec_11_1605,RL,2021.2.3,59.92275954682339,
1,20,0,20,0,,,,,,,,,,,,,,,None,None,None,None,None,1329.7342397000175,None,1329.7342397000175,None,1329.7342397000175,None,1329.7342397000175,None,r,0.4530713998246938,1329.7342397000175,None,1329.7342397000175,None,1330.241305399919,None,1330.241305399919,None,1330.241305399919,None,1330.241305399919,None,1330.241305399919,None,1330.241305399919,None,1330.5320131999906,None,1330.5320131999906,None,1332.098585799802,None,1332.098585799802,None,1332.098585799802,None,1332.098585799802,None,1332.098585799802,None,1332.098585799802,None,1332.098585799802,None,1332.098585799802,None,1332.098585799802,None,33,40,43,45,33,52,1334.614826099947,None,2.0,1.3563033998943865,1334.614826099947,None,1334.614826099947,None,1334.614826099947,None,1334.614826099947,None,None,None,1335.9935887998436,None,,,,,,,118,f,1,2022_Dec_11_1605,RL,2021.2.3,59.92275954682339,
1,21,0,21,0,,,,,,,,,,,,,,,None,None,None,None,None,1337.5562640000135,None,1337.5562640000135,None,1337.5562640000135,None,1337.5562640000135,None,j,0.5014279000461102,1337.5562640000135,None,1337.5562640000135,None,1338.108802499948,None,1338.108802499948,None,1338.108802499948,None,1338.108802499948,None,1338.108802499948,None,1338.108802499948,None,1338.4041455998085,1339.4883234999143,1338.4041455998085,1339.4883234999143,1339.5203571999446,None,1339.5203571999446,None,1339.5203571999446,None,1339.5203571999446,None,1339.5203571999446,None,1339.5203571999446,None,1339.5203571999446,None,1339.5203571999446,None,1339.5203571999446,None,34,52,53,47,47,44,1342.036964399973,None,4.0,2.072055700002238,1342.036964399973,None,1342.036964399973,None,1342.036964399973,None,1342.036964399973,None,None,None,1344.1247760998085,None,,,,,,,118,f,1,2022_Dec_11_1605,RL,2021.2.3,59.92275954682339,
1,22,0,22,0,,,,,,,,,,,,,,,None,None,None,None,None,1345.9624910999555,None,1345.9624910999555,None,1345.9624910999555,None,1345.9624910999555,None,j,0.4751966001931578,1345.9624910999555,None,1345.9624910999555,None,1346.4809824998956,None,1346.4809824998956,None,1346.4809824998956,None,1346.4809824998956,None,1346.4809824998956,None,1346.4809824998956,None,1346.7765622998122,None,1346.7765622998122,None,1348.2393796998076,None,1348.2393796998076,None,1348.2393796998076,None,1348.2393796998076,None,1348.2393796998076,None,1348.2393796998076,None,1348.2393796998076,None,1348.2393796998076,None,1348.2393796998076,None,37,39,53,43,43,39,1350.7584960998502,None,4.0,0.7217798000201583,1350.7584960998502,None,1350.7584960998502,None,1350.7584960998502,None,1350.7584960998502,None,None,None,1351.5019515999593,None,,,,,,,118,f,1,2022_Dec_11_1605,RL,2021.2.3,59.92275954682339,
1,23,0,23,0,,,,,,,,,,,,,,,None,None,None,None,None,1353.2843287999276,None,1353.2843287999276,None,1353.2843287999276,None,1353.2843287999276,None,j,0.3634457001462579,1353.2843287999276,None,1353.2843287999276,None,1353.6874020998366,None,1353.6874020998366,None,1353.6874020998366,None,1353.6874020998366,None,1353.6874020998366,None,1353.6874020998366,None,1353.9819411998615,1355.5825167000294,1353.9819411998615,1355.5825167000294,1355.6129377000034,None,1355.6129377000034,None,1355.6129377000034,None,1355.6129377000034,None,1355.6129377000034,None,1355.6129377000034,None,1355.6129377000034,None,1355.6129377000034,None,1355.6129377000034,None,31,45,57,42,42,28,1358.139802099904,None,5.0,1.6151050999760628,1358.139802099904,None,1358.139802099904,None,1358.139802099904,None,1358.139802099904,None,None,None,1359.7685261999723,None,,,,,,,118,f,1,2022_Dec_11_1605,RL,2021.2.3,59.92275954682339,
1,24,0,24,0,,,,,,,,,,,,,,,None,None,None,None,None,1361.523587099975,None,1361.523587099975,None,1361.523587099975,None,1361.523587099975,None,i,0.35388970002532005,1361.523587099975,None,1361.523587099975,None,1361.9304951999802,None,1361.9304951999802,None,1361.9304951999802,None,1361.9304951999802,None,1361.9304951999802,None,1361.9304951999802,None,1362.2209883998148,1363.2545997998677,1362.2209883998148,1363.2545997998677,1363.2864556999411,None,1363.2864556999411,None,1363.2864556999411,None,1363.2864556999411,None,1363.2864556999411,None,1363.2864556999411,None,1363.2864556999411,None,1363.2864556999411,None,1363.2864556999411,None,36,36,53,44,53,55,1365.8011606999207,None,4.0,0.8904438000172377,1365.8011606999207,None,1365.8011606999207,None,1365.8011606999207,None,1365.8011606999207,None,None,None,1366.7067656000145,None,,,,,,,118,f,1,2022_Dec_11_1605,RL,2021.2.3,59.92275954682339,
1,25,0,25,0,,,,,,,,,,,,,,,None,None,None,None,None,1368.6611146999057,None,1368.6611146999057,None,1368.6611146999057,None,1368.6611146999057,None,f,0.3865104999858886,1368.6611146999057,None,1368.6611146999057,None,1369.0962855999824,None,1369.0962855999824,None,1369.0962855999824,None,1369.0962855999824,None,1369.0962855999824,None,1369.0962855999824,None,1369.3922621000092,None,1369.3922621000092,None,1371.0233747998718,None,1371.0233747998718,None,1371.0233747998718,None,1371.0233747998718,None,1371.0233747998718,None,1371.0233747998718,None,1371.0233747998718,None,1371.0233747998718,None,1371.0233747998718,None,36,41,50,45,41,60,1373.5401202999055,None,3.0,1.6061774999834597,1373.5401202999055,None,1373.5401202999055,None,1373.5401202999055,None,1373.5401202999055,None,None,None,1375.1651853998192,None,,,,,,,118,f,1,2022_Dec_11_1605,RL,2021.2.3,59.92275954682339,
1,26,0,26,0,,,,,,,,,,,,,,,None,None,None,None,None,1377.050344799878,None,1377.050344799878,None,1377.050344799878,None,1377.050344799878,None,j,0.337218499975279,1377.050344799878,None,1377.050344799878,None,1377.435307299951,None,1377.435307299951,None,1377.435307299951,None,1377.435307299951,None,1377.435307299951,None,1377.435307299951,None,1377.7313865998294,None,1377.7313865998294,None,1379.4124630999286,None,1379.4124630999286,None,1379.4124630999286,None,1379.4124630999286,None,1379.4124630999286,None,1379.4124630999286,None,1379.4124630999286,None,1379.4124630999286,None,1379.4124630999286,None,34,41,50,46,46,24,1381.934292400023,None,5.0,1.6201657999772578,1381.934292400023,None,1381.934292400023,None,1381.934292400023,None,1381.934292400023,None,None,None,1383.570087599801,None,,,,,,,118,f,1,2022_Dec_11_1605,RL,2021.2.3,59.92275954682339,
1,27,0,27,0,,,,,,,,,,,,,,,None,None,None,None,None,1385.3389063000213,None,1385.3389063000213,None,1385.3389063000213,None,1385.3389063000213,None,j,0.4991986998356879,1385.3389063000213,None,1385.3389063000213,None,1385.8907552999444,None,1385.8907552999444,None,1385.8907552999444,None,1385.8907552999444,None,1385.8907552999444,None,1385.8907552999444,None,1386.1871862998232,None,1386.1871862998232,None,1387.9177847998217,None,1387.9177847998217,None,1387.9177847998217,None,1387.9177847998217,None,1387.9177847998217,None,1387.9177847998217,None,1387.9177847998217,None,1387.9177847998217,None,1387.9177847998217,None,36,33,55,48,48,30,1390.4373080998193,None,5.0,1.2882834000047296,1390.4373080998193,None,1390.4373080998193,None,1390.4373080998193,None,1390.4373080998193,None,None,None,1391.7406673999503,None,,,,,,,118,f,1,2022_Dec_11_1605,RL,2021.2.3,59.92275954682339,
1,28,0,28,0,,,,,,,,,,,,,,,None,None,None,None,None,1393.6287850998342,None,1393.6287850998342,None,1393.6287850998342,None,1393.6287850998342,None,j,0.3991859001107514,1393.6287850998342,None,1393.6287850998342,None,1394.0823740998749,None,1394.0823740998749,None,1394.0823740998749,None,1394.0823740998749,None,1394.0823740998749,None,1394.0823740998749,None,1394.3595513999462,1395.7105167999398,1394.3595513999462,1395.7105167999398,1395.7614388999064,None,1395.7614388999064,None,1395.7614388999064,None,1395.7614388999064,None,1395.7614388999064,None,1395.7614388999064,None,1395.7614388999064,None,1395.7614388999064,None,1395.7614388999064,None,34,36,47,47,47,45,1398.2832290998194,None,4.0,0.9995291999075562,1398.2832290998194,None,1398.2832290998194,None,1398.2832290998194,None,1398.2832290998194,None,None,None,1399.2957792999223,None,,,,,,,118,f,1,2022_Dec_11_1605,RL,2021.2.3,59.92275954682339,
1,29,0,29,0,,,,,,,,,,,,,,,None,None,None,None,None,1400.8839367998298,None,1400.8839367998298,None,1400.8839367998298,None,1400.8839367998298,None,i,0.4341094000265002,1400.8839367998298,None,1400.8839367998298,None,1401.3717696999665,None,1401.3717696999665,None,1401.3717696999665,None,1401.3717696999665,None,1401.3717696999665,None,1401.3717696999665,None,1401.6482224999927,1402.7653045998886,1401.6482224999927,1402.7653045998886,1402.8141126998235,None,1402.8141126998235,None,1402.8141126998235,None,1402.8141126998235,None,1402.8141126998235,None,1402.8141126998235,None,1402.8141126998235,None,1402.8141126998235,None,1402.8141126998235,None,41,29,55,48,55,36,1405.3244685998652,None,5.0,1.9277583002112806,1405.3244685998652,None,1405.3244685998652,None,1405.3244685998652,None,1405.3244685998652,None,None,None,1407.267902399879,None,,,,,,,118,f,1,2022_Dec_11_1605,RL,2021.2.3,59.92275954682339,
1,30,0,30,0,,,,,,,,,,,,,,,None,None,None,None,None,1409.0384482999798,None,1409.0384482999798,None,1409.0384482999798,None,1409.0384482999798,None,i,0.4096907000057399,1409.0384482999798,None,1409.0384482999798,None,1409.4929448999465,None,1409.4929448999465,None,1409.4929448999465,None,1409.4929448999465,None,1409.4929448999465,None,1409.4929448999465,None,1409.7872106998693,None,1409.7872106998693,None,1411.0185896998737,None,1411.0185896998737,None,1411.0185896998737,None,1411.0185896998737,None,1411.0185896998737,None,1411.0185896998737,None,1411.0185896998737,None,1411.0185896998737,None,1411.0185896998737,None,40,46,68,43,68,59,1413.543607499916,None,5.0,1.0664611998945475,1413.543607499916,None,1413.543607499916,None,1413.543607499916,None,1413.543607499916,None,None,None,1414.6325814998709,None,,,,,,,118,f,1,2022_Dec_11_1605,RL,2021.2.3,59.92275954682339,
1,31,0,31,0,,,,,,,,,,,,,,,None,None,None,None,None,1416.627971699927,None,1416.627971699927,None,1416.627971699927,None,1416.627971699927,None,i,0.5202618001494557,1416.627971699927,None,1416.627971699927,None,1417.1971774999984,None,1417.1971774999984,None,1417.1971774999984,None,1417.1971774999984,None,1417.1971774999984,None,1417.1971774999984,None,1417.49253519997,None,1417.49253519997,None,1418.638811999932,None,1418.638811999932,None,1418.638811999932,None,1418.638811999932,None,1418.638811999932,None,1418.638811999932,None,1418.638811999932,None,1418.638811999932,None,1418.638811999932,None,40,45,63,50,63,49,1421.1577780998778,None,5.0,1.6879034999292344,1421.1577780998778,None,1421.1577780998778,None,1421.1577780998778,None,1421.1577780998778,None,None,None,1422.8621936999261,None,,,,,,,118,f,1,2022_Dec_11_1605,RL,2021.2.3,59.92275954682339,
1,32,0,32,0,,,,,,,,,,,,,,,None,None,None,None,None,1424.7839543998707,None,1424.7839543998707,None,1424.7839543998707,None,1424.7839543998707,None,i,0.4644641999620944,1424.7839543998707,None,1424.7839543998707,None,1425.2850980998483,None,1425.2850980998483,None,1425.2850980998483,None,1425.2850980998483,None,1425.2850980998483,None,1425.2850980998483,None,1425.5812738998793,None,1425.5812738998793,None,1427.5316653999034,None,1427.5316653999034,None,1427.5316653999034,None,1427.5316653999034,None,1427.5316653999034,None,1427.5316653999034,None,1427.5316653999034,None,1427.5316653999034,None,1427.5316653999034,None,39,36,61,52,61,58,1430.0479937999044,None,5.0,1.2035298000555485,1430.0479937999044,None,1430.0479937999044,None,1430.0479937999044,None,1430.0479937999044,None,None,None,1431.2679258999415,None,,,,,,,118,f,1,2022_Dec_11_1605,RL,2021.2.3,59.92275954682339,
1,33,0,33,0,,,,,,,,,,,,,,,None,None,None,None,None,1433.105937300017,None,1433.105937300017,None,1433.105937300017,None,1433.105937300017,None,i,0.3630530000664294,1433.105937300017,None,1433.105937300017,None,1433.511188799981,None,1433.511188799981,None,1433.511188799981,None,1433.511188799981,None,1433.511188799981,None,1433.511188799981,None,1433.8036697998177,1434.9709595998283,1433.8036697998177,1434.9709595998283,1435.0020284999628,None,1435.0020284999628,None,1435.0020284999628,None,1435.0020284999628,None,1435.0020284999628,None,1435.0020284999628,None,1435.0020284999628,None,1435.0020284999628,None,1435.0020284999628,None,40,33,64,47,64,62,1437.522468799958,None,4.0,1.120320799993351,1437.522468799958,None,1437.522468799958,None,1437.522468799958,None,1437.522468799958,None,None,None,1438.6631229999475,None,,,,,,,118,f,1,2022_Dec_11_1605,RL,2021.2.3,59.92275954682339,
1,34,0,34,0,,,,,,,,,,,,,,,None,None,None,None,None,1440.6115538999438,None,1440.6115538999438,None,1440.6115538999438,None,1440.6115538999438,None,j,0.907556900056079,1440.6115538999438,None,1440.6115538999438,None,1441.5665329999756,None,1441.5665329999756,None,1441.5665329999756,None,1441.5665329999756,None,1441.5665329999756,None,1441.5665329999756,None,1441.8426694998052,1443.6603532999288,1441.8426694998052,1443.6603532999288,1443.7095888999756,None,1443.7095888999756,None,1443.7095888999756,None,1443.7095888999756,None,1443.7095888999756,None,1443.7095888999756,None,1443.7095888999756,None,1443.7095888999756,None,1443.7095888999756,None,39,44,66,50,50,59,1446.2263956000097,None,3.0,1.202840499812737,1446.2263956000097,None,1446.2263956000097,None,1446.2263956000097,None,1446.2263956000097,None,None,None,1447.4458687999286,None,,,,,,,118,f,1,2022_Dec_11_1605,RL,2021.2.3,59.92275954682339,
1,35,0,35,0,,,,,,,,,,,,,,,None,None,None,None,None,1449.1008329999167,None,1449.1008329999167,None,1449.1008329999167,None,1449.1008329999167,None,i,0.3484595001209527,1449.1008329999167,None,1449.1008329999167,None,1449.4868773999624,None,1449.4868773999624,None,1449.4868773999624,None,1449.4868773999624,None,1449.4868773999624,None,1449.4868773999624,None,1449.7816039999016,None,1449.7816039999016,None,1451.0463286999147,None,1451.0463286999147,None,1451.0463286999147,None,1451.0463286999147,None,1451.0463286999147,None,1451.0463286999147,None,1451.0463286999147,None,1451.0463286999147,None,1451.0463286999147,None,34,39,70,55,70,51,1453.5757648998406,None,6.0,1.4490133000072092,1453.5757648998406,None,1453.5757648998406,None,1453.5757648998406,None,1453.5757648998406,None,None,None,1455.0366690999363,None,,,,,,,118,f,1,2022_Dec_11_1605,RL,2021.2.3,59.92275954682339,
1,36,0,36,0,,,,,,,,,,,,,,,None,None,None,None,None,1456.9063026998192,None,1456.9063026998192,None,1456.9063026998192,None,1456.9063026998192,None,i,0.42274109995923936,1456.9063026998192,None,1456.9063026998192,None,1457.3763307000045,None,1457.3763307000045,None,1457.3763307000045,None,1457.3763307000045,None,1457.3763307000045,None,1457.3763307000045,None,1457.6704055999871,None,1457.6704055999871,None,1459.3857960999012,None,1459.3857960999012,None,1459.3857960999012,None,1459.3857960999012,None,1459.3857960999012,None,1459.3857960999012,None,1459.3857960999012,None,1459.3857960999012,None,1459.3857960999012,None,34,41,74,41,74,45,1461.90129469987,None,6.0,1.9725785001646727,1461.90129469987,None,1461.90129469987,None,1461.90129469987,None,1461.90129469987,None,None,None,1463.8911869998556,None,,,,,,,118,f,1,2022_Dec_11_1605,RL,2021.2.3,59.92275954682339,
1,37,0,37,0,,,,,,,,,,,,,,,None,None,None,None,None,1465.7450428998563,None,1465.7450428998563,None,1465.7450428998563,None,1465.7450428998563,None,i,0.2940596002154052,1465.7450428998563,None,1465.7450428998563,None,1466.0810171999037,None,1466.0810171999037,None,1466.0810171999037,None,1466.0810171999037,None,1466.0810171999037,None,1466.0810171999037,None,1466.3763343000319,None,1466.3763343000319,None,1468.060317599913,None,1468.060317599913,None,1468.060317599913,None,1468.060317599913,None,1468.060317599913,None,1468.060317599913,None,1468.060317599913,None,1468.060317599913,None,1468.060317599913,None,33,32,75,47,75,21,1470.575324199861,None,7.0,1.5216908999718726,1470.575324199861,None,1470.575324199861,None,1470.575324199861,None,1470.575324199861,None,None,None,1472.1128843999468,None,,,,,,,118,f,1,2022_Dec_11_1605,RL,2021.2.3,59.92275954682339,
1,38,0,38,0,,,,,,,,,,,,,,,None,None,None,None,None,1473.9512616998982,None,1473.9512616998982,None,1473.9512616998982,None,1473.9512616998982,None,i,0.7081923999357969,1473.9512616998982,None,1473.9512616998982,None,1474.703953600023,None,1474.703953600023,None,1474.703953600023,None,1474.703953600023,None,1474.703953600023,None,1474.703953600023,None,1474.998997699935,1476.1328161999118,1474.998997699935,1476.1328161999118,1476.1644380998332,None,1476.1644380998332,None,1476.1644380998332,None,1476.1644380998332,None,1476.1644380998332,None,1476.1644380998332,None,1476.1644380998332,None,1476.1644380998332,None,1476.1644380998332,None,33,38,79,55,79,59,1478.6811991999857,None,6.0,1.2075106999836862,1478.6811991999857,None,1478.6811991999857,None,1478.6811991999857,None,1478.6811991999857,None,None,None,1479.9070095999632,None,,,,,,,118,f,1,2022_Dec_11_1605,RL,2021.2.3,59.92275954682339,
1,39,0,39,0,,,,,,,,,,,,,,,None,None,None,None,None,1481.8898694999516,None,1481.8898694999516,None,1481.8898694999516,None,1481.8898694999516,None,i,0.48967890022322536,1481.8898694999516,None,1481.8898694999516,None,1482.4252433998045,None,1482.4252433998045,None,1482.4252433998045,None,1482.4252433998045,None,1482.4252433998045,None,1482.4252433998045,None,1482.7210531998426,1484.6721389999148,1482.7210531998426,1484.6721389999148,1484.7052519000135,None,1484.7052519000135,None,1484.7052519000135,None,1484.7052519000135,None,1484.7052519000135,None,1484.7052519000135,None,1484.7052519000135,None,1484.7052519000135,None,1484.7052519000135,None,36,36,73,43,73,42,1487.2202320999932,None,7.0,1.106635400094092,1487.2202320999932,None,1487.2202320999932,None,1487.2202320999932,None,1487.2202320999932,None,None,None,1488.3466560000088,None,,,,,,,118,f,1,2022_Dec_11_1605,RL,2021.2.3,59.92275954682339,
1,40,0,40,0,,,,,,,,,,,,,,,None,None,None,None,None,1490.0624760999344,None,1490.0624760999344,None,1490.0624760999344,None,1490.0624760999344,None,i,0.3970838999375701,1490.0624760999344,None,1490.0624760999344,None,1490.4970223000273,None,1490.4970223000273,None,1490.4970223000273,None,1490.4970223000273,None,1490.4970223000273,None,1490.4970223000273,None,1490.7930636999663,None,1490.7930636999663,None,1491.7897877998184,None,1491.7897877998184,None,1491.7897877998184,None,1491.7897877998184,None,1491.7897877998184,None,1491.7897877998184,None,1491.7897877998184,None,1491.7897877998184,None,1491.7897877998184,None,37,37,76,40,76,54,1494.3099103998393,None,6.0,1.0057431999593973,1494.3099103998393,None,1494.3099103998393,None,1494.3099103998393,None,1494.3099103998393,None,None,None,1495.3305484999437,None,,,,,,,118,f,1,2022_Dec_11_1605,RL,2021.2.3,59.92275954682339,
1,41,0,41,0,,,,,,,,,,,,,,,None,None,None,None,None,1496.9335506998468,None,1496.9335506998468,None,1496.9335506998468,None,1496.9335506998468,None,i,0.35596859990619123,1496.9335506998468,None,1496.9335506998468,None,1497.3373497999273,None,1497.3373497999273,None,1497.3373497999273,None,1497.3373497999273,None,1497.3373497999273,None,1497.3373497999273,None,1497.614500100026,1498.9653210998513,1497.614500100026,1498.9653210998513,1498.9973002998158,None,1498.9973002998158,None,1498.9973002998158,None,1498.9973002998158,None,1498.9973002998158,None,1498.9973002998158,None,1498.9973002998158,None,1498.9973002998158,None,1498.9973002998158,None,30,38,66,46,66,53,1501.5162394000217,None,5.0,1.017550899880007,1501.5162394000217,None,1501.5162394000217,None,1501.5162394000217,None,1501.5162394000217,None,None,None,1502.5509407999925,None,,,,,,,118,f,1,2022_Dec_11_1605,RL,2021.2.3,59.92275954682339,
1,42,0,42,0,,,,,,,,,,,,,,,None,None,None,None,None,1504.0713611999527,None,1504.0713611999527,None,1504.0713611999527,None,1504.0713611999527,None,i,0.3781137999612838,1504.0713611999527,None,1504.0713611999527,None,1504.492834799923,None,1504.492834799923,None,1504.492834799923,None,1504.492834799923,None,1504.492834799923,None,1504.492834799923,None,1504.7694508000277,1506.5706084999256,1504.7694508000277,1506.5706084999256,1506.6026725999545,None,1506.6026725999545,None,1506.6026725999545,None,1506.6026725999545,None,1506.6026725999545,None,1506.6026725999545,None,1506.6026725999545,None,1506.6026725999545,None,1506.6026725999545,None,32,35,64,39,64,52,1509.1178617998958,None,5.0,1.5562574998475611,1509.1178617998958,None,1509.1178617998958,None,1509.1178617998958,None,1509.1178617998958,None,None,None,1510.6894676999655,None,,,,,,,118,f,1,2022_Dec_11_1605,RL,2021.2.3,59.92275954682339,
1,43,0,43,0,,,,,,,,,,,,,,,None,None,None,None,None,1512.3103193999268,None,1512.3103193999268,None,1512.3103193999268,None,1512.3103193999268,None,i,0.349332100013271,1512.3103193999268,None,1512.3103193999268,None,1512.7143996998202,None,1512.7143996998202,None,1512.7143996998202,None,1512.7143996998202,None,1512.7143996998202,None,1512.7143996998202,None,1513.0086347998586,1514.876295399852,1513.0086347998586,1514.876295399852,1514.908659499837,None,1514.908659499837,None,1514.908659499837,None,1514.908659499837,None,1514.908659499837,None,1514.908659499837,None,1514.908659499837,None,1514.908659499837,None,1514.908659499837,None,38,27,54,54,54,21,1517.4239139999263,None,6.0,1.1398946999106556,1517.4239139999263,None,1517.4239139999263,None,1517.4239139999263,None,1517.4239139999263,None,None,None,1518.579814699944,None,,,,,,,118,f,1,2022_Dec_11_1605,RL,2021.2.3,59.92275954682339,
1,44,0,44,0,,,,,,,,,,,,,,,None,None,None,None,None,1520.2497347998433,None,1520.2497347998433,None,1520.2497347998433,None,1520.2497347998433,None,i,0.35989059996791184,1520.2497347998433,None,1520.2497347998433,None,1520.6521611998323,None,1520.6521611998323,None,1520.6521611998323,None,1520.6521611998323,None,1520.6521611998323,None,1520.6521611998323,None,1520.9473512999248,None,1520.9473512999248,None,1522.9176603998058,None,1522.9176603998058,None,1522.9176603998058,None,1522.9176603998058,None,1522.9176603998058,None,1522.9176603998058,None,1522.9176603998058,None,1522.9176603998058,None,1522.9176603998058,None,32,28,60,49,60,56,1525.4323475998826,None,4.0,1.3385077000129968,1525.4323475998826,None,1525.4323475998826,None,1525.4323475998826,None,1525.4323475998826,None,None,None,1526.7951931999996,None,,,,,,,118,f,1,2022_Dec_11_1605,RL,2021.2.3,59.92275954682339,
1,45,0,45,0,,,,,,,,,,,,,,,None,None,None,None,None,1528.339053499978,None,1528.339053499978,None,1528.339053499978,None,1528.339053499978,None,i,0.3506704999599606,1528.339053499978,None,1528.339053499978,None,1528.7397331998218,None,1528.7397331998218,None,1528.7397331998218,None,1528.7397331998218,None,1528.7397331998218,None,1528.7397331998218,None,1529.0363149000332,None,1529.0363149000332,None,1530.8537287998479,None,1530.8537287998479,None,1530.8537287998479,None,1530.8537287998479,None,1530.8537287998479,None,1530.8537287998479,None,1530.8537287998479,None,1530.8537287998479,None,1530.8537287998479,None,32,26,57,56,57,58,1533.3809543999378,None,4.0,1.3791934000328183,1533.3809543999378,None,1533.3809543999378,None,1533.3809543999378,None,1533.3809543999378,None,None,None,1534.7744479998946,None,,,,,,,118,f,1,2022_Dec_11_1605,RL,2021.2.3,59.92275954682339,
1,46,0,46,0,,,,,,,,,,,,,,,None,None,None,None,None,1536.2942645000294,None,1536.2942645000294,None,1536.2942645000294,None,1536.2942645000294,None,f,0.4150192001834512,1536.2942645000294,None,1536.2942645000294,None,1536.7462406000122,None,1536.7462406000122,None,1536.7462406000122,None,1536.7462406000122,None,1536.7462406000122,None,1536.7462406000122,None,1537.0418302998878,1538.4093043999746,1537.0418302998878,1538.4093043999746,1538.44252209994,None,1538.44252209994,None,1538.44252209994,None,1538.44252209994,None,1538.44252209994,None,1538.44252209994,None,1538.44252209994,None,1538.44252209994,None,1538.44252209994,None,40,33,55,57,33,63,1540.95861229999,None,2.0,1.3704782000277191,1540.95861229999,None,1540.95861229999,None,1540.95861229999,None,1540.95861229999,None,None,None,1542.3450837000273,None,,,,,,,118,f,1,2022_Dec_11_1605,RL,2021.2.3,59.92275954682339,
1,47,0,47,0,,,,,,,,,,,,,,,None,None,None,None,None,1544.2334018999245,None,1544.2334018999245,None,1544.2334018999245,None,1544.2334018999245,None,i,0.3066143000032753,1544.2334018999245,None,1544.2334018999245,None,1544.5902478999924,None,1544.5902478999924,None,1544.5902478999924,None,1544.5902478999924,None,1544.5902478999924,None,1544.5902478999924,None,1544.880566299893,1546.3147371998057,1544.880566299893,1546.3147371998057,1546.3473864998668,None,1546.3473864998668,None,1546.3473864998668,None,1546.3473864998668,None,1546.3473864998668,None,1546.3473864998668,None,1546.3473864998668,None,1546.3473864998668,None,1546.3473864998668,None,30,32,54,57,54,31,1548.8626339000184,None,5.0,1.9894327998626977,1548.8626339000184,None,1548.8626339000184,None,1548.8626339000184,None,1548.8626339000184,None,None,None,1550.867826799862,None,,,,,,,118,f,1,2022_Dec_11_1605,RL,2021.2.3,59.92275954682339,
1,48,0,48,0,,,,,,,,,,,,,,,None,None,None,None,None,1552.3888156998437,None,1552.3888156998437,None,1552.3888156998437,None,1552.3888156998437,None,i,0.3611139999702573,1552.3888156998437,None,1552.3888156998437,None,1552.7924068998545,None,1552.7924068998545,None,1552.7924068998545,None,1552.7924068998545,None,1552.7924068998545,None,1552.7924068998545,None,1553.0864997999743,None,1553.0864997999743,None,1554.7846179998014,None,1554.7846179998014,None,1554.7846179998014,None,1554.7846179998014,None,1554.7846179998014,None,1554.7846179998014,None,1554.7846179998014,None,1554.7846179998014,None,1554.7846179998014,None,28,39,59,61,59,34,1557.3027426998597,None,5.0,1.1882887999527156,1557.3027426998597,None,1557.3027426998597,None,1557.3027426998597,None,1557.3027426998597,None,None,None,1558.5063157000113,None,,,,,,,118,f,1,2022_Dec_11_1605,RL,2021.2.3,59.92275954682339,
1,49,0,49,0,,,,,,,,,,,,,,,None,None,None,None,None,1560.3609331999905,None,1560.3609331999905,None,1560.3609331999905,None,1560.3609331999905,None,i,0.5687881999183446,1560.3609331999905,None,1560.3609331999905,None,1560.9801605998073,None,1560.9801605998073,None,1560.9801605998073,None,1560.9801605998073,None,1560.9801605998073,None,1560.9801605998073,None,1561.275275999913,None,1561.275275999913,None,1562.5535173998214,None,1562.5535173998214,None,1562.5535173998214,None,1562.5535173998214,None,1562.5535173998214,None,1562.5535173998214,None,1562.5535173998214,None,1562.5535173998214,None,1562.5535173998214,None,35,37,52,49,52,67,1565.0735706998967,None,4.0,0.9727003998123109,1565.0735706998967,None,1565.0735706998967,None,1565.0735706998967,None,1565.0735706998967,None,None,None,1566.0615599998273,None,,,,,,,118,f,1,2022_Dec_11_1605,RL,2021.2.3,59.92275954682339,
1,50,0,50,0,,,,,,,,,,,,,,,None,None,None,None,None,1568.0164089000318,None,1568.0164089000318,None,1568.0164089000318,None,1568.0164089000318,None,i,0.32322110002860427,1568.0164089000318,None,1568.0164089000318,None,1568.386637999909,None,1568.386637999909,None,1568.386637999909,None,1568.386637999909,None,1568.386637999909,None,1568.386637999909,None,1568.6804961999878,1569.5641927998513,1568.6804961999878,1569.5641927998513,1569.5930138998665,None,1569.5930138998665,None,1569.5930138998665,None,1569.5930138998665,None,1569.5930138998665,None,1569.5930138998665,None,1569.5930138998665,None,1569.5930138998665,None,1569.5930138998665,None,24,37,63,44,63,67,1572.1186701999977,None,4.0,1.6491775000467896,1572.1186701999977,None,1572.1186701999977,None,1572.1186701999977,None,1572.1186701999977,None,None,None,1573.7838911998551,None,,,,,,,118,f,1,2022_Dec_11_1605,RL,2021.2.3,59.92275954682339,
1,51,0,51,0,,,,,,,,,,,,,,,None,None,None,None,None,1575.5709180999547,None,1575.5709180999547,None,1575.5709180999547,None,1575.5709180999547,None,r,0.38885940006002784,1575.5709180999547,None,1575.5709180999547,None,1576.00799069996,None,1576.00799069996,None,1576.00799069996,None,1576.00799069996,None,1576.00799069996,None,1576.00799069996,None,1576.302272300003,None,1576.302272300003,None,1577.3825798998587,None,1577.3825798998587,None,1577.3825798998587,None,1577.3825798998587,None,1577.3825798998587,None,1577.3825798998587,None,1577.3825798998587,None,1577.3825798998587,None,1577.3825798998587,None,31,44,59,49,31,44,1579.89994319994,None,3.0,0.873202099930495,1579.89994319994,None,1579.89994319994,None,1579.89994319994,None,1579.89994319994,None,None,None,1580.7974963998422,None,,,,,,,118,f,1,2022_Dec_11_1605,RL,2021.2.3,59.92275954682339,
1,52,0,52,0,,,,,,,,,,,,,,,None,None,None,None,None,1582.676481399918,None,1582.676481399918,None,1582.676481399918,None,1582.676481399918,None,i,0.5936484998092055,1582.676481399918,None,1582.676481399918,None,1583.3127115999814,None,1583.3127115999814,None,1583.3127115999814,None,1583.3127115999814,None,1583.3127115999814,None,1583.3127115999814,None,1583.6074311998673,None,1583.6074311998673,None,1584.9894455999602,None,1584.9894455999602,None,1584.9894455999602,None,1584.9894455999602,None,1584.9894455999602,None,1584.9894455999602,None,1584.9894455999602,None,1584.9894455999602,None,1584.9894455999602,None,31,41,49,37,49,64,1587.5066849000286,None,4.0,1.070752500090748,1587.5066849000286,None,1587.5066849000286,None,1587.5066849000286,None,1587.5066849000286,None,None,None,1588.593557199929,None,,,,,,,118,f,1,2022_Dec_11_1605,RL,2021.2.3,59.92275954682339,
1,53,0,53,0,,,,,,,,,,,,,,,None,None,None,None,None,1590.198773099808,None,1590.198773099808,None,1590.198773099808,None,1590.198773099808,None,j,0.34116300009191036,1590.198773099808,None,1590.198773099808,None,1590.5841605998576,None,1590.5841605998576,None,1590.5841605998576,None,1590.5841605998576,None,1590.5841605998576,None,1590.5841605998576,None,1590.879360199906,1592.0131618999876,1590.879360199906,1592.0131618999876,1592.0444194998126,None,1592.0444194998126,None,1592.0444194998126,None,1592.0444194998126,None,1592.0444194998126,None,1592.0444194998126,None,1592.0444194998126,None,1592.0444194998126,None,1592.0444194998126,None,36,43,56,44,44,68,1594.5691821000073,None,4.0,1.3142038001678884,1594.5691821000073,None,1594.5691821000073,None,1594.5691821000073,None,1594.5691821000073,None,None,None,1595.8916761998553,None,,,,,,,118,f,1,2022_Dec_11_1605,RL,2021.2.3,59.92275954682339,
1,54,0,54,0,,,,,,,,,,,,,,,None,None,None,None,None,1597.8199451998807,None,1597.8199451998807,None,1597.8199451998807,None,1597.8199451998807,None,i,0.34009930002503097,1597.8199451998807,None,1597.8199451998807,None,1598.2026120999362,None,1598.2026120999362,None,1598.2026120999362,None,1598.2026120999362,None,1598.2026120999362,None,1598.2026120999362,None,1598.5010528999846,None,1598.5010528999846,None,1599.4484721999615,None,1599.4484721999615,None,1599.4484721999615,None,1599.4484721999615,None,1599.4484721999615,None,1599.4484721999615,None,1599.4484721999615,None,1599.4484721999615,None,1599.4484721999615,None,43,41,56,51,56,42,1601.9663992999122,None,5.0,3.373226199997589,1601.9663992999122,None,1601.9663992999122,None,1601.9663992999122,None,1601.9663992999122,None,None,None,1605.3553365999833,None,,,,,,,118,f,1,2022_Dec_11_1605,RL,2021.2.3,59.92275954682339,
1,55,0,55,0,,,,,,,,,,,,,,,None,None,None,None,None,1607.1419897000305,None,1607.1419897000305,None,1607.1419897000305,None,1607.1419897000305,None,i,0.3997088000178337,1607.1419897000305,None,1607.1419897000305,None,1607.5793798000086,None,1607.5793798000086,None,1607.5793798000086,None,1607.5793798000086,None,1607.5793798000086,None,1607.5793798000086,None,1607.8744153999723,None,1607.8744153999723,None,1609.4225469999947,None,1609.4225469999947,None,1609.4225469999947,None,1609.4225469999947,None,1609.4225469999947,None,1609.4225469999947,None,1609.4225469999947,None,1609.4225469999947,None,1609.4225469999947,None,27,49,61,53,61,71,1611.9409178998321,None,4.0,1.4881889999378473,1611.9409178998321,None,1611.9409178998321,None,1611.9409178998321,None,1611.9409178998321,None,None,None,1613.4444450999144,None,,,,,,,118,f,1,2022_Dec_11_1605,RL,2021.2.3,59.92275954682339,
1,56,0,56,0,,,,,,,,,,,,,,,None,None,None,None,None,1614.9983838000335,None,1614.9983838000335,None,1614.9983838000335,None,1614.9983838000335,None,i,0.432778500020504,1614.9983838000335,None,1614.9983838000335,None,1615.489564999938,None,1615.489564999938,None,1615.489564999938,None,1615.489564999938,None,1615.489564999938,None,1615.489564999938,None,1615.7797261998057,None,1615.7797261998057,None,1617.3514216998592,None,1617.3514216998592,None,1617.3514216998592,None,1617.3514216998592,None,1617.3514216998592,None,1617.3514216998592,None,1617.3514216998592,None,1617.3514216998592,None,1617.3514216998592,None,36,48,67,44,67,69,1619.8845312998164,None,4.0,2.3991453000344336,1619.8845312998164,None,1619.8845312998164,None,1619.8845312998164,None,1619.8845312998164,None,None,None,1622.3063001998235,None,,,,,,,118,f,1,2022_Dec_11_1605,RL,2021.2.3,59.92275954682339,
1,57,0,57,0,,,,,,,,,,,,,,,None,None,None,None,None,1624.288319699932,None,1624.288319699932,None,1624.288319699932,None,1624.288319699932,None,i,0.41292349994182587,1624.288319699932,None,1624.288319699932,None,1624.741648599971,None,1624.741648599971,None,1624.741648599971,None,1624.741648599971,None,1624.741648599971,None,1624.741648599971,None,1625.0361798999365,1626.5204701998737,1625.0361798999365,1626.5204701998737,1626.555183999939,None,1626.555183999939,None,1626.555183999939,None,1626.555183999939,None,1626.555183999939,None,1626.555183999939,None,1626.555183999939,None,1626.555183999939,None,1626.555183999939,None,36,48,57,47,57,59,1629.069431599928,None,3.0,1.0710342000238597,1629.069431599928,None,1629.069431599928,None,1629.069431599928,None,1629.069431599928,None,None,None,1630.1557864998467,None,,,,,,,118,f,1,2022_Dec_11_1605,RL,2021.2.3,59.92275954682339,
1,58,0,58,0,,,,,,,,,,,,,,,None,None,None,None,None,1632.0771395999473,None,1632.0771395999473,None,1632.0771395999473,None,1632.0771395999473,None,i,0.3140993998385966,1632.0771395999473,None,1632.0771395999473,None,1632.4390761000104,None,1632.4390761000104,None,1632.4390761000104,None,1632.4390761000104,None,1632.4390761000104,None,1632.4390761000104,None,1632.7249115998857,1634.209163099993,1632.7249115998857,1634.209163099993,1634.2417685999535,None,1634.2417685999535,None,1634.2417685999535,None,1634.2417685999535,None,1634.2417685999535,None,1634.2417685999535,None,1634.2417685999535,None,1634.2417685999535,None,1634.2417685999535,None,45,53,65,41,65,34,1636.756622799905,None,5.0,1.6227853000164032,1636.756622799905,None,1636.756622799905,None,1636.756622799905,None,1636.756622799905,None,None,None,1638.3955986998044,None,,,,,,,118,f,1,2022_Dec_11_1605,RL,2021.2.3,59.92275954682339,
1,59,0,59,0,,,,,,,,,,,,,,,None,None,None,None,None,1640.149339800002,None,1640.149339800002,None,1640.149339800002,None,1640.149339800002,None,i,0.35177810001187027,1640.149339800002,None,1640.149339800002,None,1640.553020299878,None,1640.553020299878,None,1640.553020299878,None,1640.553020299878,None,1640.553020299878,None,1640.553020299878,None,1640.8471053999383,None,1640.8471053999383,None,1642.4977990998887,None,1642.4977990998887,None,1642.4977990998887,None,1642.4977990998887,None,1642.4977990998887,None,1642.4977990998887,None,1642.4977990998887,None,1642.4977990998887,None,1642.4977990998887,None,40,55,58,50,58,67,1645.016610099934,None,3.0,1.6019917000085115,1645.016610099934,None,1645.016610099934,None,1645.016610099934,None,1645.016610099934,None,None,None,1646.6338310998399,None,,,,,,,118,f,1,2022_Dec_11_1605,RL,2021.2.3,59.92275954682339,
1,60,0,60,0,,,,,,,,,,,,,,,None,None,None,None,None,1648.3719464999158,None,1648.3719464999158,None,1648.3719464999158,None,1648.3719464999158,None,f,0.41917130001820624,1648.3719464999158,None,1648.3719464999158,None,1648.839200799819,None,1648.839200799819,None,1648.839200799819,None,1648.839200799819,None,1648.839200799819,None,1648.839200799819,None,1649.136228399817,1650.3035865998827,1649.136228399817,1650.3035865998827,1650.3399910000153,None,1650.3399910000153,None,1650.3399910000153,None,1650.3399910000153,None,1650.3399910000153,None,1650.3399910000153,None,1650.3399910000153,None,1650.3399910000153,None,1650.3399910000153,None,35,45,60,46,45,38,1652.8542018998414,None,4.0,1.2193487999029458,1652.8542018998414,None,1652.8542018998414,None,1652.8542018998414,None,1652.8542018998414,None,None,None,1654.089116099989,None,,,,,,,118,f,1,2022_Dec_11_1605,RL,2021.2.3,59.92275954682339,
1,61,0,61,0,,,,,,,,,,,,,,,None,None,None,None,None,1656.0098370998167,None,1656.0098370998167,None,1656.0098370998167,None,1656.0098370998167,None,f,0.3818429000675678,1656.0098370998167,None,1656.0098370998167,None,1656.4308723998256,None,1656.4308723998256,None,1656.4308723998256,None,1656.4308723998256,None,1656.4308723998256,None,1656.4308723998256,None,1656.7248772999737,1658.1589236999862,1656.7248772999737,1658.1589236999862,1658.1922304998152,None,1658.1922304998152,None,1658.1922304998152,None,1658.1922304998152,None,1658.1922304998152,None,1658.1922304998152,None,1658.1922304998152,None,1658.1922304998152,None,1658.1922304998152,None,45,50,51,43,50,68,1660.7061552999076,None,3.0,1.3392217999789864,1660.7061552999076,None,1660.7061552999076,None,1660.7061552999076,None,1660.7061552999076,None,None,None,1662.062140099937,None,,,,,,,118,f,1,2022_Dec_11_1605,RL,2021.2.3,59.92275954682339,
1,62,0,62,0,,,,,,,,,,,,,,,None,None,None,None,None,1663.9157775000203,None,1663.9157775000203,None,1663.9157775000203,None,1663.9157775000203,None,i,0.7554256999865174,1663.9157775000203,None,1663.9157775000203,None,1664.717554999981,None,1664.717554999981,None,1664.717554999981,None,1664.717554999981,None,1664.717554999981,None,1664.717554999981,None,1665.0139052998275,None,1665.0139052998275,None,1666.8645037999377,None,1666.8645037999377,None,1666.8645037999377,None,1666.8645037999377,None,1666.8645037999377,None,1666.8645037999377,None,1666.8645037999377,None,1666.8645037999377,None,1666.8645037999377,None,53,49,58,42,58,63,1669.383893399965,None,2.0,1.3165896001737565,1669.383893399965,None,1669.383893399965,None,1669.383893399965,None,1669.383893399965,None,None,None,1670.7172325998545,None,,,,,,,118,f,1,2022_Dec_11_1605,RL,2021.2.3,59.92275954682339,
1,63,0,63,0,,,,,,,,,,,,,,,None,None,None,None,None,1672.6222871998325,None,1672.6222871998325,None,1672.6222871998325,None,1672.6222871998325,None,f,0.4094674000516534,1672.6222871998325,None,1672.6222871998325,None,1673.0772221998777,None,1673.0772221998777,None,1673.0772221998777,None,1673.0772221998777,None,1673.0772221998777,None,1673.0772221998777,None,1673.3699284999166,None,1673.3699284999166,None,1674.2512985998765,None,1674.2512985998765,None,1674.2512985998765,None,1674.2512985998765,None,1674.2512985998765,None,1674.2512985998765,None,1674.2512985998765,None,1674.2512985998765,None,1674.2512985998765,None,47,50,61,45,50,71,1676.771938699996,None,3.0,1.6205679001286626,1676.771938699996,None,1676.771938699996,None,1676.771938699996,None,1676.771938699996,None,None,None,1678.4064841999207,None,,,,,,,118,f,1,2022_Dec_11_1605,RL,2021.2.3,59.92275954682339,
1,64,0,64,0,,,,,,,,,,,,,,,None,None,None,None,None,1680.110008499818,None,1680.110008499818,None,1680.110008499818,None,1680.110008499818,None,j,0.451319299871102,1680.110008499818,None,1680.110008499818,None,1680.6134420000017,None,1680.6134420000017,None,1680.6134420000017,None,1680.6134420000017,None,1680.6134420000017,None,1680.6134420000017,None,1680.9081974998116,1681.9754366998095,1680.9081974998116,1681.9754366998095,1682.0041419998743,None,1682.0041419998743,None,1682.0041419998743,None,1682.0041419998743,None,1682.0041419998743,None,1682.0041419998743,None,1682.0041419998743,None,1682.0041419998743,None,1682.0041419998743,None,52,56,57,43,43,62,1684.5264569998253,None,3.0,0.8349627999123186,1684.5264569998253,None,1684.5264569998253,None,1684.5264569998253,None,1684.5264569998253,None,None,None,1685.3775752999354,None,,,,,,,118,f,1,2022_Dec_11_1605,RL,2021.2.3,59.92275954682339,
1,65,0,65,0,,,,,,,,,,,,,,,None,None,None,None,None,1687.3319453999866,None,1687.3319453999866,None,1687.3319453999866,None,1687.3319453999866,None,i,0.37982889986597,1687.3319453999866,None,1687.3319453999866,None,1687.7512101000175,None,1687.7512101000175,None,1687.7512101000175,None,1687.7512101000175,None,1687.7512101000175,None,1687.7512101000175,None,1688.046567399986,None,1688.046567399986,None,1689.8106867999304,None,1689.8106867999304,None,1689.8106867999304,None,1689.8106867999304,None,1689.8106867999304,None,1689.8106867999304,None,1689.8106867999304,None,1689.8106867999304,None,1689.8106867999304,None,64,66,59,49,59,52,1692.3308899998665,None,4.0,0.9717643999028951,1692.3308899998665,None,1692.3308899998665,None,1692.3308899998665,None,1692.3308899998665,None,None,None,1693.3202774999663,None,,,,,,,118,f,1,2022_Dec_11_1605,RL,2021.2.3,59.92275954682339,
1,66,0,66,0,,,,,,,,,,,,,,,None,None,None,None,None,1694.9874238998163,None,1694.9874238998163,None,1694.9874238998163,None,1694.9874238998163,None,i,0.35403869999572635,1694.9874238998163,None,1694.9874238998163,None,1695.3885217998177,None,1695.3885217998177,None,1695.3885217998177,None,1695.3885217998177,None,1695.3885217998177,None,1695.3885217998177,None,1695.6851449999958,None,1695.6851449999958,None,1696.8491618998814,None,1696.8491618998814,None,1696.8491618998814,None,1696.8491618998814,None,1696.8491618998814,None,1696.8491618998814,None,1696.8491618998814,None,1696.8491618998814,None,1696.8491618998814,None,52,67,53,38,53,53,1699.3669578998815,None,4.0,0.739597300067544,1699.3669578998815,None,1699.3669578998815,None,1699.3669578998815,None,1699.3669578998815,None,None,None,1700.1214505999815,None,,,,,,,118,f,1,2022_Dec_11_1605,RL,2021.2.3,59.92275954682339,
1,67,0,67,0,,,,,,,,,,,,,,,None,None,None,None,None,1702.0420786999166,None,1702.0420786999166,None,1702.0420786999166,None,1702.0420786999166,None,i,0.3798499000258744,1702.0420786999166,None,1702.0420786999166,None,1702.461069899844,None,1702.461069899844,None,1702.461069899844,None,1702.461069899844,None,1702.461069899844,None,1702.461069899844,None,1702.7567108999938,None,1702.7567108999938,None,1704.0060667998623,None,1704.0060667998623,None,1704.0060667998623,None,1704.0060667998623,None,1704.0060667998623,None,1704.0060667998623,None,1704.0060667998623,None,1704.0060667998623,None,1704.0060667998623,None,58,62,54,38,54,58,1706.5231413999572,None,4.0,0.6694416000973433,1706.5231413999572,None,1706.5231413999572,None,1706.5231413999572,None,1706.5231413999572,None,None,None,1707.2100662000012,None,,,,,,,118,f,1,2022_Dec_11_1605,RL,2021.2.3,59.92275954682339,
1,68,0,68,0,,,,,,,,,,,,,,,None,None,None,None,None,1708.7464381000027,None,1708.7464381000027,None,1708.7464381000027,None,1708.7464381000027,None,f,0.3753947000950575,1708.7464381000027,None,1708.7464381000027,None,1709.1662928999867,None,1709.1662928999867,None,1709.1662928999867,None,1709.1662928999867,None,1709.1662928999867,None,1709.1662928999867,None,1709.4613029998727,None,1709.4613029998727,None,1710.82560059987,None,1710.82560059987,None,1710.82560059987,None,1710.82560059987,None,1710.82560059987,None,1710.82560059987,None,1710.82560059987,None,1710.82560059987,None,1710.82560059987,None,59,67,61,34,67,49,1713.3442802999634,None,5.0,0.9230881000403315,1713.3442802999634,None,1713.3442802999634,None,1713.3442802999634,None,1713.3442802999634,None,None,None,1714.2807828998193,None,,,,,,,118,f,1,2022_Dec_11_1605,RL,2021.2.3,59.92275954682339,
1,69,0,69,0,,,,,,,,,,,,,,,None,None,None,None,None,1716.01567649981,None,1716.01567649981,None,1716.01567649981,None,1716.01567649981,None,f,0.37614900013431907,1716.01567649981,None,1716.01567649981,None,1716.443563999841,None,1716.443563999841,None,1716.443563999841,None,1716.443563999841,None,1716.443563999841,None,1716.443563999841,None,1716.7333566998132,1718.6342481998727,1716.7333566998132,1718.6342481998727,1718.666155999992,None,1718.666155999992,None,1718.666155999992,None,1718.666155999992,None,1718.666155999992,None,1718.666155999992,None,1718.666155999992,None,1718.666155999992,None,1718.666155999992,None,58,69,55,43,69,56,1721.190120199928,None,5.0,0.6985285000409931,1721.190120199928,None,1721.190120199928,None,1721.190120199928,None,1721.190120199928,None,None,None,1721.902373699937,None,,,,,,,118,f,1,2022_Dec_11_1605,RL,2021.2.3,59.92275954682339,
1,70,0,70,0,,,,,,,,,,,,,,,None,None,None,None,None,1723.7404425998684,None,1723.7404425998684,None,1723.7404425998684,None,1723.7404425998684,None,f,0.41167589998804033,1723.7404425998684,None,1723.7404425998684,None,1724.1919718999416,None,1724.1919718999416,None,1724.1919718999416,None,1724.1919718999416,None,1724.1919718999416,None,1724.1919718999416,None,1724.488432899816,None,1724.488432899816,None,1725.670980299823,None,1725.670980299823,None,1725.670980299823,None,1725.670980299823,None,1725.670980299823,None,1725.670980299823,None,1725.670980299823,None,1725.670980299823,None,1725.670980299823,None,59,74,60,37,74,64,1728.187110299943,None,6.0,1.5885179999750108,1728.187110299943,None,1728.187110299943,None,1728.187110299943,None,1728.187110299943,None,None,None,1729.7915407998953,None,,,,,,,118,f,1,2022_Dec_11_1605,RL,2021.2.3,59.92275954682339,
1,71,0,71,0,,,,,,,,,,,,,,,None,None,None,None,None,1731.4290604998823,None,1731.4290604998823,None,1731.4290604998823,None,1731.4290604998823,None,f,0.4729943999554962,1731.4290604998823,None,1731.4290604998823,None,1731.9497720999643,None,1731.9497720999643,None,1731.9497720999643,None,1731.9497720999643,None,1731.9497720999643,None,1731.9497720999643,None,1732.243899299996,1734.1448963999283,1732.243899299996,1734.1448963999283,1734.1814975999296,None,1734.1814975999296,None,1734.1814975999296,None,1734.1814975999296,None,1734.1814975999296,None,1734.1814975999296,None,1734.1814975999296,None,1734.1814975999296,None,1734.1814975999296,None,53,66,43,40,66,54,1736.7038350999355,None,6.0,0.7632679999805987,1736.7038350999355,None,1736.7038350999355,None,1736.7038350999355,None,1736.7038350999355,None,None,None,1737.480637599947,None,,,,,,,118,f,1,2022_Dec_11_1605,RL,2021.2.3,59.92275954682339,
1,72,0,72,0,,,,,,,,,,,,,,,None,None,None,None,None,1739.2517485998105,None,1739.2517485998105,None,1739.2517485998105,None,1739.2517485998105,None,f,0.5901640998199582,1739.2517485998105,None,1739.2517485998105,None,1739.8879109998234,None,1739.8879109998234,None,1739.8879109998234,None,1739.8879109998234,None,1739.8879109998234,None,1739.8879109998234,None,1740.1827200998086,None,1740.1827200998086,None,1741.1289199998137,None,1741.1289199998137,None,1741.1289199998137,None,1741.1289199998137,None,1741.1289199998137,None,1741.1289199998137,None,1741.1289199998137,None,1741.1289199998137,None,1741.1289199998137,None,49,78,59,41,78,62,1743.649316799827,None,6.0,0.6876997000072151,1743.649316799827,None,1743.649316799827,None,1743.649316799827,None,1743.649316799827,None,None,None,1744.3549430998974,None,,,,,,,118,f,1,2022_Dec_11_1605,RL,2021.2.3,59.92275954682339,
1,73,0,73,0,,,,,,,,,,,,,,,None,None,None,None,None,1746.3223615998868,None,1746.3223615998868,None,1746.3223615998868,None,1746.3223615998868,None,f,0.6697044998873025,1746.3223615998868,None,1746.3223615998868,None,1747.0432054998819,None,1747.0432054998819,None,1747.0432054998819,None,1747.0432054998819,None,1747.0432054998819,None,1747.0432054998819,None,1747.3376277999487,None,1747.3376277999487,None,1748.5197826998774,None,1748.5197826998774,None,1748.5197826998774,None,1748.5197826998774,None,1748.5197826998774,None,1748.5197826998774,None,1748.5197826998774,None,1748.5197826998774,None,1748.5197826998774,None,56,65,55,40,65,34,1751.0369154999498,None,6.0,0.7705309998709708,1751.0369154999498,None,1751.0369154999498,None,1751.0369154999498,None,1751.0369154999498,None,None,None,1751.8241373999044,None,,,,,,,118,f,1,2022_Dec_11_1605,RL,2021.2.3,59.92275954682339,
1,74,0,74,0,,,,,,,,,,,,,,,None,None,None,None,None,1753.7948763999157,None,1753.7948763999157,None,1753.7948763999157,None,1753.7948763999157,None,f,0.43692360003478825,1753.7948763999157,None,1753.7948763999157,None,1754.2819658999797,None,1754.2819658999797,None,1754.2819658999797,None,1754.2819658999797,None,1754.2819658999797,None,1754.2819658999797,None,1754.5759911998175,1756.2770028999075,1754.5759911998175,1756.2770028999075,1756.3089395998977,None,1756.3089395998977,None,1756.3089395998977,None,1756.3089395998977,None,1756.3089395998977,None,1756.3089395998977,None,1756.3089395998977,None,1756.3089395998977,None,1756.3089395998977,None,57,61,57,41,61,57,1758.8244057998527,None,6.0,0.8060415999498218,1758.8244057998527,None,1758.8244057998527,None,1758.8244057998527,None,1758.8244057998527,None,None,None,1759.6456298998091,None,,,,,,,118,f,1,2022_Dec_11_1605,RL,2021.2.3,59.92275954682339,
1,75,0,75,0,,,,,,,,,,,,,,,1761.6140878000297,None,q,1761.6140878000297,None,1782.3992373999208,None,1782.3992373999208,None,1782.3992373999208,None,1782.3992373999208,None,r,0.964115200098604,1782.3992373999208,None,1782.3992373999208,None,1783.4002985998522,None,1783.4002985998522,None,1783.4002985998522,None,1783.4002985998522,None,1783.4002985998522,None,1783.4002985998522,None,1783.696200599894,None,1783.696200599894,None,1785.2510585000273,None,1785.2510585000273,None,1785.2510585000273,None,1785.2510585000273,None,1785.2510585000273,None,1785.2510585000273,None,1785.2510585000273,None,1785.2510585000273,None,1785.2510585000273,None,63,64,74,32,63,67,1787.7638607998379,None,3.0,1.8373055001720786,1787.7638607998379,None,1787.7638607998379,None,1787.7638607998379,None,1787.7638607998379,None,None,None,1789.6164814999793,None,20.75897750002332,,,,,,118,f,1,2022_Dec_11_1605,RL,2021.2.3,59.92275954682339,
1,76,0,76,0,,,,,,,,,,,,,,,None,None,None,None,None,1791.3043134999461,None,1791.3043134999461,None,1791.3043134999461,None,1791.3043134999461,None,f,0.3790728999301791,1791.3043134999461,None,1791.3043134999461,None,1791.723919000011,None,1791.723919000011,None,1791.723919000011,None,1791.723919000011,None,1791.723919000011,None,1791.723919000011,None,1792.0185926998965,1793.653054999886,1792.0185926998965,1793.653054999886,1793.6839628999587,None,1793.6839628999587,None,1793.6839628999587,None,1793.6839628999587,None,1793.6839628999587,None,1793.6839628999587,None,1793.6839628999587,None,1793.6839628999587,None,1793.6839628999587,None,56,57,62,41,57,61,1796.2007775998209,None,3.0,0.6731214001774788,1796.2007775998209,None,1796.2007775998209,None,1796.2007775998209,None,1796.2007775998209,None,None,None,1796.8881041000132,None,,,,,,,118,f,1,2022_Dec_11_1605,RL,2021.2.3,59.92275954682339,
1,77,0,77,0,,,,,,,,,,,,,,,None,None,None,None,None,1798.4584005998913,None,1798.4584005998913,None,1798.4584005998913,None,1798.4584005998913,None,j,0.8249238999560475,1798.4584005998913,None,1798.4584005998913,None,1799.3288889999967,None,1799.3288889999967,None,1799.3288889999967,None,1799.3288889999967,None,1799.3288889999967,None,1799.3288889999967,None,1799.6239010000136,None,1799.6239010000136,None,1801.171972699929,None,1801.171972699929,None,1801.171972699929,None,1801.171972699929,None,1801.171972699929,None,1801.171972699929,None,1801.171972699929,None,1801.171972699929,None,1801.171972699929,None,62,52,63,46,46,63,1803.691951799905,None,2.0,1.1374166999012232,1803.691951799905,None,1803.691951799905,None,1803.691951799905,None,1803.691951799905,None,None,None,1804.8479192999657,None,,,,,,,118,f,1,2022_Dec_11_1605,RL,2021.2.3,59.92275954682339,
1,78,0,78,0,,,,,,,,,,,,,,,None,None,None,None,None,1806.4153540998232,None,1806.4153540998232,None,1806.4153540998232,None,1806.4153540998232,None,f,0.27794030006043613,1806.4153540998232,None,1806.4153540998232,None,1806.7327847999986,None,1806.7327847999986,None,1806.7327847999986,None,1806.7327847999986,None,1806.7327847999986,None,1806.7327847999986,None,1807.0289783999324,None,1807.0289783999324,None,1808.3907234999351,None,1808.3907234999351,None,1808.3907234999351,None,1808.3907234999351,None,1808.3907234999351,None,1808.3907234999351,None,1808.3907234999351,None,1808.3907234999351,None,1808.3907234999351,None,61,61,64,45,61,65,1810.9116008998826,None,2.0,0.7384569998830557,1810.9116008998826,None,1810.9116008998826,None,1810.9116008998826,None,1810.9116008998826,None,None,None,1811.6738377998117,None,,,,,,,118,f,1,2022_Dec_11_1605,RL,2021.2.3,59.92275954682339,
1,79,0,79,0,,,,,,,,,,,,,,,None,None,None,None,None,1813.269275299972,None,1813.269275299972,None,1813.269275299972,None,1813.269275299972,None,i,0.34416039986535907,1813.269275299972,None,1813.269275299972,None,1813.6564309999812,None,1813.6564309999812,None,1813.6564309999812,None,1813.6564309999812,None,1813.6564309999812,None,1813.6564309999812,None,1813.9504021999892,None,1813.9504021999892,None,1815.7154917998705,None,1815.7154917998705,None,1815.7154917998705,None,1815.7154917998705,None,1815.7154917998705,None,1815.7154917998705,None,1815.7154917998705,None,1815.7154917998705,None,1815.7154917998705,None,70,60,61,42,61,64,1818.2318359999917,None,2.0,0.673087399918586,1818.2318359999917,None,1818.2318359999917,None,1818.2318359999917,None,1818.2318359999917,None,None,None,1818.9200809998438,None,,,,,,,118,f,1,2022_Dec_11_1605,RL,2021.2.3,59.92275954682339,
1,80,0,80,0,,,,,,,,,,,,,,,None,None,None,None,None,1820.857780299848,None,1820.857780299848,None,1820.857780299848,None,1820.857780299848,None,i,0.39566310006193817,1820.857780299848,None,1820.857780299848,None,1821.2935742000118,None,1821.2935742000118,None,1821.2935742000118,None,1821.2935742000118,None,1821.2935742000118,None,1821.2935742000118,None,1821.5890430998988,None,1821.5890430998988,None,1823.4531232998706,None,1823.4531232998706,None,1823.4531232998706,None,1823.4531232998706,None,1823.4531232998706,None,1823.4531232998706,None,1823.4531232998706,None,1823.4531232998706,None,1823.4531232998706,None,68,56,56,52,56,68,1825.9741669998039,None,2.0,0.6700822999700904,1825.9741669998039,None,1825.9741669998039,None,1825.9741669998039,None,1825.9741669998039,None,None,None,1826.66035869997,None,,,,,,,118,f,1,2022_Dec_11_1605,RL,2021.2.3,59.92275954682339,
1,81,0,81,0,,,,,,,,,,,,,,,None,None,None,None,None,1828.512927299831,None,1828.512927299831,None,1828.512927299831,None,1828.512927299831,None,f,0.4005363001488149,1828.512927299831,None,1828.512927299831,None,1828.9661404998042,None,1828.9661404998042,None,1828.9661404998042,None,1828.9661404998042,None,1828.9661404998042,None,1828.9661404998042,None,1829.2610647999682,None,1829.2610647999682,None,1830.4297503998969,None,1830.4297503998969,None,1830.4297503998969,None,1830.4297503998969,None,1830.4297503998969,None,1830.4297503998969,None,1830.4297503998969,None,1830.4297503998969,None,1830.4297503998969,None,71,51,56,45,51,63,1832.9465348999947,None,2.0,0.7687385999597609,1832.9465348999947,None,1832.9465348999947,None,1832.9465348999947,None,1832.9465348999947,None,None,None,1833.7301332999486,None,,,,,,,118,f,1,2022_Dec_11_1605,RL,2021.2.3,59.92275954682339,
1,82,0,82,0,,,,,,,,,,,,,,,None,None,None,None,None,1835.6851828999352,None,1835.6851828999352,None,1835.6851828999352,None,1835.6851828999352,None,r,0.9285595999099314,1835.6851828999352,None,1835.6851828999352,None,1836.6570700998418,None,1836.6570700998418,None,1836.6570700998418,None,1836.6570700998418,None,1836.6570700998418,None,1836.6570700998418,None,1836.949649799848,1838.483980299905,1836.949649799848,1838.483980299905,1838.5145870000124,None,1838.5145870000124,None,1838.5145870000124,None,1838.5145870000124,None,1838.5145870000124,None,1838.5145870000124,None,1838.5145870000124,None,1838.5145870000124,None,1838.5145870000124,None,69,52,65,43,69,57,1841.0387682998553,None,4.0,2.0183431000914425,1841.0387682998553,None,1841.0387682998553,None,1841.0387682998553,None,1841.0387682998553,None,None,None,1843.0739180999808,None,,,,,,,118,f,1,2022_Dec_11_1605,RL,2021.2.3,59.92275954682339,
1,83,0,83,0,,,,,,,,,,,,,,,None,None,None,None,None,1844.6914115999825,None,1844.6914115999825,None,1844.6914115999825,None,1844.6914115999825,None,r,0.43210960016585886,1844.6914115999825,None,1844.6914115999825,None,1845.1760166999884,None,1845.1760166999884,None,1845.1760166999884,None,1845.1760166999884,None,1845.1760166999884,None,1845.1760166999884,None,1845.4722312998492,None,1845.4722312998492,None,1846.840847699903,None,1846.840847699903,None,1846.840847699903,None,1846.840847699903,None,1846.840847699903,None,1846.840847699903,None,1846.840847699903,None,1846.840847699903,None,1846.840847699903,None,73,52,54,44,73,65,1849.35690779984,None,5.0,1.2872854000888765,1849.35690779984,None,1849.35690779984,None,1849.35690779984,None,1849.35690779984,None,None,None,1850.6587252998725,None,,,,,,,118,f,1,2022_Dec_11_1605,RL,2021.2.3,59.92275954682339,
1,84,0,84,0,,,,,,,,,,,,,,,None,None,None,None,None,1852.3466564000119,None,1852.3466564000119,None,1852.3466564000119,None,1852.3466564000119,None,r,0.44710289989598095,1852.3466564000119,None,1852.3466564000119,None,1852.8328486999962,None,1852.8328486999962,None,1852.8328486999962,None,1852.8328486999962,None,1852.8328486999962,None,1852.8328486999962,None,1853.1275612998288,1855.0790246999823,1853.1275612998288,1855.0790246999823,1855.110011599958,None,1855.110011599958,None,1855.110011599958,None,1855.110011599958,None,1855.110011599958,None,1855.110011599958,None,1855.110011599958,None,1855.110011599958,None,1855.110011599958,None,66,53,58,52,66,61,1857.626976300031,None,4.0,1.240571399917826,1857.626976300031,None,1857.626976300031,None,1857.626976300031,None,1857.626976300031,None,None,None,1858.882524000015,None,,,,,,,118,f,1,2022_Dec_11_1605,RL,2021.2.3,59.92275954682339,
1,85,0,85,0,,,,,,,,,,,,,,,None,None,None,None,None,1860.6192397999112,None,1860.6192397999112,None,1860.6192397999112,None,1860.6192397999112,None,r,0.3144596000202,1860.6192397999112,None,1860.6192397999112,None,1860.973341899924,None,1860.973341899924,None,1860.973341899924,None,1860.973341899924,None,1860.973341899924,None,1860.973341899924,None,1861.2499030998442,1862.9843037999235,1861.2499030998442,1862.9843037999235,1863.0170304998755,None,1863.0170304998755,None,1863.0170304998755,None,1863.0170304998755,None,1863.0170304998755,None,1863.0170304998755,None,1863.0170304998755,None,1863.0170304998755,None,1863.0170304998755,None,70,51,56,45,70,55,1865.532896499848,None,4.0,0.8891435000114143,1865.532896499848,None,1865.532896499848,None,1865.532896499848,None,1865.532896499848,None,None,None,1866.4429289000109,None,,,,,,,118,f,1,2022_Dec_11_1605,RL,2021.2.3,59.92275954682339,
1,86,0,86,0,,,,,,,,,,,,,,,None,None,None,None,None,1868.4576212998945,None,1868.4576212998945,None,1868.4576212998945,None,1868.4576212998945,None,r,0.5161307998932898,1868.4576212998945,None,1868.4576212998945,None,1869.0282063998748,None,1869.0282063998748,None,1869.0282063998748,None,1869.0282063998748,None,1869.0282063998748,None,1869.0282063998748,None,1869.322067399975,None,1869.322067399975,None,1871.0860382998362,None,1871.0860382998362,None,1871.0860382998362,None,1871.0860382998362,None,1871.0860382998362,None,1871.0860382998362,None,1871.0860382998362,None,1871.0860382998362,None,1871.0860382998362,None,73,50,49,46,73,65,1873.6035928998608,None,4.0,0.6554972000885755,1873.6035928998608,None,1873.6035928998608,None,1873.6035928998608,None,1873.6035928998608,None,None,None,1874.2754548999947,None,,,,,,,118,f,1,2022_Dec_11_1605,RL,2021.2.3,59.92275954682339,
1,87,0,87,0,,,,,,,,,,,,,,,None,None,None,None,None,1876.2465515998192,None,1876.2465515998192,None,1876.2465515998192,None,1876.2465515998192,None,r,0.4772284999489784,1876.2465515998192,None,1876.2465515998192,None,1876.7677624998614,None,1876.7677624998614,None,1876.7677624998614,None,1876.7677624998614,None,1876.7677624998614,None,1876.7677624998614,None,1877.0608212999068,None,1877.0608212999068,None,1878.2455819000024,None,1878.2455819000024,None,1878.2455819000024,None,1878.2455819000024,None,1878.2455819000024,None,1878.2455819000024,None,1878.2455819000024,None,1878.2455819000024,None,1878.2455819000024,None,81,43,58,41,81,62,1880.7619767999277,None,5.0,1.070435999892652,1880.7619767999277,None,1880.7619767999277,None,1880.7619767999277,None,1880.7619767999277,None,None,None,1881.855548299849,None,,,,,,,118,f,1,2022_Dec_11_1605,RL,2021.2.3,59.92275954682339,
1,88,0,88,0,,,,,,,,,,,,,,,None,None,None,None,None,1883.5519661998842,None,1883.5519661998842,None,1883.5519661998842,None,1883.5519661998842,None,r,0.4120223999489099,1883.5519661998842,None,1883.5519661998842,None,1884.006766699953,None,1884.006766699953,None,1884.006766699953,None,1884.006766699953,None,1884.006766699953,None,1884.006766699953,None,1884.2824062998407,1885.3331128000282,1884.2824062998407,1885.3331128000282,1885.3821161999367,None,1885.3821161999367,None,1885.3821161999367,None,1885.3821161999367,None,1885.3821161999367,None,1885.3821161999367,None,1885.3821161999367,None,1885.3821161999367,None,1885.3821161999367,None,67,37,62,40,67,68,1887.897653899854,None,4.0,0.9904797000344843,1887.897653899854,None,1887.897653899854,None,1887.897653899854,None,1887.897653899854,None,None,None,1888.9031964000314,None,,,,,,,118,f,1,2022_Dec_11_1605,RL,2021.2.3,59.92275954682339,
1,89,0,89,0,,,,,,,,,,,,,,,None,None,None,None,None,1890.6577160998713,None,1890.6577160998713,None,1890.6577160998713,None,1890.6577160998713,None,r,0.32612950005568564,1890.6577160998713,None,1890.6577160998713,None,1891.0277766999789,None,1891.0277766999789,None,1891.0277766999789,None,1891.0277766999789,None,1891.0277766999789,None,1891.0277766999789,None,1891.3040854998399,1892.2880382000003,1891.3040854998399,1892.2880382000003,1892.3220188999549,None,1892.3220188999549,None,1892.3220188999549,None,1892.3220188999549,None,1892.3220188999549,None,1892.3220188999549,None,1892.3220188999549,None,1892.3220188999549,None,1892.3220188999549,None,91,39,55,37,91,69,1894.8348597998265,None,6.0,1.0254116000141948,1894.8348597998265,None,1894.8348597998265,None,1894.8348597998265,None,1894.8348597998265,None,None,None,1895.8735104999505,None,,,,,,,118,f,1,2022_Dec_11_1605,RL,2021.2.3,59.92275954682339,
1,90,0,90,0,,,,,,,,,,,,,,,None,None,None,None,None,1897.7609603998717,None,1897.7609603998717,None,1897.7609603998717,None,1897.7609603998717,None,r,0.4528365000151098,1897.7609603998717,None,1897.7609603998717,None,1898.2638602999505,None,1898.2638602999505,None,1898.2638602999505,None,1898.2638602999505,None,1898.2638602999505,None,1898.2638602999505,None,1898.5590574999806,None,1898.5590574999806,None,1899.4568192998413,None,1899.4568192998413,None,1899.4568192998413,None,1899.4568192998413,None,1899.4568192998413,None,1899.4568192998413,None,1899.4568192998413,None,1899.4568192998413,None,1899.4568192998413,None,80,38,65,41,80,55,1901.9770880998112,None,6.0,1.7700219000689685,1901.9770880998112,None,1901.9770880998112,None,1901.9770880998112,None,1901.9770880998112,None,None,None,1903.7621561998967,None,,,,,,,118,f,1,2022_Dec_11_1605,RL,2021.2.3,59.92275954682339,
1,91,0,91,0,,,,,,,,,,,,,,,None,None,None,None,None,1905.3170584000181,None,1905.3170584000181,None,1905.3170584000181,None,1905.3170584000181,None,r,0.4369008999783546,1905.3170584000181,None,1905.3170584000181,None,1905.8008300999645,None,1905.8008300999645,None,1905.8008300999645,None,1905.8008300999645,None,1905.8008300999645,None,1905.8008300999645,None,1906.0976966000162,None,1906.0976966000162,None,1907.95247499994,None,1907.95247499994,None,1907.95247499994,None,1907.95247499994,None,1907.95247499994,None,1907.95247499994,None,1907.95247499994,None,1907.95247499994,None,1907.95247499994,None,73,45,67,38,73,58,1910.4826865999494,None,6.0,0.6721348999999464,1910.4826865999494,None,1910.4826865999494,None,1910.4826865999494,None,1910.4826865999494,None,None,None,1911.167652899865,None,,,,,,,118,f,1,2022_Dec_11_1605,RL,2021.2.3,59.92275954682339,
1,92,0,92,0,,,,,,,,,,,,,,,None,None,None,None,None,1912.955090599833,None,1912.955090599833,None,1912.955090599833,None,1912.955090599833,None,r,0.36869859998114407,1912.955090599833,None,1912.955090599833,None,1913.3777713999152,None,1913.3777713999152,None,1913.3777713999152,None,1913.3777713999152,None,1913.3777713999152,None,1913.3777713999152,None,1913.6695248999167,1914.8367914999835,1913.6695248999167,1914.8367914999835,1914.8680298998952,None,1914.8680298998952,None,1914.8680298998952,None,1914.8680298998952,None,1914.8680298998952,None,1914.8680298998952,None,1914.8680298998952,None,1914.8680298998952,None,1914.8680298998952,None,84,40,62,41,84,51,1917.3887655998114,None,6.0,1.5025726999156177,1917.3887655998114,None,1917.3887655998114,None,1917.3887655998114,None,1917.3887655998114,None,None,None,1918.9106115999166,None,,,,,,,118,f,1,2022_Dec_11_1605,RL,2021.2.3,59.92275954682339,
1,93,0,93,0,,,,,,,,,,,,,,,None,None,None,None,None,1920.5605281000026,None,1920.5605281000026,None,1920.5605281000026,None,1920.5605281000026,None,r,0.6532360999844968,1920.5605281000026,None,1920.5605281000026,None,1921.267950099893,None,1921.267950099893,None,1921.267950099893,None,1921.267950099893,None,1921.267950099893,None,1921.267950099893,None,1921.5583734000102,None,1921.5583734000102,None,1923.0879195998423,None,1923.0879195998423,None,1923.0879195998423,None,1923.0879195998423,None,1923.0879195998423,None,1923.0879195998423,None,1923.0879195998423,None,1923.0879195998423,None,1923.0879195998423,None,81,46,75,34,81,56,1925.607029199833,None,7.0,1.372361300047487,1925.607029199833,None,1925.607029199833,None,1925.607029199833,None,1925.607029199833,None,None,None,1927.0001830998808,None,,,,,,,118,f,1,2022_Dec_11_1605,RL,2021.2.3,59.92275954682339,
1,94,0,94,0,,,,,,,,,,,,,,,None,None,None,None,None,1928.6162894999143,None,1928.6162894999143,None,1928.6162894999143,None,1928.6162894999143,None,r,0.40787689993157983,1928.6162894999143,None,1928.6162894999143,None,1929.0743023999967,None,1929.0743023999967,None,1929.0743023999967,None,1929.0743023999967,None,1929.0743023999967,None,1929.0743023999967,None,1929.363888700027,None,1929.363888700027,None,1931.2308267999906,None,1931.2308267999906,None,1931.2308267999906,None,1931.2308267999906,None,1931.2308267999906,None,1931.2308267999906,None,1931.2308267999906,None,1931.2308267999906,None,1931.2308267999906,None,87,34,64,33,87,61,1933.745632399805,None,7.0,1.0051678000018,1933.745632399805,None,1933.745632399805,None,1933.745632399805,None,1933.745632399805,None,None,None,1934.766840999946,None,,,,,,,118,f,1,2022_Dec_11_1605,RL,2021.2.3,59.92275954682339,
1,95,0,95,0,,,,,,,,,,,,,,,None,None,None,None,None,1936.4881366998889,None,1936.4881366998889,None,1936.4881366998889,None,1936.4881366998889,None,r,0.40604800009168684,1936.4881366998889,None,1936.4881366998889,None,1936.9390020999126,None,1936.9390020999126,None,1936.9390020999126,None,1936.9390020999126,None,1936.9390020999126,None,1936.9390020999126,None,1937.2358903000131,None,1937.2358903000131,None,1939.1576089998707,None,1939.1576089998707,None,1939.1576089998707,None,1939.1576089998707,None,1939.1576089998707,None,1939.1576089998707,None,1939.1576089998707,None,1939.1576089998707,None,1939.1576089998707,None,80,37,69,37,80,70,1941.668300200021,None,5.0,0.9385414000134915,1941.668300200021,None,1941.668300200021,None,1941.668300200021,None,1941.668300200021,None,None,None,1942.6231941999868,None,,,,,,,118,f,1,2022_Dec_11_1605,RL,2021.2.3,59.92275954682339,
1,96,0,96,0,,,,,,,,,,,,,,,None,None,None,None,None,1944.46060199989,None,1944.46060199989,None,1944.46060199989,None,1944.46060199989,None,r,0.373295099940151,1944.46060199989,None,1944.46060199989,None,1944.8851083999034,None,1944.8851083999034,None,1944.8851083999034,None,1944.8851083999034,None,1944.8851083999034,None,1944.8851083999034,None,1945.1748356998432,1946.4089432999026,1945.1748356998432,1946.4089432999026,1946.4406872999389,None,1946.4406872999389,None,1946.4406872999389,None,1946.4406872999389,None,1946.4406872999389,None,1946.4406872999389,None,1946.4406872999389,None,1946.4406872999389,None,1946.4406872999389,None,78,36,65,36,78,61,1948.957047499949,None,5.0,1.0372508999425918,1948.957047499949,None,1948.957047499949,None,1948.957047499949,None,1948.957047499949,None,None,None,1950.0109027998988,None,,,,,,,118,f,1,2022_Dec_11_1605,RL,2021.2.3,59.92275954682339,
1,97,0,97,0,,,,,,,,,,,,,,,None,None,None,None,None,1951.747772099916,None,1951.747772099916,None,1951.747772099916,None,1951.747772099916,None,r,0.4658812000416219,1951.747772099916,None,1951.747772099916,None,1952.249436300015,None,1952.249436300015,None,1952.249436300015,None,1952.249436300015,None,1952.249436300015,None,1952.249436300015,None,1952.5464359999169,None,1952.5464359999169,None,1953.3824016000144,None,1953.3824016000144,None,1953.3824016000144,None,1953.3824016000144,None,1953.3824016000144,None,1953.3824016000144,None,1953.3824016000144,None,1953.3824016000144,None,1953.3824016000144,None,75,40,71,32,75,70,1955.901143199997,None,5.0,0.933697700034827,1955.901143199997,None,1955.901143199997,None,1955.901143199997,None,1955.901143199997,None,None,None,1956.8575850999914,None,,,,,,,118,f,1,2022_Dec_11_1605,RL,2021.2.3,59.92275954682339,
1,98,0,98,0,,,,,,,,,,,,,,,None,None,None,None,None,1958.854027400026,None,1958.854027400026,None,1958.854027400026,None,1958.854027400026,None,r,0.3210261999629438,1958.854027400026,None,1958.854027400026,None,1959.2209008999635,None,1959.2209008999635,None,1959.2209008999635,None,1959.2209008999635,None,1959.2209008999635,None,1959.2209008999635,None,1959.5181242998224,None,1959.5181242998224,None,1960.6841920998413,None,1960.6841920998413,None,1960.6841920998413,None,1960.6841920998413,None,1960.6841920998413,None,1960.6841920998413,None,1960.6841920998413,None,1960.6841920998413,None,1960.6841920998413,None,64,41,78,38,64,55,1963.2049040999264,None,5.0,1.019508199999109,1963.2049040999264,None,1963.2049040999264,None,1963.2049040999264,None,1963.2049040999264,None,None,None,1964.2478127998766,None,,,,,,,118,f,1,2022_Dec_11_1605,RL,2021.2.3,59.92275954682339,
1,99,0,99,0,,,,,,,,,,,,,,,None,None,None,None,None,1965.775211100001,None,1965.775211100001,None,1965.775211100001,None,1965.775211100001,None,r,0.5500316000543535,1965.775211100001,None,1965.775211100001,None,1966.382454099832,None,1966.382454099832,None,1966.382454099832,None,1966.382454099832,None,1966.382454099832,None,1966.382454099832,None,1966.6729133999906,None,1966.6729133999906,None,1967.8232563999481,None,1967.8232563999481,None,1967.8232563999481,None,1967.8232563999481,None,1967.8232563999481,None,1967.8232563999481,None,1967.8232563999481,None,1967.8232563999481,None,1967.8232563999481,None,72,48,76,47,72,71,1970.3390668998472,None,4.0,0.9190768001135439,1970.3390668998472,None,1970.3390668998472,None,1970.3390668998472,None,1970.3390668998472,None,None,None,1971.2756351998542,None,,,,,,,118,f,1,2022_Dec_11_1605,RL,2021.2.3,59.92275954682339,
1,100,0,100,0,,,,,,,,,,,,,,,None,None,None,None,None,1972.8298625999596,None,1972.8298625999596,None,1972.8298625999596,None,1972.8298625999596,None,r,0.38518540002405643,1972.8298625999596,None,1972.8298625999596,None,1973.2657568999566,None,1973.2657568999566,None,1973.2657568999566,None,1973.2657568999566,None,1973.2657568999566,None,1973.2657568999566,None,1973.5610136999749,None,1973.5610136999749,None,1975.4579491999466,None,1975.4579491999466,None,1975.4579491999466,None,1975.4579491999466,None,1975.4579491999466,None,1975.4579491999466,None,1975.4579491999466,None,1975.4579491999466,None,1975.4579491999466,None,77,41,77,35,77,68,1977.9771785999183,None,5.0,1.4076842998620123,1977.9771785999183,None,1977.9771785999183,None,1977.9771785999183,None,1977.9771785999183,None,None,None,1979.3989554999862,None,,,,,,,118,f,1,2022_Dec_11_1605,RL,2021.2.3,59.92275954682339,
1,101,0,101,0,,,,,,,,,,,,,,,None,None,None,None,None,1981.0021677999757,None,1981.0021677999757,None,1981.0021677999757,None,1981.0021677999757,None,r,0.5232995999976993,1981.0021677999757,None,1981.0021677999757,None,1981.5717638998758,None,1981.5717638998758,None,1981.5717638998758,None,1981.5717638998758,None,1981.5717638998758,None,1981.5717638998758,None,1981.866871399805,1983.167689200025,1981.866871399805,1983.167689200025,1983.1989874998108,None,1983.1989874998108,None,1983.1989874998108,None,1983.1989874998108,None,1983.1989874998108,None,1983.1989874998108,None,1983.1989874998108,None,1983.1989874998108,None,1983.1989874998108,None,64,43,84,40,64,58,1985.7262210999615,None,5.0,0.6474693999625742,1985.7262210999615,None,1985.7262210999615,None,1985.7262210999615,None,1985.7262210999615,None,None,None,1986.385975399986,None,,,,,,,118,f,1,2022_Dec_11_1605,RL,2021.2.3,59.92275954682339,
1,102,0,102,0,,,,,,,,,,,,,,,None,None,None,None,None,1988.0241176998243,None,1988.0241176998243,None,1988.0241176998243,None,1988.0241176998243,None,r,0.5512961999047548,1988.0241176998243,None,1988.0241176998243,None,1988.6283658000175,None,1988.6283658000175,None,1988.6283658000175,None,1988.6283658000175,None,1988.6283658000175,None,1988.6283658000175,None,1988.9219032998662,None,1988.9219032998662,None,1990.254803800024,None,1990.254803800024,None,1990.254803800024,None,1990.254803800024,None,1990.254803800024,None,1990.254803800024,None,1990.254803800024,None,1990.254803800024,None,1990.254803800024,None,79,46,77,29,79,52,1992.7747294998262,None,5.0,0.8014867000747472,1992.7747294998262,None,1992.7747294998262,None,1992.7747294998262,None,1992.7747294998262,None,None,None,1993.59123130003,None,,,,,,,118,f,1,2022_Dec_11_1605,RL,2021.2.3,59.92275954682339,
1,103,0,103,0,,,,,,,,,,,,,,,None,None,None,None,None,1995.3956887999084,None,1995.3956887999084,None,1995.3956887999084,None,1995.3956887999084,None,r,0.5897138000000268,1995.3956887999084,None,1995.3956887999084,None,1996.032197699882,None,1996.032197699882,None,1996.032197699882,None,1996.032197699882,None,1996.032197699882,None,1996.032197699882,None,1996.3268347999547,None,1996.3268347999547,None,1997.2062533998396,None,1997.2062533998396,None,1997.2062533998396,None,1997.2062533998396,None,1997.2062533998396,None,1997.2062533998396,None,1997.2062533998396,None,1997.2062533998396,None,1997.2062533998396,None,74,40,73,20,74,61,1999.7229060998652,None,5.0,0.7554866001009941,1999.7229060998652,None,1999.7229060998652,None,1999.7229060998652,None,1999.7229060998652,None,None,None,2000.4958134999033,None,,,,,,,118,f,1,2022_Dec_11_1605,RL,2021.2.3,59.92275954682339,
1,104,0,104,0,,,,,,,,,,,,,,,None,None,None,None,None,2002.367341300007,None,2002.367341300007,None,2002.367341300007,None,2002.367341300007,None,r,0.3681502998806536,2002.367341300007,None,2002.367341300007,None,2002.7883366998285,None,2002.7883366998285,None,2002.7883366998285,None,2002.7883366998285,None,2002.7883366998285,None,2002.7883366998285,None,2003.081830999814,None,2003.081830999814,None,2004.996300800005,None,2004.996300800005,None,2004.996300800005,None,2004.996300800005,None,2004.996300800005,None,2004.996300800005,None,2004.996300800005,None,2004.996300800005,None,2004.996300800005,None,70,48,67,31,70,50,2007.5142693999223,None,6.0,1.123284000204876,2007.5142693999223,None,2007.5142693999223,None,2007.5142693999223,None,2007.5142693999223,None,None,None,2008.6514894999564,None,,,,,,,118,f,1,2022_Dec_11_1605,RL,2021.2.3,59.92275954682339,
1,105,0,105,0,,,,,,,,,,,,,,,None,None,None,None,None,2010.5901130998973,None,2010.5901130998973,None,2010.5901130998973,None,2010.5901130998973,None,r,0.4055537001695484,2010.5901130998973,None,2010.5901130998973,None,2011.0414247999433,None,2011.0414247999433,None,2011.0414247999433,None,2011.0414247999433,None,2011.0414247999433,None,2011.0414247999433,None,2011.3372386998963,2013.1052849998232,2011.3372386998963,2013.1052849998232,2013.1350833999459,None,2013.1350833999459,None,2013.1350833999459,None,2013.1350833999459,None,2013.1350833999459,None,2013.1350833999459,None,2013.1350833999459,None,2013.1350833999459,None,2013.1350833999459,None,72,44,71,29,72,49,2015.653985899873,None,6.0,0.7201213999651372,2015.653985899873,None,2015.653985899873,None,2015.653985899873,None,2015.653985899873,None,None,None,2016.397931799991,None,,,,,,,118,f,1,2022_Dec_11_1605,RL,2021.2.3,59.92275954682339,
1,106,0,106,0,,,,,,,,,,,,,,,None,None,None,None,None,2018.3785478998907,None,2018.3785478998907,None,2018.3785478998907,None,2018.3785478998907,None,r,0.3368453001603484,2018.3785478998907,None,2018.3785478998907,None,2018.7623490998521,None,2018.7623490998521,None,2018.7623490998521,None,2018.7623490998521,None,2018.7623490998521,None,2018.7623490998521,None,2019.0591423998121,None,2019.0591423998121,None,2019.9763493000064,None,2019.9763493000064,None,2019.9763493000064,None,2019.9763493000064,None,2019.9763493000064,None,2019.9763493000064,None,2019.9763493000064,None,2019.9763493000064,None,2019.9763493000064,None,62,46,80,22,62,51,2022.5000469998922,None,5.0,0.9156458000652492,2022.5000469998922,None,2022.5000469998922,None,2022.5000469998922,None,2022.5000469998922,None,None,None,2023.428645899985,None,,,,,,,118,f,1,2022_Dec_11_1605,RL,2021.2.3,59.92275954682339,
1,107,0,107,0,,,,,,,,,,,,,,,None,None,None,None,None,2025.3673459999263,None,2025.3673459999263,None,2025.3673459999263,None,2025.3673459999263,None,r,0.3884137999266386,2025.3673459999263,None,2025.3673459999263,None,2025.8010364999063,None,2025.8010364999063,None,2025.8010364999063,None,2025.8010364999063,None,2025.8010364999063,None,2025.8010364999063,None,2026.0977841999847,None,2026.0977841999847,None,2027.0014086999,None,2027.0014086999,None,2027.0014086999,None,2027.0014086999,None,2027.0014086999,None,2027.0014086999,None,2027.0014086999,None,2027.0014086999,None,2027.0014086999,None,75,40,77,25,75,64,2029.5172300999984,None,5.0,0.8360935999080539,2029.5172300999984,None,2029.5172300999984,None,2029.5172300999984,None,2029.5172300999984,None,None,None,2030.3721025998238,None,,,,,,,118,f,1,2022_Dec_11_1605,RL,2021.2.3,59.92275954682339,
1,108,0,108,0,,,,,,,,,,,,,,,None,None,None,None,None,2032.1046606998425,None,2032.1046606998425,None,2032.1046606998425,None,2032.1046606998425,None,r,0.3205623000394553,2032.1046606998425,None,2032.1046606998425,None,2032.4754598999862,None,2032.4754598999862,None,2032.4754598999862,None,2032.4754598999862,None,2032.4754598999862,None,2032.4754598999862,None,2032.7687917000148,None,2032.7687917000148,None,2034.6159753999673,None,2034.6159753999673,None,2034.6159753999673,None,2034.6159753999673,None,2034.6159753999673,None,2034.6159753999673,None,2034.6159753999673,None,2034.6159753999673,None,2034.6159753999673,None,71,48,73,31,71,60,2037.13382239989,None,5.0,0.7070954998489469,2037.13382239989,None,2037.13382239989,None,2037.13382239989,None,2037.13382239989,None,None,None,2037.8572221999057,None,,,,,,,118,f,1,2022_Dec_11_1605,RL,2021.2.3,59.92275954682339,
1,109,0,109,0,,,,,,,,,,,,,,,None,None,None,None,None,2039.80958250002,None,2039.80958250002,None,2039.80958250002,None,2039.80958250002,None,r,0.7357522000093013,2039.80958250002,None,2039.80958250002,None,2040.596349600004,None,2040.596349600004,None,2040.596349600004,None,2040.596349600004,None,2040.596349600004,None,2040.596349600004,None,2040.891059299931,None,2040.891059299931,None,2042.7254798999056,None,2042.7254798999056,None,2042.7254798999056,None,2042.7254798999056,None,2042.7254798999056,None,2042.7254798999056,None,2042.7254798999056,None,2042.7254798999056,None,2042.7254798999056,None,69,52,73,29,69,63,2045.2409051998984,None,4.0,0.9206129999365658,2045.2409051998984,None,2045.2409051998984,None,2045.2409051998984,None,2045.2409051998984,None,None,None,2046.177546299994,None,,,,,,,118,f,1,2022_Dec_11_1605,RL,2021.2.3,59.92275954682339,
