bandit,trials.thisRepN,trials.thisTrialN,trials.thisN,trials.thisIndex,instru_img1.started,instru_img1.stopped,instru_resp.keys,instru_resp.rt,instru_resp.started,instru_resp.stopped,instru_img2.started,instru_img2.stopped,instru_resp2.keys,instru_resp2.rt,instru_resp2.started,instru_resp2.stopped,fixbefore_2.started,fixbefore_2.stopped,rest_image.started,rest_image.stopped,rest_response.keys,rest_response.started,rest_response.stopped,red.started,red.stopped,green.started,green.stopped,yellow.started,yellow.stopped,blue.started,blue.stopped,choose_bandit.keys,choose_bandit.rt,choose_bandit.started,choose_bandit.stopped,Fixation.started,Fixation.stopped,black.started,black.stopped,red_2.started,red_2.stopped,green_2.started,green_2.stopped,yellow_2.started,yellow_2.stopped,blue_2.started,blue_2.stopped,fixation_2.started,fixation_2.stopped,docs.started,docs.stopped,image_2.started,image_2.stopped,black_com.started,black_com.stopped,reward_sub.started,reward_sub.stopped,palyerb.started,palyerb.stopped,reward__sub.started,reward__sub.stopped,compare.started,compare.stopped,red_compare.started,red_compare.stopped,green_com.started,green_com.stopped,yellow_com.started,yellow_com.stopped,blue_com.started,blue_com.stopped,rewardyellow,rewardred,rewardblue,rewardgreen,subchoose,playerb,image_3.started,image_3.stopped,slider.response,slider.rt,slider.started,slider.stopped,text.started,text.stopped,image_4.started,image_4.stopped,image_5.started,image_5.stopped,bigx.started,bigx.stopped,intertrialfix.started,intertrialfix.stopped,rest_response.rt,image.started,image.stopped,key_resp.keys,key_resp.started,key_resp.stopped,participant,Gender,Age,date,expName,psychopyVersion,frameRate,
,,,,,1593.631284999894,None,space,60.74665080010891,1593.631284999894,None,,,,,,,,,,,,,,,,,,,,,,,,,,,,,,,,,,,,,,,,,,,,,,,,,,,,,,,,,,,,,,,,,,,,,,,,,,,,,,,,,,,,,,,,,,119,f,1,2022_Dec_11_1658,RL,2021.2.3,59.94010783479166,
,,,,,,,,,,,1654.3977734998334,None,space,55.368421900086105,1654.3977734998334,None,,,,,,,,,,,,,,,,,,,,,,,,,,,,,,,,,,,,,,,,,,,,,,,,,,,,,,,,,,,,,,,,,,,,,,,,,,,,,,,,,,,,119,f,1,2022_Dec_11_1658,RL,2021.2.3,59.94010783479166,
1,0,0,0,0,,,,,,,,,,,,,1709.7978085998911,None,None,None,None,None,None,1710.8178003998473,None,1710.8178003998473,None,1710.8178003998473,None,1710.8178003998473,None,r,0.3283211002126336,1710.8178003998473,None,1710.8178003998473,None,1711.1991071999073,None,1711.1991071999073,None,1711.1991071999073,None,1711.1991071999073,None,1711.1991071999073,None,1711.1991071999073,None,1711.485325699905,None,1711.485325699905,None,1712.6762581998482,None,1712.6762581998482,None,1712.6762581998482,None,1712.6762581998482,None,1712.6762581998482,None,1712.6762581998482,None,1712.6762581998482,None,1712.6762581998482,None,1712.6762581998482,None,55,48,49,71,55,67,1715.2151897998992,None,5.0,1.9464028999209404,1715.2151897998992,None,1715.2151897998992,None,1715.2151897998992,None,1715.2151897998992,None,None,None,1717.2146868999116,None,,,,,,,119,f,1,2022_Dec_11_1658,RL,2021.2.3,59.94010783479166,
1,1,0,1,0,,,,,,,,,,,,,,,None,None,None,None,None,1719.0099804999772,None,1719.0099804999772,None,1719.0099804999772,None,1719.0099804999772,None,f,0.43651179992593825,1719.0099804999772,None,1719.0099804999772,None,1719.5006604997907,None,1719.5006604997907,None,1719.5006604997907,None,1719.5006604997907,None,1719.5006604997907,None,1719.5006604997907,None,1719.7911244998686,1720.5915550999343,1719.7911244998686,1720.5915550999343,1720.6261123998556,None,1720.6261123998556,None,1720.6261123998556,None,1720.6261123998556,None,1720.6261123998556,None,1720.6261123998556,None,1720.6261123998556,None,1720.6261123998556,None,1720.6261123998556,None,52,46,52,81,46,62,1723.1436020999681,None,3.0,1.0318012000061572,1723.1436020999681,None,1723.1436020999681,None,1723.1436020999681,None,1723.1436020999681,None,None,None,1724.1936374998186,None,,,,,,,119,f,1,2022_Dec_11_1658,RL,2021.2.3,59.94010783479166,
1,2,0,2,0,,,,,,,,,,,,,,,None,None,None,None,None,1725.7813016998116,None,1725.7813016998116,None,1725.7813016998116,None,1725.7813016998116,None,i,0.4253721998538822,1725.7813016998116,None,1725.7813016998116,None,1726.2606714998838,None,1726.2606714998838,None,1726.2606714998838,None,1726.2606714998838,None,1726.2606714998838,None,1726.2606714998838,None,1726.5458148999605,1728.2134253999684,1726.5458148999605,1728.2134253999684,1728.2494460998569,None,1728.2494460998569,None,1728.2494460998569,None,1728.2494460998569,None,1728.2494460998569,None,1728.2494460998569,None,1728.2494460998569,None,1728.2494460998569,None,1728.2494460998569,None,46,42,50,83,50,37,1730.7607203999069,None,4.0,1.1396526999305934,1730.7607203999069,None,1730.7607203999069,None,1730.7607203999069,None,1730.7607203999069,None,None,None,1731.9157423998695,None,,,,,,,119,f,1,2022_Dec_11_1658,RL,2021.2.3,59.94010783479166,
1,3,0,3,0,,,,,,,,,,,,,,,None,None,None,None,None,1733.5704757999629,None,1733.5704757999629,None,1733.5704757999629,None,1733.5704757999629,None,j,0.3059549001045525,1733.5704757999629,None,1733.5704757999629,None,1733.9247661000118,None,1733.9247661000118,None,1733.9247661000118,None,1733.9247661000118,None,1733.9247661000118,None,1733.9247661000118,None,1734.2177810999565,1735.3349909000099,1734.2177810999565,1735.3349909000099,1735.375159899937,None,1735.375159899937,None,1735.375159899937,None,1735.375159899937,None,1735.375159899937,None,1735.375159899937,None,1735.375159899937,None,1735.375159899937,None,1735.375159899937,None,51,37,65,80,80,43,1737.8837099999655,None,6.0,0.953561799833551,1737.8837099999655,None,1737.8837099999655,None,1737.8837099999655,None,1737.8837099999655,None,None,None,1738.855162399821,None,,,,,,,119,f,1,2022_Dec_11_1658,RL,2021.2.3,59.94010783479166,
1,4,0,4,0,,,,,,,,,,,,,,,None,None,None,None,None,1740.741759299999,None,1740.741759299999,None,1740.741759299999,None,1740.741759299999,None,f,0.4047557997982949,1740.741759299999,None,1740.741759299999,None,1741.1929802999366,None,1741.1929802999366,None,1741.1929802999366,None,1741.1929802999366,None,1741.1929802999366,None,1741.1929802999366,None,1741.489547799807,None,1741.489547799807,None,1742.8537548999302,None,1742.8537548999302,None,1742.8537548999302,None,1742.8537548999302,None,1742.8537548999302,None,1742.8537548999302,None,1742.8537548999302,None,1742.8537548999302,None,1742.8537548999302,None,51,44,57,79,44,60,1745.3707863998134,None,3.0,0.925202100072056,1745.3707863998134,None,1745.3707863998134,None,1745.3707863998134,None,1745.3707863998134,None,None,None,1746.3106600998435,None,,,,,,,119,f,1,2022_Dec_11_1658,RL,2021.2.3,59.94010783479166,
1,5,0,5,0,,,,,,,,,,,,,,,None,None,None,None,None,1748.3152637998573,None,1748.3152637998573,None,1748.3152637998573,None,1748.3152637998573,None,j,0.3013663999736309,1748.3152637998573,None,1748.3152637998573,None,1748.6667334998492,None,1748.6667334998492,None,1748.6667334998492,None,1748.6667334998492,None,1748.6667334998492,None,1748.6667334998492,None,1748.9613987000193,None,1748.9613987000193,None,1750.1806188998744,None,1750.1806188998744,None,1750.1806188998744,None,1750.1806188998744,None,1750.1806188998744,None,1750.1806188998744,None,1750.1806188998744,None,1750.1806188998744,None,1750.1806188998744,None,49,39,57,77,77,49,1752.6941125998273,None,5.0,0.755054899957031,1752.6941125998273,None,1752.6941125998273,None,1752.6941125998273,None,1752.6941125998273,None,None,None,1753.4641116999555,None,,,,,,,119,f,1,2022_Dec_11_1658,RL,2021.2.3,59.94010783479166,
1,6,0,6,0,,,,,,,,,,,,,,,None,None,None,None,None,1755.3856797998305,None,1755.3856797998305,None,1755.3856797998305,None,1755.3856797998305,None,j,0.3008856999222189,1755.3856797998305,None,1755.3856797998305,None,1755.738624199992,None,1755.738624199992,None,1755.738624199992,None,1755.738624199992,None,1755.738624199992,None,1755.738624199992,None,1756.0328106998932,None,1756.0328106998932,None,1757.331096699927,None,1757.331096699927,None,1757.331096699927,None,1757.331096699927,None,1757.331096699927,None,1757.331096699927,None,1757.331096699927,None,1757.331096699927,None,1757.331096699927,None,48,32,53,74,74,45,1759.8493613000028,None,5.0,0.704308999935165,1759.8493613000028,None,1759.8493613000028,None,1759.8493613000028,None,1759.8493613000028,None,None,None,1760.56913660001,None,,,,,,,119,f,1,2022_Dec_11_1658,RL,2021.2.3,59.94010783479166,
1,7,0,7,0,,,,,,,,,,,,,,,None,None,None,None,None,1762.5564588999841,None,1762.5564588999841,None,1762.5564588999841,None,1762.5564588999841,None,i,0.2504351001698524,1762.5564588999841,None,1762.5564588999841,None,1762.8589816999156,None,1762.8589816999156,None,1762.8589816999156,None,1762.8589816999156,None,1762.8589816999156,None,1762.8589816999156,None,1763.154706100002,None,1763.154706100002,None,1765.068550299853,None,1765.068550299853,None,1765.068550299853,None,1765.068550299853,None,1765.068550299853,None,1765.068550299853,None,1765.068550299853,None,1765.068550299853,None,1765.068550299853,None,58,30,52,65,52,52,1767.5957227000035,None,6.0,1.450627899961546,1767.5957227000035,None,1767.5957227000035,None,1767.5957227000035,None,1767.5957227000035,None,None,None,1769.0579571998678,None,,,,,,,119,f,1,2022_Dec_11_1658,RL,2021.2.3,59.94010783479166,
1,8,0,8,0,,,,,,,,,,,,,,,None,None,None,None,None,1770.9462166999,None,1770.9462166999,None,1770.9462166999,None,1770.9462166999,None,j,0.3806841999758035,1770.9462166999,None,1770.9462166999,None,1771.3682413999923,None,1771.3682413999923,None,1771.3682413999923,None,1771.3682413999923,None,1771.3682413999923,None,1771.3682413999923,None,1771.6603433999699,None,1771.6603433999699,None,1773.2754428999033,None,1773.2754428999033,None,1773.2754428999033,None,1773.2754428999033,None,1773.2754428999033,None,1773.2754428999033,None,1773.2754428999033,None,1773.2754428999033,None,1773.2754428999033,None,59,29,61,80,80,41,1775.7934244999196,None,6.0,0.6849835999310017,1775.7934244999196,None,1775.7934244999196,None,1775.7934244999196,None,1775.7934244999196,None,None,None,1776.503728199983,None,,,,,,,119,f,1,2022_Dec_11_1658,RL,2021.2.3,59.94010783479166,
1,9,0,9,0,,,,,,,,,,,,,,,None,None,None,None,None,1778.1176026000176,None,1778.1176026000176,None,1778.1176026000176,None,1778.1176026000176,None,j,0.3191096999216825,1778.1176026000176,None,1778.1176026000176,None,1778.4858827998396,None,1778.4858827998396,None,1778.4858827998396,None,1778.4858827998396,None,1778.4858827998396,None,1778.4858827998396,None,1778.7819526998792,None,1778.7819526998792,None,1779.7927061999217,None,1779.7927061999217,None,1779.7927061999217,None,1779.7927061999217,None,1779.7927061999217,None,1779.7927061999217,None,1779.7927061999217,None,1779.7927061999217,None,1779.7927061999217,None,60,37,64,81,81,59,1782.31396329985,None,7.0,0.939486299874261,1782.31396329985,None,1782.31396329985,None,1782.31396329985,None,1782.31396329985,None,None,None,1783.2679837998003,None,,,,,,,119,f,1,2022_Dec_11_1658,RL,2021.2.3,59.94010783479166,
1,10,0,10,0,,,,,,,,,,,,,,,None,None,None,None,None,1785.1225738998037,None,1785.1225738998037,None,1785.1225738998037,None,1785.1225738998037,None,j,0.33424309990368783,1785.1225738998037,None,1785.1225738998037,None,1785.5111568998545,None,1785.5111568998545,None,1785.5111568998545,None,1785.5111568998545,None,1785.5111568998545,None,1785.5111568998545,None,1785.8034975999035,1787.5213041999377,1785.8034975999035,1787.5213041999377,1787.5516796999145,None,1787.5516796999145,None,1787.5516796999145,None,1787.5516796999145,None,1787.5516796999145,None,1787.5516796999145,None,1787.5516796999145,None,1787.5516796999145,None,1787.5516796999145,None,51,31,60,84,84,58,1790.0701278999913,None,7.0,0.7726123998872936,1790.0701278999913,None,1790.0701278999913,None,1790.0701278999913,None,1790.0701278999913,None,None,None,1790.8627799998503,None,,,,,,,119,f,1,2022_Dec_11_1658,RL,2021.2.3,59.94010783479166,
1,11,0,11,0,,,,,,,,,,,,,,,None,None,None,None,None,1792.7114668998402,None,1792.7114668998402,None,1792.7114668998402,None,1792.7114668998402,None,j,0.9352279000449926,1792.7114668998402,None,1792.7114668998402,None,1793.6973035999108,None,1793.6973035999108,None,1793.6973035999108,None,1793.6973035999108,None,1793.6973035999108,None,1793.6973035999108,None,1793.9926300998777,1795.0096384999342,1793.9926300998777,1795.0096384999342,1795.0410267999396,None,1795.0410267999396,None,1795.0410267999396,None,1795.0410267999396,None,1795.0410267999396,None,1795.0410267999396,None,1795.0410267999396,None,1795.0410267999396,None,1795.0410267999396,None,60,41,68,89,89,65,1797.55866949982,None,7.0,0.38953449996188283,1797.55866949982,None,1797.55866949982,None,1797.55866949982,None,1797.55866949982,None,None,None,1797.9615235999227,None,,,,,,,119,f,1,2022_Dec_11_1658,RL,2021.2.3,59.94010783479166,
1,12,0,12,0,,,,,,,,,,,,,,,None,None,None,None,None,1799.6489333999343,None,1799.6489333999343,None,1799.6489333999343,None,1799.6489333999343,None,j,0.3288543000817299,1799.6489333999343,None,1799.6489333999343,None,1800.02240349981,None,1800.02240349981,None,1800.02240349981,None,1800.02240349981,None,1800.02240349981,None,1800.02240349981,None,1800.3135928998236,None,1800.3135928998236,None,1802.001695399871,None,1802.001695399871,None,1802.001695399871,None,1802.001695399871,None,1802.001695399871,None,1802.001695399871,None,1802.001695399871,None,1802.001695399871,None,1802.001695399871,None,59,36,65,85,85,59,1804.5156757999212,None,5.0,1.1364847000222653,1804.5156757999212,None,1804.5156757999212,None,1804.5156757999212,None,1804.5156757999212,None,None,None,1805.6757224998437,None,,,,,,,119,f,1,2022_Dec_11_1658,RL,2021.2.3,59.94010783479166,
1,13,0,13,0,,,,,,,,,,,,,,,None,None,None,None,None,1807.6212158999406,None,1807.6212158999406,None,1807.6212158999406,None,1807.6212158999406,None,j,0.5168182998895645,1807.6212158999406,None,1807.6212158999406,None,1808.1926684998907,None,1808.1926684998907,None,1808.1926684998907,None,1808.1926684998907,None,1808.1926684998907,None,1808.1926684998907,None,1808.4859099998139,None,1808.4859099998139,None,1809.7506746998988,None,1809.7506746998988,None,1809.7506746998988,None,1809.7506746998988,None,1809.7506746998988,None,1809.7506746998988,None,1809.7506746998988,None,1809.7506746998988,None,1809.7506746998988,None,58,33,64,86,86,52,1812.2719993998762,None,6.0,0.6851536999456584,1812.2719993998762,None,1812.2719993998762,None,1812.2719993998762,None,1812.2719993998762,None,None,None,1812.9719484997913,None,,,,,,,119,f,1,2022_Dec_11_1658,RL,2021.2.3,59.94010783479166,
1,14,0,14,0,,,,,,,,,,,,,,,None,None,None,None,None,1814.6764650999103,None,1814.6764650999103,None,1814.6764650999103,None,1814.6764650999103,None,j,0.2917144999373704,1814.6764650999103,None,1814.6764650999103,None,1815.01006469992,None,1815.01006469992,None,1815.01006469992,None,1815.01006469992,None,1815.01006469992,None,1815.01006469992,None,1815.3073291999754,None,1815.3073291999754,None,1816.4559591999277,None,1816.4559591999277,None,1816.4559591999277,None,1816.4559591999277,None,1816.4559591999277,None,1816.4559591999277,None,1816.4559591999277,None,1816.4559591999277,None,1816.4559591999277,None,59,31,66,98,98,50,1818.9740978998598,None,7.0,0.7876838000956923,1818.9740978998598,None,1818.9740978998598,None,1818.9740978998598,None,1818.9740978998598,None,None,None,1819.7779447999783,None,,,,,,,119,f,1,2022_Dec_11_1658,RL,2021.2.3,59.94010783479166,
1,15,0,15,0,,,,,,,,,,,,,,,None,None,None,None,None,1821.5482239997946,None,1821.5482239997946,None,1821.5482239997946,None,1821.5482239997946,None,j,0.2299679999705404,1821.5482239997946,None,1821.5482239997946,None,1821.8188515999354,None,1821.8188515999354,None,1821.8188515999354,None,1821.8188515999354,None,1821.8188515999354,None,1821.8188515999354,None,1822.09554010001,1823.095909099793,1822.09554010001,1823.095909099793,1823.127800699789,None,1823.127800699789,None,1823.127800699789,None,1823.127800699789,None,1823.127800699789,None,1823.127800699789,None,1823.127800699789,None,1823.127800699789,None,1823.127800699789,None,54,37,76,87,87,57,1825.6502785999328,None,6.0,1.2013212000019848,1825.6502785999328,None,1825.6502785999328,None,1825.6502785999328,None,1825.6502785999328,None,None,None,1826.8650961997919,None,,,,,,,119,f,1,2022_Dec_11_1658,RL,2021.2.3,59.94010783479166,
1,16,0,16,0,,,,,,,,,,,,,,,None,None,None,None,None,1828.6529914999846,None,1828.6529914999846,None,1828.6529914999846,None,1828.6529914999846,None,j,0.2752205999568105,1828.6529914999846,None,1828.6529914999846,None,1828.9716798998415,None,1828.9716798998415,None,1828.9716798998415,None,1828.9716798998415,None,1828.9716798998415,None,1828.9716798998415,None,1829.2670310998801,None,1829.2670310998801,None,1830.7487414998468,None,1830.7487414998468,None,1830.7487414998468,None,1830.7487414998468,None,1830.7487414998468,None,1830.7487414998468,None,1830.7487414998468,None,1830.7487414998468,None,1830.7487414998468,None,48,36,63,85,85,61,1833.268606199883,None,5.0,0.8064574999734759,1833.268606199883,None,1833.268606199883,None,1833.268606199883,None,1833.268606199883,None,None,None,1834.0864223998506,None,,,,,,,119,f,1,2022_Dec_11_1658,RL,2021.2.3,59.94010783479166,
1,17,0,17,0,,,,,,,,,,,,,,,None,None,None,None,None,1835.7077407999896,None,1835.7077407999896,None,1835.7077407999896,None,1835.7077407999896,None,j,0.33059330005198717,1835.7077407999896,None,1835.7077407999896,None,1836.0772427998018,None,1836.0772427998018,None,1836.0772427998018,None,1836.0772427998018,None,1836.0772427998018,None,1836.0772427998018,None,1836.3720735998359,None,1836.3720735998359,None,1837.3684670999646,None,1837.3684670999646,None,1837.3684670999646,None,1837.3684670999646,None,1837.3684670999646,None,1837.3684670999646,None,1837.3684670999646,None,1837.3684670999646,None,1837.3684670999646,None,69,38,63,91,91,58,1839.8870862999465,None,7.0,0.757933699991554,1839.8870862999465,None,1839.8870862999465,None,1839.8870862999465,None,1839.8870862999465,None,None,None,1840.6625477999914,None,,,,,,,119,f,1,2022_Dec_11_1658,RL,2021.2.3,59.94010783479166,
1,18,0,18,0,,,,,,,,,,,,,,,None,None,None,None,None,1842.3954362999648,None,1842.3954362999648,None,1842.3954362999648,None,1842.3954362999648,None,j,0.24266690015792847,1842.3954362999648,None,1842.3954362999648,None,1842.6845796999987,None,1842.6845796999987,None,1842.6845796999987,None,1842.6845796999987,None,1842.6845796999987,None,1842.6845796999987,None,1842.9765235998202,1844.6108778999187,1842.9765235998202,1844.6108778999187,1844.64186470001,None,1844.64186470001,None,1844.64186470001,None,1844.64186470001,None,1844.64186470001,None,1844.64186470001,None,1844.64186470001,None,1844.64186470001,None,1844.64186470001,None,62,31,58,89,89,54,1847.1589206999633,None,5.0,0.653682200005278,1847.1589206999633,None,1847.1589206999633,None,1847.1589206999633,None,1847.1589206999633,None,None,None,1847.8293595998548,None,,,,,,,119,f,1,2022_Dec_11_1658,RL,2021.2.3,59.94010783479166,
1,19,0,19,0,,,,,,,,,,,,,,,None,None,None,None,None,1849.6010094999801,None,1849.6010094999801,None,1849.6010094999801,None,1849.6010094999801,None,j,0.3272949999663979,1849.6010094999801,None,1849.6010094999801,None,1849.968806099845,None,1849.968806099845,None,1849.968806099845,None,1849.968806099845,None,1849.968806099845,None,1849.968806099845,None,1850.2648824998178,1851.8491791998968,1850.2648824998178,1851.8491791998968,1851.8813793999143,None,1851.8813793999143,None,1851.8813793999143,None,1851.8813793999143,None,1851.8813793999143,None,1851.8813793999143,None,1851.8813793999143,None,1851.8813793999143,None,1851.8813793999143,None,61,42,63,83,83,53,1854.3981901998632,None,4.0,0.7558955000713468,1854.3981901998632,None,1854.3981901998632,None,1854.3981901998632,None,1854.3981901998632,None,None,None,1855.167969999835,None,,,,,,,119,f,1,2022_Dec_11_1658,RL,2021.2.3,59.94010783479166,
1,20,0,20,0,,,,,,,,,,,,,,,None,None,None,None,None,1857.122868699953,None,1857.122868699953,None,1857.122868699953,None,1857.122868699953,None,j,0.40529979998245835,1857.122868699953,None,1857.122868699953,None,1857.5741896999534,None,1857.5741896999534,None,1857.5741896999534,None,1857.5741896999534,None,1857.5741896999534,None,1857.5741896999534,None,1857.8704849998467,None,1857.8704849998467,None,1859.1327866998035,None,1859.1327866998035,None,1859.1327866998035,None,1859.1327866998035,None,1859.1327866998035,None,1859.1327866998035,None,1859.1327866998035,None,1859.1327866998035,None,1859.1327866998035,None,49,38,62,84,84,39,1861.656220200006,None,5.0,0.667304800124839,1861.656220200006,None,1861.656220200006,None,1861.656220200006,None,1861.656220200006,None,None,None,1862.339839699911,None,,,,,,,119,f,1,2022_Dec_11_1658,RL,2021.2.3,59.94010783479166,
1,21,0,21,0,,,,,,,,,,,,,,,None,None,None,None,None,1864.077160899993,None,1864.077160899993,None,1864.077160899993,None,1864.077160899993,None,j,0.2815057998523116,1864.077160899993,None,1864.077160899993,None,1864.3965394999832,None,1864.3965394999832,None,1864.3965394999832,None,1864.3965394999832,None,1864.3965394999832,None,1864.3965394999832,None,1864.6914810999297,None,1864.6914810999297,None,1866.3393837998156,None,1866.3393837998156,None,1866.3393837998156,None,1866.3393837998156,None,1866.3393837998156,None,1866.3393837998156,None,1866.3393837998156,None,1866.3393837998156,None,1866.3393837998156,None,54,31,56,76,76,36,1868.8600295998622,None,3.0,0.9175935001112521,1868.8600295998622,None,1868.8600295998622,None,1868.8600295998622,None,1868.8600295998622,None,None,None,1869.7948659998365,None,,,,,,,119,f,1,2022_Dec_11_1658,RL,2021.2.3,59.94010783479166,
1,22,0,22,0,,,,,,,,,,,,,,,None,None,None,None,None,1871.3658707998693,None,1871.3658707998693,None,1871.3658707998693,None,1871.3658707998693,None,j,0.3225215000566095,1871.3658707998693,None,1871.3658707998693,None,1871.7321693999693,None,1871.7321693999693,None,1871.7321693999693,None,1871.7321693999693,None,1871.7321693999693,None,1871.7321693999693,None,1872.02990759979,None,1872.02990759979,None,1873.343611799879,None,1873.343611799879,None,1873.343611799879,None,1873.343611799879,None,1873.343611799879,None,1873.343611799879,None,1873.343611799879,None,1873.343611799879,None,1873.343611799879,None,60,32,56,92,92,44,1875.8665314998943,None,6.0,0.8505697001237422,1875.8665314998943,None,1875.8665314998943,None,1875.8665314998943,None,1875.8665314998943,None,None,None,1876.7328935998958,None,,,,,,,119,f,1,2022_Dec_11_1658,RL,2021.2.3,59.94010783479166,
1,23,0,23,0,,,,,,,,,,,,,,,None,None,None,None,None,1878.6373447999358,None,1878.6373447999358,None,1878.6373447999358,None,1878.6373447999358,None,j,0.27078360016457736,1878.6373447999358,None,1878.6373447999358,None,1878.9562658998184,None,1878.9562658998184,None,1878.9562658998184,None,1878.9562658998184,None,1878.9562658998184,None,1878.9562658998184,None,1879.2515707998537,1880.3689968998078,1879.2515707998537,1880.3689968998078,1880.400410000002,None,1880.400410000002,None,1880.400410000002,None,1880.400410000002,None,1880.400410000002,None,1880.400410000002,None,1880.400410000002,None,1880.400410000002,None,1880.400410000002,None,57,29,56,84,84,58,1882.9233597998973,None,5.0,0.9495580000802875,1882.9233597998973,None,1882.9233597998973,None,1882.9233597998973,None,1882.9233597998973,None,None,None,1883.8878796999343,None,,,,,,,119,f,1,2022_Dec_11_1658,RL,2021.2.3,59.94010783479166,
1,24,0,24,0,,,,,,,,,,,,,,,None,None,None,None,None,1885.8257122999057,None,1885.8257122999057,None,1885.8257122999057,None,1885.8257122999057,None,j,0.27279260009527206,1885.8257122999057,None,1885.8257122999057,None,1886.1452673999593,None,1886.1452673999593,None,1886.1452673999593,None,1886.1452673999593,None,1886.1452673999593,None,1886.1452673999593,None,1886.440053399885,1887.3737920999993,1886.440053399885,1887.3737920999993,1887.4057715998497,None,1887.4057715998497,None,1887.4057715998497,None,1887.4057715998497,None,1887.4057715998497,None,1887.4057715998497,None,1887.4057715998497,None,1887.4057715998497,None,1887.4057715998497,None,56,32,66,90,90,46,1889.9211705999915,None,6.0,0.6059403999242932,1889.9211705999915,None,1889.9211705999915,None,1889.9211705999915,None,1889.9211705999915,None,None,None,1890.5423059999011,None,,,,,,,119,f,1,2022_Dec_11_1658,RL,2021.2.3,59.94010783479166,
1,25,0,25,0,,,,,,,,,,,,,,,None,None,None,None,None,1892.4639561998192,None,1892.4639561998192,None,1892.4639561998192,None,1892.4639561998192,None,j,0.25423239986412227,1892.4639561998192,None,1892.4639561998192,None,1892.7659958999138,None,1892.7659958999138,None,1892.7659958999138,None,1892.7659958999138,None,1892.7659958999138,None,1892.7659958999138,None,1893.061285499949,1894.7955433998723,1893.061285499949,1894.7955433998723,1894.8286313000135,None,1894.8286313000135,None,1894.8286313000135,None,1894.8286313000135,None,1894.8286313000135,None,1894.8286313000135,None,1894.8286313000135,None,1894.8286313000135,None,1894.8286313000135,None,48,32,63,86,86,49,1897.3438755997922,None,4.0,0.6889386000111699,1897.3438755997922,None,1897.3438755997922,None,1897.3438755997922,None,1897.3438755997922,None,None,None,1898.0477620998863,None,,,,,,,119,f,1,2022_Dec_11_1658,RL,2021.2.3,59.94010783479166,
1,26,0,26,0,,,,,,,,,,,,,,,None,None,None,None,None,1899.7521743997931,None,1899.7521743997931,None,1899.7521743997931,None,1899.7521743997931,None,j,0.24702390003949404,1899.7521743997931,None,1899.7521743997931,None,1900.0364397999365,None,1900.0364397999365,None,1900.0364397999365,None,1900.0364397999365,None,1900.0364397999365,None,1900.0364397999365,None,1900.3327893000096,1901.333469199948,1900.3327893000096,1901.333469199948,1901.3690953999758,None,1901.3690953999758,None,1901.3690953999758,None,1901.3690953999758,None,1901.3690953999758,None,1901.3690953999758,None,1901.3690953999758,None,1901.3690953999758,None,1901.3690953999758,None,45,35,62,89,89,35,1903.8898888998665,None,4.0,0.298632999882102,1903.8898888998665,None,1903.8898888998665,None,1903.8898888998665,None,1903.8898888998665,None,None,None,1904.2017204998992,None,,,,,,,119,f,1,2022_Dec_11_1658,RL,2021.2.3,59.94010783479166,
1,27,0,27,0,,,,,,,,,,,,,,,None,None,None,None,None,1906.1569852000102,None,1906.1569852000102,None,1906.1569852000102,None,1906.1569852000102,None,j,0.2915847001131624,1906.1569852000102,None,1906.1569852000102,None,1906.4919029998127,None,1906.4919029998127,None,1906.4919029998127,None,1906.4919029998127,None,1906.4919029998127,None,1906.4919029998127,None,1906.787366699893,None,1906.787366699893,None,1908.3713543999474,None,1908.3713543999474,None,1908.3713543999474,None,1908.3713543999474,None,1908.3713543999474,None,1908.3713543999474,None,1908.3713543999474,None,1908.3713543999474,None,1908.3713543999474,None,45,30,61,88,88,34,1910.885799099924,None,5.0,0.9403814999386668,1910.885799099924,None,1910.885799099924,None,1910.885799099924,None,1910.885799099924,None,None,None,1911.8473265999928,None,,,,,,,119,f,1,2022_Dec_11_1658,RL,2021.2.3,59.94010783479166,
1,28,0,28,0,,,,,,,,,,,,,,,None,None,None,None,None,1913.7293575999793,None,1913.7293575999793,None,1913.7293575999793,None,1913.7293575999793,None,j,0.28911150014027953,1913.7293575999793,None,1913.7293575999793,None,1914.0655884000007,None,1914.0655884000007,None,1914.0655884000007,None,1914.0655884000007,None,1914.0655884000007,None,1914.0655884000007,None,1914.3426450998522,1916.3106656000018,1914.3426450998522,1916.3106656000018,1916.3604120998643,None,1916.3604120998643,None,1916.3604120998643,None,1916.3604120998643,None,1916.3604120998643,None,1916.3604120998643,None,1916.3604120998643,None,1916.3604120998643,None,1916.3604120998643,None,38,35,58,89,89,48,1918.87938079983,None,5.0,0.4856443000026047,1918.87938079983,None,1918.87938079983,None,1918.87938079983,None,1918.87938079983,None,None,None,1919.3789313000161,None,,,,,,,119,f,1,2022_Dec_11_1658,RL,2021.2.3,59.94010783479166,
1,29,0,29,0,,,,,,,,,,,,,,,None,None,None,None,None,1921.267140599899,None,1921.267140599899,None,1921.267140599899,None,1921.267140599899,None,j,0.2412256000097841,1921.267140599899,None,1921.267140599899,None,1921.5538827998098,None,1921.5538827998098,None,1921.5538827998098,None,1921.5538827998098,None,1921.5538827998098,None,1921.5538827998098,None,1921.8311612999532,1923.031826299848,1921.8311612999532,1923.031826299848,1923.0649360998068,None,1923.0649360998068,None,1923.0649360998068,None,1923.0649360998068,None,1923.0649360998068,None,1923.0649360998068,None,1923.0649360998068,None,1923.0649360998068,None,1923.0649360998068,None,47,35,60,88,88,54,1925.5799580998719,None,5.0,0.5024820999242365,1925.5799580998719,None,1925.5799580998719,None,1925.5799580998719,None,1925.5799580998719,None,None,None,1926.1002686999273,None,,,,,,,119,f,1,2022_Dec_11_1658,RL,2021.2.3,59.94010783479166,
1,30,0,30,0,,,,,,,,,,,,,,,None,None,None,None,None,1928.0550329999533,None,1928.0550329999533,None,1928.0550329999533,None,1928.0550329999533,None,j,0.28365990007296205,1928.0550329999533,None,1928.0550329999533,None,1928.3907529998105,None,1928.3907529998105,None,1928.3907529998105,None,1928.3907529998105,None,1928.3907529998105,None,1928.3907529998105,None,1928.685944199795,None,1928.685944199795,None,1929.8341643000022,None,1929.8341643000022,None,1929.8341643000022,None,1929.8341643000022,None,1929.8341643000022,None,1929.8341643000022,None,1929.8341643000022,None,1929.8341643000022,None,1929.8341643000022,None,51,30,61,82,82,54,1932.3516426999122,None,3.0,0.8216550999786705,1932.3516426999122,None,1932.3516426999122,None,1932.3516426999122,None,1932.3516426999122,None,None,None,1933.1884947998915,None,,,,,,,119,f,1,2022_Dec_11_1658,RL,2021.2.3,59.94010783479166,
1,31,0,31,0,,,,,,,,,,,,,,,None,None,None,None,None,1935.1938179999124,None,1935.1938179999124,None,1935.1938179999124,None,1935.1938179999124,None,j,0.284842099994421,1935.1938179999124,None,1935.1938179999124,None,1935.5320527998265,None,1935.5320527998265,None,1935.5320527998265,None,1935.5320527998265,None,1935.5320527998265,None,1935.5320527998265,None,1935.82429709984,1936.7247557998635,1935.82429709984,1936.7247557998635,1936.7587539998349,None,1936.7587539998349,None,1936.7587539998349,None,1936.7587539998349,None,1936.7587539998349,None,1936.7587539998349,None,1936.7587539998349,None,1936.7587539998349,None,1936.7587539998349,None,48,26,68,92,92,54,1939.2728120998945,None,7.0,0.7227963998448104,1939.2728120998945,None,1939.2728120998945,None,1939.2728120998945,None,1939.2728120998945,None,None,None,1940.0198140998837,None,,,,,,,119,f,1,2022_Dec_11_1658,RL,2021.2.3,59.94010783479166,
1,32,0,32,0,,,,,,,,,,,,,,,None,None,None,None,None,1941.9479703998659,None,1941.9479703998659,None,1941.9479703998659,None,1941.9479703998659,None,j,0.290690700057894,1941.9479703998659,None,1941.9479703998659,None,1942.2833163000178,None,1942.2833163000178,None,1942.2833163000178,None,1942.2833163000178,None,1942.2833163000178,None,1942.2833163000178,None,1942.5788612999022,1943.8295938998926,1942.5788612999022,1943.8295938998926,1943.860717699863,None,1943.860717699863,None,1943.860717699863,None,1943.860717699863,None,1943.860717699863,None,1943.860717699863,None,1943.860717699863,None,1943.860717699863,None,1943.860717699863,None,50,27,63,83,83,54,1946.3798003999982,None,5.0,0.6842012000270188,1946.3798003999982,None,1946.3798003999982,None,1946.3798003999982,None,1946.3798003999982,None,None,None,1947.0815853998065,None,,,,,,,119,f,1,2022_Dec_11_1658,RL,2021.2.3,59.94010783479166,
1,33,0,33,0,,,,,,,,,,,,,,,None,None,None,None,None,1948.986218799837,None,1948.986218799837,None,1948.986218799837,None,1948.986218799837,None,j,0.24246650002896786,1948.986218799837,None,1948.986218799837,None,1949.2716083999258,None,1949.2716083999258,None,1949.2716083999258,None,1949.2716083999258,None,1949.2716083999258,None,1949.2716083999258,None,1949.5669130999595,1950.9012540997937,1949.5669130999595,1950.9012540997937,1950.9316418999806,None,1950.9316418999806,None,1950.9316418999806,None,1950.9316418999806,None,1950.9316418999806,None,1950.9316418999806,None,1950.9316418999806,None,1950.9316418999806,None,1950.9316418999806,None,35,24,62,86,86,58,1953.4562253998592,None,5.0,0.9988514999859035,1953.4562253998592,None,1953.4562253998592,None,1953.4562253998592,None,1953.4562253998592,None,None,None,1954.4698442998342,None,,,,,,,119,f,1,2022_Dec_11_1658,RL,2021.2.3,59.94010783479166,
1,34,0,34,0,,,,,,,,,,,,,,,None,None,None,None,None,1956.2580412998796,None,1956.2580412998796,None,1956.2580412998796,None,1956.2580412998796,None,j,0.26185020012781024,1956.2580412998796,None,1956.2580412998796,None,1956.560586999869,None,1956.560586999869,None,1956.560586999869,None,1956.560586999869,None,1956.560586999869,None,1956.560586999869,None,1956.8554033997934,None,1956.8554033997934,None,1957.8697083999868,None,1957.8697083999868,None,1957.8697083999868,None,1957.8697083999868,None,1957.8697083999868,None,1957.8697083999868,None,1957.8697083999868,None,1957.8697083999868,None,1957.8697083999868,None,51,26,64,84,84,47,1960.3860515998676,None,4.0,0.7541251999791712,1960.3860515998676,None,1960.3860515998676,None,1960.3860515998676,None,1960.3860515998676,None,None,None,1961.157754899934,None,,,,,,,119,f,1,2022_Dec_11_1658,RL,2021.2.3,59.94010783479166,
1,35,0,35,0,,,,,,,,,,,,,,,None,None,None,None,None,1962.9960773999337,None,1962.9960773999337,None,1962.9960773999337,None,1962.9960773999337,None,j,0.38382730004377663,1962.9960773999337,None,1962.9960773999337,None,1963.434390499955,None,1963.434390499955,None,1963.434390499955,None,1963.434390499955,None,1963.434390499955,None,1963.434390499955,None,1963.7268785999622,1965.6780192998704,1963.7268785999622,1965.6780192998704,1965.7090022999328,None,1965.7090022999328,None,1965.7090022999328,None,1965.7090022999328,None,1965.7090022999328,None,1965.7090022999328,None,1965.7090022999328,None,1965.7090022999328,None,1965.7090022999328,None,43,28,70,84,84,50,1968.22710369993,None,4.0,0.45373880001716316,1968.22710369993,None,1968.22710369993,None,1968.22710369993,None,1968.22710369993,None,None,None,1968.696413199883,None,,,,,,,119,f,1,2022_Dec_11_1658,RL,2021.2.3,59.94010783479166,
1,36,0,36,0,,,,,,,,,,,,,,,None,None,None,None,None,1970.5013001998886,None,1970.5013001998886,None,1970.5013001998886,None,1970.5013001998886,None,j,1.0687114000320435,1970.5013001998886,None,1970.5013001998886,None,1971.6229689000174,None,1971.6229689000174,None,1971.6229689000174,None,1971.6229689000174,None,1971.6229689000174,None,1971.6229689000174,None,1971.915766699938,1972.9664088999853,1971.915766699938,1972.9664088999853,1972.9974456999917,None,1972.9974456999917,None,1972.9974456999917,None,1972.9974456999917,None,1972.9974456999917,None,1972.9974456999917,None,1972.9974456999917,None,1972.9974456999917,None,1972.9974456999917,None,39,32,63,88,88,23,1975.5165163998026,None,5.0,0.7366974998731166,1975.5165163998026,None,1975.5165163998026,None,1975.5165163998026,None,1975.5165163998026,None,None,None,1976.2719252000097,None,,,,,,,119,f,1,2022_Dec_11_1658,RL,2021.2.3,59.94010783479166,
1,37,0,37,0,,,,,,,,,,,,,,,None,None,None,None,None,1977.8224469998386,None,1977.8224469998386,None,1977.8224469998386,None,1977.8224469998386,None,j,0.337319599930197,1977.8224469998386,None,1977.8224469998386,None,1978.2073697999585,None,1978.2073697999585,None,1978.2073697999585,None,1978.2073697999585,None,1978.2073697999585,None,1978.2073697999585,None,1978.5037367998157,None,1978.5037367998157,None,1980.1849494997878,None,1980.1849494997878,None,1980.1849494997878,None,1980.1849494997878,None,1980.1849494997878,None,1980.1849494997878,None,1980.1849494997878,None,1980.1849494997878,None,1980.1849494997878,None,43,29,52,82,82,51,1982.7031258998904,None,4.0,0.672519400017336,1982.7031258998904,None,1982.7031258998904,None,1982.7031258998904,None,1982.7031258998904,None,None,None,1983.4017131999135,None,,,,,,,119,f,1,2022_Dec_11_1658,RL,2021.2.3,59.94010783479166,
1,38,0,38,0,,,,,,,,,,,,,,,None,None,None,None,None,1985.361879499862,None,1985.361879499862,None,1985.361879499862,None,1985.361879499862,None,j,0.34826400014571846,1985.361879499862,None,1985.361879499862,None,1985.74747870001,None,1985.74747870001,None,1985.74747870001,None,1985.74747870001,None,1985.74747870001,None,1985.74747870001,None,1986.0421949999873,None,1986.0421949999873,None,1986.9576979998965,None,1986.9576979998965,None,1986.9576979998965,None,1986.9576979998965,None,1986.9576979998965,None,1986.9576979998965,None,1986.9576979998965,None,1986.9576979998965,None,1986.9576979998965,None,36,30,56,85,85,52,1989.4761434998363,None,4.0,0.338452200172469,1989.4761434998363,None,1989.4761434998363,None,1989.4761434998363,None,1989.4761434998363,None,None,None,1989.8324441998266,None,,,,,,,119,f,1,2022_Dec_11_1658,RL,2021.2.3,59.94010783479166,
1,39,0,39,0,,,,,,,,,,,,,,,None,None,None,None,None,1991.3653289999347,None,1991.3653289999347,None,1991.3653289999347,None,1991.3653289999347,None,j,0.2952421000227332,1991.3653289999347,None,1991.3653289999347,None,1991.7021434998605,None,1991.7021434998605,None,1991.7021434998605,None,1991.7021434998605,None,1991.7021434998605,None,1991.7021434998605,None,1991.996491999831,None,1991.996491999831,None,1993.1274168998934,None,1993.1274168998934,None,1993.1274168998934,None,1993.1274168998934,None,1993.1274168998934,None,1993.1274168998934,None,1993.1274168998934,None,1993.1274168998934,None,1993.1274168998934,None,35,35,62,77,77,32,1995.6453585999552,None,3.0,0.671771900029853,1995.6453585999552,None,1995.6453585999552,None,1995.6453585999552,None,1995.6453585999552,None,None,None,1996.3325115998741,None,,,,,,,119,f,1,2022_Dec_11_1658,RL,2021.2.3,59.94010783479166,
1,40,0,40,0,,,,,,,,,,,,,,,None,None,None,None,None,1998.270096999826,None,1998.270096999826,None,1998.270096999826,None,1998.270096999826,None,j,0.23054769984446466,1998.270096999826,None,1998.270096999826,None,1998.5488485000096,None,1998.5488485000096,None,1998.5488485000096,None,1998.5488485000096,None,1998.5488485000096,None,1998.5488485000096,None,1998.8347101998515,1999.7016991998535,1998.8347101998515,1999.7016991998535,1999.73329559993,None,1999.73329559993,None,1999.73329559993,None,1999.73329559993,None,1999.73329559993,None,1999.73329559993,None,1999.73329559993,None,1999.73329559993,None,1999.73329559993,None,42,35,63,79,79,49,2002.2497954999562,None,3.0,0.33868300006724894,2002.2497954999562,None,2002.2497954999562,None,2002.2497954999562,None,2002.2497954999562,None,None,None,2002.6034374998417,None,,,,,,,119,f,1,2022_Dec_11_1658,RL,2021.2.3,59.94010783479166,
1,41,0,41,0,,,,,,,,,,,,,,,None,None,None,None,None,2004.1579509999137,None,2004.1579509999137,None,2004.1579509999137,None,2004.1579509999137,None,j,0.2520230000372976,2004.1579509999137,None,2004.1579509999137,None,2004.459840899799,None,2004.459840899799,None,2004.459840899799,None,2004.459840899799,None,2004.459840899799,None,2004.459840899799,None,2004.7552757998928,None,2004.7552757998928,None,2006.508872399805,None,2006.508872399805,None,2006.508872399805,None,2006.508872399805,None,2006.508872399805,None,2006.508872399805,None,2006.508872399805,None,2006.508872399805,None,2006.508872399805,None,39,35,65,76,76,51,2009.025118399877,None,2.0,0.5343553000129759,2009.025118399877,None,2009.025118399877,None,2009.025118399877,None,2009.025118399877,None,None,None,2009.5750269999262,None,,,,,,,119,f,1,2022_Dec_11_1658,RL,2021.2.3,59.94010783479166,
1,42,0,42,0,,,,,,,,,,,,,,,None,None,None,None,None,2011.2959904999007,None,2011.2959904999007,None,2011.2959904999007,None,2011.2959904999007,None,j,0.24424470006488264,2011.2959904999007,None,2011.2959904999007,None,2011.5831492999569,None,2011.5831492999569,None,2011.5831492999569,None,2011.5831492999569,None,2011.5831492999569,None,2011.5831492999569,None,2011.860239799833,2013.6111828999128,2011.860239799833,2013.6111828999128,2013.6432289998047,None,2013.6432289998047,None,2013.6432289998047,None,2013.6432289998047,None,2013.6432289998047,None,2013.6432289998047,None,2013.6432289998047,None,2013.6432289998047,None,2013.6432289998047,None,46,41,64,77,77,50,2016.1590410999488,None,3.0,1.1037246999330819,2016.1590410999488,None,2016.1590410999488,None,2016.1590410999488,None,2016.1590410999488,None,None,None,2017.2814240998123,None,,,,,,,119,f,1,2022_Dec_11_1658,RL,2021.2.3,59.94010783479166,
1,43,0,43,0,,,,,,,,,,,,,,,None,None,None,None,None,2019.0843386999331,None,2019.0843386999331,None,2019.0843386999331,None,2019.0843386999331,None,j,0.23556880000978708,2019.0843386999331,None,2019.0843386999331,None,2019.3717819999438,None,2019.3717819999438,None,2019.3717819999438,None,2019.3717819999438,None,2019.3717819999438,None,2019.3717819999438,None,2019.6656398000196,None,2019.6656398000196,None,2021.5454439998139,None,2021.5454439998139,None,2021.5454439998139,None,2021.5454439998139,None,2021.5454439998139,None,2021.5454439998139,None,2021.5454439998139,None,2021.5454439998139,None,2021.5454439998139,None,44,39,57,74,74,50,2024.0658784999978,None,3.0,0.6200747999828309,2024.0658784999978,None,2024.0658784999978,None,2024.0658784999978,None,2024.0658784999978,None,None,None,2024.7021219998132,None,,,,,,,119,f,1,2022_Dec_11_1658,RL,2021.2.3,59.94010783479166,
1,44,0,44,0,,,,,,,,,,,,,,,None,None,None,None,None,2026.239310399862,None,2026.239310399862,None,2026.239310399862,None,2026.239310399862,None,j,0.29093350004404783,2026.239310399862,None,2026.239310399862,None,2026.5768204999622,None,2026.5768204999622,None,2026.5768204999622,None,2026.5768204999622,None,2026.5768204999622,None,2026.5768204999622,None,2026.8706486998126,2027.687805699883,2026.8706486998126,2027.687805699883,2027.7214303999208,None,2027.7214303999208,None,2027.7214303999208,None,2027.7214303999208,None,2027.7214303999208,None,2027.7214303999208,None,2027.7214303999208,None,2027.7214303999208,None,2027.7214303999208,None,44,48,58,76,76,29,2030.2358837998472,None,3.0,0.40358570008538663,2030.2358837998472,None,2030.2358837998472,None,2030.2358837998472,None,2030.2358837998472,None,None,None,2030.6558588999324,None,,,,,,,119,f,1,2022_Dec_11_1658,RL,2021.2.3,59.94010783479166,
1,45,0,45,0,,,,,,,,,,,,,,,None,None,None,None,None,2032.2770490997937,None,2032.2770490997937,None,2032.2770490997937,None,2032.2770490997937,None,j,0.37320339982397854,2032.2770490997937,None,2032.2770490997937,None,2032.6974321999587,None,2032.6974321999587,None,2032.6974321999587,None,2032.6974321999587,None,2032.6974321999587,None,2032.6974321999587,None,2032.9917194999289,None,2032.9917194999289,None,2034.1397930998355,None,2034.1397930998355,None,2034.1397930998355,None,2034.1397930998355,None,2034.1397930998355,None,2034.1397930998355,None,2034.1397930998355,None,2034.1397930998355,None,2034.1397930998355,None,49,44,69,72,72,32,2036.6558962999843,None,2.0,0.6375237999018282,2036.6558962999843,None,2036.6558962999843,None,2036.6558962999843,None,2036.6558962999843,None,None,None,2037.3109071999788,None,,,,,,,119,f,1,2022_Dec_11_1658,RL,2021.2.3,59.94010783479166,
1,46,0,46,0,,,,,,,,,,,,,,,None,None,None,None,None,2039.115108500002,None,2039.115108500002,None,2039.115108500002,None,2039.115108500002,None,j,0.2549866000190377,2039.115108500002,None,2039.115108500002,None,2039.4197163998615,None,2039.4197163998615,None,2039.4197163998615,None,2039.4197163998615,None,2039.4197163998615,None,2039.4197163998615,None,2039.696384599898,2040.9302790998481,2039.696384599898,2040.9302790998481,2040.979192599887,None,2040.979192599887,None,2040.979192599887,None,2040.979192599887,None,2040.979192599887,None,2040.979192599887,None,2040.979192599887,None,2040.979192599887,None,2040.979192599887,None,47,41,70,77,77,39,2043.5007256998215,None,3.0,0.7669728000182658,2043.5007256998215,None,2043.5007256998215,None,2043.5007256998215,None,2043.5007256998215,None,None,None,2044.2821967999917,None,,,,,,,119,f,1,2022_Dec_11_1658,RL,2021.2.3,59.94010783479166,
1,47,0,47,0,,,,,,,,,,,,,,,None,None,None,None,None,2045.869745399803,None,2045.869745399803,None,2045.869745399803,None,2045.869745399803,None,j,0.22053740010596812,2045.869745399803,None,2045.869745399803,None,2046.1377431999426,None,2046.1377431999426,None,2046.1377431999426,None,2046.1377431999426,None,2046.1377431999426,None,2046.1377431999426,None,2046.43414389994,None,2046.43414389994,None,2047.331392899854,None,2047.331392899854,None,2047.331392899854,None,2047.331392899854,None,2047.331392899854,None,2047.331392899854,None,2047.331392899854,None,2047.331392899854,None,2047.331392899854,None,64,44,70,66,66,54,2049.849557199981,None,1.0,1.0880277999676764,2049.849557199981,None,2049.849557199981,None,2049.849557199981,None,2049.849557199981,None,None,None,2050.9535091000143,None,,,,,,,119,f,1,2022_Dec_11_1658,RL,2021.2.3,59.94010783479166,
1,48,0,48,0,,,,,,,,,,,,,,,None,None,None,None,None,2052.6747427999508,None,2052.6747427999508,None,2052.6747427999508,None,2052.6747427999508,None,j,0.30552650010213256,2052.6747427999508,None,2052.6747427999508,None,2053.0253100998234,None,2053.0253100998234,None,2053.0253100998234,None,2053.0253100998234,None,2053.0253100998234,None,2053.0253100998234,None,2053.3223511998076,None,2053.3223511998076,None,2054.285637699999,None,2054.285637699999,None,2054.285637699999,None,2054.285637699999,None,2054.285637699999,None,2054.285637699999,None,2054.285637699999,None,2054.285637699999,None,2054.285637699999,None,60,37,70,60,60,48,2056.805038599996,None,1.0,0.3536938999313861,2056.805038599996,None,2056.805038599996,None,2056.805038599996,None,2056.805038599996,None,None,None,2057.174348899862,None,,,,,,,119,f,1,2022_Dec_11_1658,RL,2021.2.3,59.94010783479166,
1,49,0,49,0,,,,,,,,,,,,,,,None,None,None,None,None,2058.929316399852,None,2058.929316399852,None,2058.929316399852,None,2058.929316399852,None,j,0.24143590009771287,2058.929316399852,None,2058.929316399852,None,2059.2168593998067,None,2059.2168593998067,None,2059.2168593998067,None,2059.2168593998067,None,2059.2168593998067,None,2059.2168593998067,None,2059.5099404999055,2060.6105198999867,2059.5099404999055,2060.6105198999867,2060.641046299832,None,2060.641046299832,None,2060.641046299832,None,2060.641046299832,None,2060.641046299832,None,2060.641046299832,None,2060.641046299832,None,2060.641046299832,None,2060.641046299832,None,64,39,55,72,72,50,2063.159366699867,None,3.0,0.5880110000725836,2063.159366699867,None,2063.159366699867,None,2063.159366699867,None,2063.159366699867,None,None,None,2063.762405099813,None,,,,,,,119,f,1,2022_Dec_11_1658,RL,2021.2.3,59.94010783479166,
1,50,0,50,0,,,,,,,,,,,,,,,None,None,None,None,None,2065.7172437999398,None,2065.7172437999398,None,2065.7172437999398,None,2065.7172437999398,None,j,0.22332730004563928,2065.7172437999398,None,2065.7172437999398,None,2065.9866112999152,None,2065.9866112999152,None,2065.9866112999152,None,2065.9866112999152,None,2065.9866112999152,None,2065.9866112999152,None,2066.2815332999453,None,2066.2815332999453,None,2067.3788077998906,None,2067.3788077998906,None,2067.3788077998906,None,2067.3788077998906,None,2067.3788077998906,None,2067.3788077998906,None,2067.3788077998906,None,2067.3788077998906,None,2067.3788077998906,None,63,42,57,71,71,38,2069.8959613998886,None,3.0,0.369858399964869,2069.8959613998886,None,2069.8959613998886,None,2069.8959613998886,None,2069.8959613998886,None,None,None,2070.28366249986,None,,,,,,,119,f,1,2022_Dec_11_1658,RL,2021.2.3,59.94010783479166,
1,51,0,51,0,,,,,,,,,,,,,,,None,None,None,None,None,2071.921208199812,None,2071.921208199812,None,2071.921208199812,None,2071.921208199812,None,j,0.25962909986265004,2071.921208199812,None,2071.921208199812,None,2072.2249745000154,None,2072.2249745000154,None,2072.2249745000154,None,2072.2249745000154,None,2072.2249745000154,None,2072.2249745000154,None,2072.5189443000127,None,2072.5189443000127,None,2074.0150756000075,None,2074.0150756000075,None,2074.0150756000075,None,2074.0150756000075,None,2074.0150756000075,None,2074.0150756000075,None,2074.0150756000075,None,2074.0150756000075,None,2074.0150756000075,None,63,41,65,79,79,55,2076.5392695998307,None,4.0,0.5524466000497341,2076.5392695998307,None,2076.5392695998307,None,2076.5392695998307,None,2076.5392695998307,None,None,None,2077.1050801998936,None,,,,,,,119,f,1,2022_Dec_11_1658,RL,2021.2.3,59.94010783479166,
1,52,0,52,0,,,,,,,,,,,,,,,None,None,None,None,None,2078.8098649999592,None,2078.8098649999592,None,2078.8098649999592,None,2078.8098649999592,None,j,0.23074440006166697,2078.8098649999592,None,2078.8098649999592,None,2079.0798277999274,None,2079.0798277999274,None,2079.0798277999274,None,2079.0798277999274,None,2079.0798277999274,None,2079.0798277999274,None,2079.373691599816,2080.2074876998086,2079.373691599816,2080.2074876998086,2080.2362896997947,None,2080.2362896997947,None,2080.2362896997947,None,2080.2362896997947,None,2080.2362896997947,None,2080.2362896997947,None,2080.2362896997947,None,2080.2362896997947,None,2080.2362896997947,None,59,42,70,68,68,48,2082.754311699886,None,1.0,0.5377394000533968,2082.754311699886,None,2082.754311699886,None,2082.754311699886,None,2082.754311699886,None,None,None,2083.3099857999478,None,,,,,,,119,f,1,2022_Dec_11_1658,RL,2021.2.3,59.94010783479166,
1,53,0,53,0,,,,,,,,,,,,,,,None,None,None,None,None,2085.030541099841,None,2085.030541099841,None,2085.030541099841,None,2085.030541099841,None,j,0.3501015000510961,2085.030541099841,None,2085.030541099841,None,2085.434788899962,None,2085.434788899962,None,2085.434788899962,None,2085.434788899962,None,2085.434788899962,None,2085.434788899962,None,2085.7115968000144,2087.5458839999046,2085.7115968000144,2087.5458839999046,2087.5767839998007,None,2087.5767839998007,None,2087.5767839998007,None,2087.5767839998007,None,2087.5767839998007,None,2087.5767839998007,None,2087.5767839998007,None,2087.5767839998007,None,2087.5767839998007,None,69,33,66,74,74,59,2090.098622499965,None,3.0,0.3670476002153009,2090.098622499965,None,2090.098622499965,None,2090.098622499965,None,2090.098622499965,None,None,None,2090.4808202998247,None,,,,,,,119,f,1,2022_Dec_11_1658,RL,2021.2.3,59.94010783479166,
1,54,0,54,0,,,,,,,,,,,,,,,None,None,None,None,None,2092.3511397999246,None,2092.3511397999246,None,2092.3511397999246,None,2092.3511397999246,None,j,0.2096194000914693,2092.3511397999246,None,2092.3511397999246,None,2092.603130299831,None,2092.603130299831,None,2092.603130299831,None,2092.603130299831,None,2092.603130299831,None,2092.603130299831,None,2092.899756999919,None,2092.899756999919,None,2094.134280799888,None,2094.134280799888,None,2094.134280799888,None,2094.134280799888,None,2094.134280799888,None,2094.134280799888,None,2094.134280799888,None,2094.134280799888,None,2094.134280799888,None,57,29,59,73,73,57,2096.6568905999884,None,3.0,0.33063310012221336,2096.6568905999884,None,2096.6568905999884,None,2096.6568905999884,None,2096.6568905999884,None,None,None,2097.002013399964,None,,,,,,,119,f,1,2022_Dec_11_1658,RL,2021.2.3,59.94010783479166,
1,55,0,55,0,,,,,,,,,,,,,,,None,None,None,None,None,2098.5727587,None,2098.5727587,None,2098.5727587,None,2098.5727587,None,j,0.24735990003682673,2098.5727587,None,2098.5727587,None,2098.84910709993,None,2098.84910709993,None,2098.84910709993,None,2098.84910709993,None,2098.84910709993,None,2098.84910709993,None,2099.1376110999845,2101.1219711999875,2099.1376110999845,2101.1219711999875,2101.1574917999096,None,2101.1574917999096,None,2101.1574917999096,None,2101.1574917999096,None,2101.1574917999096,None,2101.1574917999096,None,2101.1574917999096,None,2101.1574917999096,None,2101.1574917999096,None,64,38,59,67,67,45,2103.6687675998546,None,1.0,0.9406391000375152,2103.6687675998546,None,2103.6687675998546,None,2103.6687675998546,None,2103.6687675998546,None,None,None,2104.6239444999956,None,,,,,,,119,f,1,2022_Dec_11_1658,RL,2021.2.3,59.94010783479166,
1,56,0,56,0,,,,,,,,,,,,,,,None,None,None,None,None,2106.212483299896,None,2106.212483299896,None,2106.212483299896,None,2106.212483299896,None,j,0.28951249993406236,2106.212483299896,None,2106.212483299896,None,2106.546065100003,None,2106.546065100003,None,2106.546065100003,None,2106.546065100003,None,2106.546065100003,None,2106.546065100003,None,2106.842942799907,None,2106.842942799907,None,2107.9730600998737,None,2107.9730600998737,None,2107.9730600998737,None,2107.9730600998737,None,2107.9730600998737,None,2107.9730600998737,None,2107.9730600998737,None,2107.9730600998737,None,2107.9730600998737,None,59,27,61,73,73,42,2110.4449054999277,None,3.0,0.7807181999087334,2110.4449054999277,None,2110.4449054999277,None,2110.4449054999277,None,2110.4449054999277,None,None,None,2111.245173999807,None,,,,,,,119,f,1,2022_Dec_11_1658,RL,2021.2.3,59.94010783479166,
1,57,0,57,0,,,,,,,,,,,,,,,None,None,None,None,None,2112.983926799847,None,2112.983926799847,None,2112.983926799847,None,2112.983926799847,None,j,0.2388486999552697,2112.983926799847,None,2112.983926799847,None,2113.2698505998123,None,2113.2698505998123,None,2113.2698505998123,None,2113.2698505998123,None,2113.2698505998123,None,2113.2698505998123,None,2113.5640292000026,None,2113.5640292000026,None,2114.5121052998584,None,2114.5121052998584,None,2114.5121052998584,None,2114.5121052998584,None,2114.5121052998584,None,2114.5121052998584,None,2114.5121052998584,None,2114.5121052998584,None,2114.5121052998584,None,61,29,55,73,73,58,2117.0305843998212,None,3.0,0.3211666999850422,2117.0305843998212,None,2117.0305843998212,None,2117.0305843998212,None,2117.0305843998212,None,None,None,2117.366121099796,None,,,,,,,119,f,1,2022_Dec_11_1658,RL,2021.2.3,59.94010783479166,
1,58,0,58,0,,,,,,,,,,,,,,,None,None,None,None,None,2118.884056399809,None,2118.884056399809,None,2118.884056399809,None,2118.884056399809,None,j,0.2477859000209719,2118.884056399809,None,2118.884056399809,None,2119.173315399792,None,2119.173315399792,None,2119.173315399792,None,2119.173315399792,None,2119.173315399792,None,2119.173315399792,None,2119.4682279999834,2121.052403599955,2119.4682279999834,2121.052403599955,2121.082392100012,None,2121.082392100012,None,2121.082392100012,None,2121.082392100012,None,2121.082392100012,None,2121.082392100012,None,2121.082392100012,None,2121.082392100012,None,2121.082392100012,None,50,24,64,65,65,44,2123.601752099814,None,1.0,0.48884109989739954,2123.601752099814,None,2123.601752099814,None,2123.601752099814,None,2123.601752099814,None,None,None,2124.1106498998124,None,,,,,,,119,f,1,2022_Dec_11_1658,RL,2021.2.3,59.94010783479166,
1,59,0,59,0,,,,,,,,,,,,,,,None,None,None,None,None,2125.7079777999315,None,2125.7079777999315,None,2125.7079777999315,None,2125.7079777999315,None,j,0.27382689993828535,2125.7079777999315,None,2125.7079777999315,None,2126.0292863999493,None,2126.0292863999493,None,2126.0292863999493,None,2126.0292863999493,None,2126.0292863999493,None,2126.0292863999493,None,2126.3064464998897,2127.206953499932,2126.3064464998897,2127.206953499932,2127.237744099926,None,2127.237744099926,None,2127.237744099926,None,2127.237744099926,None,2127.237744099926,None,2127.237744099926,None,2127.237744099926,None,2127.237744099926,None,2127.237744099926,None,63,30,51,58,58,24,2129.7542501999997,None,1.0,0.45510479994118214,2129.7542501999997,None,2129.7542501999997,None,2129.7542501999997,None,2129.7542501999997,None,None,None,2130.2253943998367,None,,,,,,,119,f,1,2022_Dec_11_1658,RL,2021.2.3,59.94010783479166,
1,60,0,60,0,,,,,,,,,,,,,,,None,None,None,None,None,2131.929224099964,None,2131.929224099964,None,2131.929224099964,None,2131.929224099964,None,j,0.30244360002689064,2131.929224099964,None,2131.929224099964,None,2132.2836725998204,None,2132.2836725998204,None,2132.2836725998204,None,2132.2836725998204,None,2132.2836725998204,None,2132.2836725998204,None,2132.5773225999437,None,2132.5773225999437,None,2133.493023299845,None,2133.493023299845,None,2133.493023299845,None,2133.493023299845,None,2133.493023299845,None,2133.493023299845,None,2133.493023299845,None,2133.493023299845,None,2133.493023299845,None,57,23,63,58,58,25,2136.0073534999974,None,1.0,0.3570179999805987,2136.0073534999974,None,2136.0073534999974,None,2136.0073534999974,None,2136.0073534999974,None,None,None,2136.390230000019,None,,,,,,,119,f,1,2022_Dec_11_1658,RL,2021.2.3,59.94010783479166,
1,61,0,61,0,,,,,,,,,,,,,,,None,None,None,None,None,2137.933670599945,None,2137.933670599945,None,2137.933670599945,None,2137.933670599945,None,j,0.2483386998064816,2137.933670599945,None,2137.933670599945,None,2138.229123799829,None,2138.229123799829,None,2138.229123799829,None,2138.229123799829,None,2138.229123799829,None,2138.229123799829,None,2138.5147068998776,2139.6988568999805,2138.5147068998776,2139.6988568999805,2139.730783799896,None,2139.730783799896,None,2139.730783799896,None,2139.730783799896,None,2139.730783799896,None,2139.730783799896,None,2139.730783799896,None,2139.730783799896,None,2139.730783799896,None,57,27,59,64,64,28,2142.2489948999137,None,2.0,0.370106799993664,2142.2489948999137,None,2142.2489948999137,None,2142.2489948999137,None,2142.2489948999137,None,None,None,2142.63373459992,None,,,,,,,119,f,1,2022_Dec_11_1658,RL,2021.2.3,59.94010783479166,
1,62,0,62,0,,,,,,,,,,,,,,,None,None,None,None,None,2144.254709400004,None,2144.254709400004,None,2144.254709400004,None,2144.254709400004,None,j,0.18719620001502335,2144.254709400004,None,2144.254709400004,None,2144.491680299863,None,2144.491680299863,None,2144.491680299863,None,2144.491680299863,None,2144.491680299863,None,2144.491680299863,None,2144.7856856000144,None,2144.7856856000144,None,2146.4334150999784,None,2146.4334150999784,None,2146.4334150999784,None,2146.4334150999784,None,2146.4334150999784,None,2146.4334150999784,None,2146.4334150999784,None,2146.4334150999784,None,2146.4334150999784,None,58,31,58,60,60,45,2148.957554699853,None,2.0,0.3125613001175225,2148.957554699853,None,2148.957554699853,None,2148.957554699853,None,2148.957554699853,None,None,None,2149.288286199793,None,,,,,,,119,f,1,2022_Dec_11_1658,RL,2021.2.3,59.94010783479166,
1,63,0,63,0,,,,,,,,,,,,,,,None,None,None,None,None,2151.293799899984,None,2151.293799899984,None,2151.293799899984,None,2151.293799899984,None,j,0.30816230014897883,2151.293799899984,None,2151.293799899984,None,2151.6498730999883,None,2151.6498730999883,None,2151.6498730999883,None,2151.6498730999883,None,2151.6498730999883,None,2151.6498730999883,None,2151.940595799824,None,2151.940595799824,None,2153.0722199999727,None,2153.0722199999727,None,2153.0722199999727,None,2153.0722199999727,None,2153.0722199999727,None,2153.0722199999727,None,2153.0722199999727,None,2153.0722199999727,None,2153.0722199999727,None,55,28,46,63,63,58,2155.5909933999646,None,2.0,0.4871326999273151,2155.5909933999646,None,2155.5909933999646,None,2155.5909933999646,None,2155.5909933999646,None,None,None,2156.0934630997945,None,,,,,,,119,f,1,2022_Dec_11_1658,RL,2021.2.3,59.94010783479166,
1,64,0,64,0,,,,,,,,,,,,,,,None,None,None,None,None,2157.947950599948,None,2157.947950599948,None,2157.947950599948,None,2157.947950599948,None,j,0.24414719990454614,2157.947950599948,None,2157.947950599948,None,2158.231712099863,None,2158.231712099863,None,2158.231712099863,None,2158.231712099863,None,2158.231712099863,None,2158.231712099863,None,2158.5288901999593,2159.66259299987,2158.5288901999593,2159.66259299987,2159.6958802998997,None,2159.6958802998997,None,2159.6958802998997,None,2159.6958802998997,None,2159.6958802998997,None,2159.6958802998997,None,2159.6958802998997,None,2159.6958802998997,None,2159.6958802998997,None,63,30,50,70,70,57,2162.209291699808,None,3.0,0.4543867998290807,2162.209291699808,None,2162.209291699808,None,2162.209291699808,None,2162.209291699808,None,None,None,2162.680925599998,None,,,,,,,119,f,1,2022_Dec_11_1658,RL,2021.2.3,59.94010783479166,
1,65,0,65,0,,,,,,,,,,,,,,,None,None,None,None,None,2164.668532999931,None,2164.668532999931,None,2164.668532999931,None,2164.668532999931,None,j,0.29302079998888075,2164.668532999931,None,2164.668532999931,None,2165.002728599822,None,2165.002728599822,None,2165.002728599822,None,2165.002728599822,None,2165.002728599822,None,2165.002728599822,None,2165.299928699853,None,2165.299928699853,None,2166.9168461998925,None,2166.9168461998925,None,2166.9168461998925,None,2166.9168461998925,None,2166.9168461998925,None,2166.9168461998925,None,2166.9168461998925,None,2166.9168461998925,None,2166.9168461998925,None,61,27,51,68,68,49,2169.437447999837,None,2.0,0.6833081000950187,2169.437447999837,None,2169.437447999837,None,2169.437447999837,None,2169.437447999837,None,None,None,2170.1361439998727,None,,,,,,,119,f,1,2022_Dec_11_1658,RL,2021.2.3,59.94010783479166,
1,66,0,66,0,,,,,,,,,,,,,,,None,None,None,None,None,2171.9739643000066,None,2171.9739643000066,None,2171.9739643000066,None,2171.9739643000066,None,j,0.3780322999227792,2171.9739643000066,None,2171.9739643000066,None,2172.390521199908,None,2172.390521199908,None,2172.390521199908,None,2172.390521199908,None,2172.390521199908,None,2172.390521199908,None,2172.688404899789,None,2172.688404899789,None,2174.3521284000017,None,2174.3521284000017,None,2174.3521284000017,None,2174.3521284000017,None,2174.3521284000017,None,2174.3521284000017,None,2174.3521284000017,None,2174.3521284000017,None,2174.3521284000017,None,61,23,53,73,73,51,2176.8716050998773,None,3.0,0.7691758999135345,2176.8716050998773,None,2176.8716050998773,None,2176.8716050998773,None,2176.8716050998773,None,None,None,2177.657782399794,None,,,,,,,119,f,1,2022_Dec_11_1658,RL,2021.2.3,59.94010783479166,
1,67,0,67,0,,,,,,,,,,,,,,,None,None,None,None,None,2179.345924399793,None,2179.345924399793,None,2179.345924399793,None,2179.345924399793,None,j,0.25598999997600913,2179.345924399793,None,2179.345924399793,None,2179.6469556998927,None,2179.6469556998927,None,2179.6469556998927,None,2179.6469556998927,None,2179.6469556998927,None,2179.6469556998927,None,2179.9434014,None,2179.9434014,None,2181.1448583998717,None,2181.1448583998717,None,2181.1448583998717,None,2181.1448583998717,None,2181.1448583998717,None,2181.1448583998717,None,2181.1448583998717,None,2181.1448583998717,None,2181.1448583998717,None,59,18,51,69,69,52,2183.659421299817,None,2.0,0.5204040000680834,2183.659421299817,None,2183.659421299817,None,2183.659421299817,None,2183.659421299817,None,None,None,2184.2033381999936,None,,,,,,,119,f,1,2022_Dec_11_1658,RL,2021.2.3,59.94010783479166,
1,68,0,68,0,,,,,,,,,,,,,,,None,None,None,None,None,2185.9997432997916,None,2185.9997432997916,None,2185.9997432997916,None,2185.9997432997916,None,j,0.07238979986868799,2185.9997432997916,None,2185.9997432997916,None,2186.128540799953,None,2186.128540799953,None,2186.128540799953,None,2186.128540799953,None,2186.128540799953,None,2186.128540799953,None,2186.4145958998706,None,2186.4145958998706,None,2188.3319396998268,None,2188.3319396998268,None,2188.3319396998268,None,2188.3319396998268,None,2188.3319396998268,None,2188.3319396998268,None,2188.3319396998268,None,2188.3319396998268,None,2188.3319396998268,None,52,24,60,71,71,34,2190.8587118999567,None,2.0,0.49913510004989803,2190.8587118999567,None,2190.8587118999567,None,2190.8587118999567,None,2190.8587118999567,None,None,None,2191.369112199871,None,,,,,,,119,f,1,2022_Dec_11_1658,RL,2021.2.3,59.94010783479166,
1,69,0,69,0,,,,,,,,,,,,,,,None,None,None,None,None,2193.105688099982,None,2193.105688099982,None,2193.105688099982,None,2193.105688099982,None,j,0.2564109000377357,2193.105688099982,None,2193.105688099982,None,2193.4082828999963,None,2193.4082828999963,None,2193.4082828999963,None,2193.4082828999963,None,2193.4082828999963,None,2193.4082828999963,None,2193.7030083998106,2195.3206390999258,2193.7030083998106,2195.3206390999258,2195.353733900003,None,2195.353733900003,None,2195.353733900003,None,2195.353733900003,None,2195.353733900003,None,2195.353733900003,None,2195.353733900003,None,2195.353733900003,None,2195.353733900003,None,44,18,53,73,73,31,2197.870892399922,None,2.0,0.8182697000447661,2197.870892399922,None,2197.870892399922,None,2197.870892399922,None,2197.870892399922,None,None,None,2198.7060652999207,None,,,,,,,119,f,1,2022_Dec_11_1658,RL,2021.2.3,59.94010783479166,
1,70,0,70,0,,,,,,,,,,,,,,,None,None,None,None,None,2200.5271424998064,None,2200.5271424998064,None,2200.5271424998064,None,2200.5271424998064,None,j,0.3548659000080079,2200.5271424998064,None,2200.5271424998064,None,2200.9309810998384,None,2200.9309810998384,None,2200.9309810998384,None,2200.9309810998384,None,2200.9309810998384,None,2200.9309810998384,None,2201.2082388999406,2202.3920620998833,2201.2082388999406,2202.3920620998833,2202.4407549998723,None,2202.4407549998723,None,2202.4407549998723,None,2202.4407549998723,None,2202.4407549998723,None,2202.4407549998723,None,2202.4407549998723,None,2202.4407549998723,None,2202.4407549998723,None,49,16,55,64,64,47,2204.9614242999814,None,2.0,0.5012263001408428,2204.9614242999814,None,2204.9614242999814,None,2204.9614242999814,None,2204.9614242999814,None,None,None,2205.477187299868,None,,,,,,,119,f,1,2022_Dec_11_1658,RL,2021.2.3,59.94010783479166,
1,71,0,71,0,,,,,,,,,,,,,,,None,None,None,None,None,2206.998321399791,None,2206.998321399791,None,2206.998321399791,None,2206.998321399791,None,j,0.2036941999103874,2206.998321399791,None,2206.998321399791,None,2207.250256399857,None,2207.250256399857,None,2207.250256399857,None,2207.250256399857,None,2207.250256399857,None,2207.250256399857,None,2207.545820500003,None,2207.545820500003,None,2209.078494499903,None,2209.078494499903,None,2209.078494499903,None,2209.078494499903,None,2209.078494499903,None,2209.078494499903,None,2209.078494499903,None,2209.078494499903,None,2209.078494499903,None,51,21,65,60,60,64,2211.5949501998257,None,2.0,0.4396126000210643,2211.5949501998257,None,2211.5949501998257,None,2211.5949501998257,None,2211.5949501998257,None,None,None,2212.056656099856,None,,,,,,,119,f,1,2022_Dec_11_1658,RL,2021.2.3,59.94010783479166,
1,72,0,72,0,,,,,,,,,,,,,,,None,None,None,None,None,2213.803409999935,None,2213.803409999935,None,2213.803409999935,None,2213.803409999935,None,i,0.22868679999373853,2213.803409999935,None,2213.803409999935,None,2214.0799658999313,None,2214.0799658999313,None,2214.0799658999313,None,2214.0799658999313,None,2214.0799658999313,None,2214.0799658999313,None,2214.367241199827,2215.634801799897,2214.367241199827,2215.634801799897,2215.667056399863,None,2215.667056399863,None,2215.667056399863,None,2215.667056399863,None,2215.667056399863,None,2215.667056399863,None,2215.667056399863,None,2215.667056399863,None,2215.667056399863,None,47,20,63,70,63,45,2218.1918726000004,None,2.0,0.28396480018272996,2218.1918726000004,None,2218.1918726000004,None,2218.1918726000004,None,2218.1918726000004,None,None,None,2218.491006999975,None,,,,,,,119,f,1,2022_Dec_11_1658,RL,2021.2.3,59.94010783479166,
1,73,0,73,0,,,,,,,,,,,,,,,None,None,None,None,None,2220.4247018999886,None,2220.4247018999886,None,2220.4247018999886,None,2220.4247018999886,None,f,0.037663300056010485,2220.4247018999886,None,2220.4247018999886,None,2220.510593399871,None,2220.510593399871,None,2220.510593399871,None,2220.510593399871,None,2220.510593399871,None,2220.510593399871,None,2220.8050416000187,None,2220.8050416000187,None,2222.190022900002,None,2222.190022900002,None,2222.190022900002,None,2222.190022900002,None,2222.190022900002,None,2222.190022900002,None,2222.190022900002,None,2222.190022900002,None,2222.190022900002,None,51,22,66,61,22,52,2224.7023536998313,None,1.0,0.5575809001456946,2224.7023536998313,None,2224.7023536998313,None,2224.7023536998313,None,2224.7023536998313,None,None,None,2225.2746543998364,None,,,,,,,119,f,1,2022_Dec_11_1658,RL,2021.2.3,59.94010783479166,
1,74,0,74,0,,,,,,,,,,,,,,,None,None,None,None,None,2227.011823499808,None,2227.011823499808,None,2227.011823499808,None,2227.011823499808,None,r,0.24094799999147654,2227.011823499808,None,2227.011823499808,None,2227.3041185999755,None,2227.3041185999755,None,2227.3041185999755,None,2227.3041185999755,None,2227.3041185999755,None,2227.3041185999755,None,2227.593171000015,2228.943974799942,2227.593171000015,2228.943974799942,2228.9744527000003,None,2228.9744527000003,None,2228.9744527000003,None,2228.9744527000003,None,2228.9744527000003,None,2228.9744527000003,None,2228.9744527000003,None,2228.9744527000003,None,2228.9744527000003,None,49,15,66,67,49,50,2231.5025734999217,None,1.0,0.8480878998525441,2231.5025734999217,None,2231.5025734999217,None,2231.5025734999217,None,2231.5025734999217,None,None,None,2232.362687199842,None,,,,,,,119,f,1,2022_Dec_11_1658,RL,2021.2.3,59.94010783479166,
1,75,0,75,0,,,,,,,,,,,,,,,2233.914285399951,None,q,2233.914285399951,None,2366.391524999868,None,2366.391524999868,None,2366.391524999868,None,2366.391524999868,None,j,0.7688496999908239,2366.391524999868,None,2366.391524999868,None,2367.2112047998235,None,2367.2112047998235,None,2367.2112047998235,None,2367.2112047998235,None,2367.2112047998235,None,2367.2112047998235,None,2367.506722399965,None,2367.506722399965,None,2369.0110491998494,None,2369.0110491998494,None,2369.0110491998494,None,2369.0110491998494,None,2369.0110491998494,None,2369.0110491998494,None,2369.0110491998494,None,2369.0110491998494,None,2369.0110491998494,None,56,17,74,64,64,22,2371.527468699962,None,2.0,0.5351454000920057,2371.527468699962,None,2371.527468699962,None,2371.527468699962,None,2371.527468699962,None,None,None,2372.082659699954,None,132.4478515998926,,,,,,119,f,1,2022_Dec_11_1658,RL,2021.2.3,59.94010783479166,
1,76,0,76,0,,,,,,,,,,,,,,,None,None,None,None,None,2373.7475231999997,None,2373.7475231999997,None,2373.7475231999997,None,2373.7475231999997,None,i,0.25262659997679293,2373.7475231999997,None,2373.7475231999997,None,2374.0478248000145,None,2374.0478248000145,None,2374.0478248000145,None,2374.0478248000145,None,2374.0478248000145,None,2374.0478248000145,None,2374.3448198998813,2375.962358799996,2374.3448198998813,2375.962358799996,2375.9934158998076,None,2375.9934158998076,None,2375.9934158998076,None,2375.9934158998076,None,2375.9934158998076,None,2375.9934158998076,None,2375.9934158998076,None,2375.9934158998076,None,2375.9934158998076,None,52,29,72,56,72,28,2378.522114999825,None,3.0,0.5476681001018733,2378.522114999825,None,2378.522114999825,None,2378.522114999825,None,2378.522114999825,None,None,None,2379.0822564999107,None,,,,,,,119,f,1,2022_Dec_11_1658,RL,2021.2.3,59.94010783479166,
1,77,0,77,0,,,,,,,,,,,,,,,None,None,None,None,None,2381.0359470997937,None,2381.0359470997937,None,2381.0359470997937,None,2381.0359470997937,None,f,0.03437579981982708,2381.0359470997937,None,2381.0359470997937,None,2381.1262176998425,None,2381.1262176998425,None,2381.1262176998425,None,2381.1262176998425,None,2381.1262176998425,None,2381.1262176998425,None,2381.4164552998263,2382.2835905998945,2381.4164552998263,2382.2835905998945,2382.317515600007,None,2382.317515600007,None,2382.317515600007,None,2382.317515600007,None,2382.317515600007,None,2382.317515600007,None,2382.317515600007,None,2382.317515600007,None,2382.317515600007,None,59,27,69,55,27,40,2384.832117700018,None,1.0,0.9557449999265373,2384.832117700018,None,2384.832117700018,None,2384.832117700018,None,2384.832117700018,None,None,None,2385.8021495998837,None,,,,,,,119,f,1,2022_Dec_11_1658,RL,2021.2.3,59.94010783479166,
1,78,0,78,0,,,,,,,,,,,,,,,None,None,None,None,None,2387.4738433000166,None,2387.4738433000166,None,2387.4738433000166,None,2387.4738433000166,None,r,0.30643040011636913,2387.4738433000166,None,2387.4738433000166,None,2387.826324599795,None,2387.826324599795,None,2387.826324599795,None,2387.826324599795,None,2387.826324599795,None,2387.826324599795,None,2388.1209760999773,None,2388.1209760999773,None,2389.3669502998237,None,2389.3669502998237,None,2389.3669502998237,None,2389.3669502998237,None,2389.3669502998237,None,2389.3669502998237,None,2389.3669502998237,None,2389.3669502998237,None,2389.3669502998237,None,53,24,72,55,53,49,2391.8940525997896,None,1.0,0.04733710014261305,2391.8940525997896,None,2391.8940525997896,None,2391.8940525997896,None,2391.8940525997896,None,None,None,2391.9565162998624,None,,,,,,,119,f,1,2022_Dec_11_1658,RL,2021.2.3,59.94010783479166,
1,79,0,79,0,,,,,,,,,,,,,,,None,None,None,None,None,2393.6112185998354,None,2393.6112185998354,None,2393.6112185998354,None,2393.6112185998354,None,i,0.22893560002557933,2393.6112185998354,None,2393.6112185998354,None,2393.8900595000014,None,2393.8900595000014,None,2393.8900595000014,None,2393.8900595000014,None,2393.8900595000014,None,2393.8900595000014,None,2394.175200499827,None,2394.175200499827,None,2395.127088499954,None,2395.127088499954,None,2395.127088499954,None,2395.127088499954,None,2395.127088499954,None,2395.127088499954,None,2395.127088499954,None,2395.127088499954,None,2395.127088499954,None,58,28,75,51,75,46,2397.641126799863,None,3.0,0.8690962998662144,2397.641126799863,None,2397.641126799863,None,2397.641126799863,None,2397.641126799863,None,None,None,2398.528908399865,None,,,,,,,119,f,1,2022_Dec_11_1658,RL,2021.2.3,59.94010783479166,
1,80,0,80,0,,,,,,,,,,,,,,,None,None,None,None,None,2400.082309599966,None,2400.082309599966,None,2400.082309599966,None,2400.082309599966,None,j,0.008104000007733703,2400.082309599966,None,2400.082309599966,None,2400.132905999897,None,2400.132905999897,None,2400.132905999897,None,2400.132905999897,None,2400.132905999897,None,2400.132905999897,None,2400.429530299967,None,2400.429530299967,None,2401.5235662998166,None,2401.5235662998166,None,2401.5235662998166,None,2401.5235662998166,None,2401.5235662998166,None,2401.5235662998166,None,2401.5235662998166,None,2401.5235662998166,None,2401.5235662998166,None,54,16,67,51,51,34,2404.0434697999153,None,1.0,0.8240251999814063,2404.0434697999153,None,2404.0434697999153,None,2404.0434697999153,None,2404.0434697999153,None,None,None,2404.882732799975,None,,,,,,,119,f,1,2022_Dec_11_1658,RL,2021.2.3,59.94010783479166,
1,81,0,81,0,,,,,,,,,,,,,,,None,None,None,None,None,2406.786700199824,None,2406.786700199824,None,2406.786700199824,None,2406.786700199824,None,i,0.09378429991193116,2406.786700199824,None,2406.786700199824,None,2406.9247980997898,None,2406.9247980997898,None,2406.9247980997898,None,2406.9247980997898,None,2406.9247980997898,None,2406.9247980997898,None,2407.20089369989,2409.202182299923,2407.20089369989,2409.202182299923,2409.248832099838,None,2409.248832099838,None,2409.248832099838,None,2409.248832099838,None,2409.248832099838,None,2409.248832099838,None,2409.248832099838,None,2409.248832099838,None,2409.248832099838,None,51,20,65,51,65,43,2411.766596399946,None,2.0,0.47389800008386374,2411.766596399946,None,2411.766596399946,None,2411.766596399946,None,2411.766596399946,None,None,None,2412.2546008999925,None,,,,,,,119,f,1,2022_Dec_11_1658,RL,2021.2.3,59.94010783479166,
1,82,0,82,0,,,,,,,,,,,,,,,None,None,None,None,None,2413.8246018998325,None,2413.8246018998325,None,2413.8246018998325,None,2413.8246018998325,None,j,0.21582660009153187,2413.8246018998325,None,2413.8246018998325,None,2414.0800614999607,None,2414.0800614999607,None,2414.0800614999607,None,2414.0800614999607,None,2414.0800614999607,None,2414.0800614999607,None,2414.3727038998622,2416.323871999979,2414.3727038998622,2416.323871999979,2416.356092099799,None,2416.356092099799,None,2416.356092099799,None,2416.356092099799,None,2416.356092099799,None,2416.356092099799,None,2416.356092099799,None,2416.356092099799,None,2416.356092099799,None,56,16,63,54,54,34,2418.8717833999544,None,1.0,0.5070148999802768,2418.8717833999544,None,2418.8717833999544,None,2418.8717833999544,None,2418.8717833999544,None,None,None,2419.4038547999226,None,,,,,,,119,f,1,2022_Dec_11_1658,RL,2021.2.3,59.94010783479166,
1,83,0,83,0,,,,,,,,,,,,,,,None,None,None,None,None,2421.0133087998256,None,2421.0133087998256,None,2421.0133087998256,None,2421.0133087998256,None,i,0.23687299992889166,2421.0133087998256,None,2421.0133087998256,None,2421.309423199855,None,2421.309423199855,None,2421.309423199855,None,2421.309423199855,None,2421.309423199855,None,2421.309423199855,None,2421.59436629992,2423.4788218999747,2421.59436629992,2423.4788218999747,2423.5087480999064,None,2423.5087480999064,None,2423.5087480999064,None,2423.5087480999064,None,2423.5087480999064,None,2423.5087480999064,None,2423.5087480999064,None,2423.5087480999064,None,2423.5087480999064,None,59,25,60,55,60,41,2426.0258024998475,None,2.0,0.43757969979196787,2426.0258024998475,None,2426.0258024998475,None,2426.0258024998475,None,2426.0258024998475,None,None,None,2426.4805354999844,None,,,,,,,119,f,1,2022_Dec_11_1658,RL,2021.2.3,59.94010783479166,
1,84,0,84,0,,,,,,,,,,,,,,,None,None,None,None,None,2428.4681516999844,None,2428.4681516999844,None,2428.4681516999844,None,2428.4681516999844,None,i,0.12219629995524883,2428.4681516999844,None,2428.4681516999844,None,2428.6383865999524,None,2428.6383865999524,None,2428.6383865999524,None,2428.6383865999524,None,2428.6383865999524,None,2428.6383865999524,None,2428.932720199926,None,2428.932720199926,None,2430.6480936999433,None,2430.6480936999433,None,2430.6480936999433,None,2430.6480936999433,None,2430.6480936999433,None,2430.6480936999433,None,2430.6480936999433,None,2430.6480936999433,None,2430.6480936999433,None,49,27,73,54,73,41,2433.1658149999566,None,3.0,0.6392703000456095,2433.1658149999566,None,2433.1658149999566,None,2433.1658149999566,None,2433.1658149999566,None,None,None,2433.828097499907,None,,,,,,,119,f,1,2022_Dec_11_1658,RL,2021.2.3,59.94010783479166,
1,85,0,85,0,,,,,,,,,,,,,,,None,None,None,None,None,2435.789990299847,None,2435.789990299847,None,2435.789990299847,None,2435.789990299847,None,i,0.20050090015865862,2435.789990299847,None,2435.789990299847,None,2436.041965799872,None,2436.041965799872,None,2436.041965799872,None,2436.041965799872,None,2436.041965799872,None,2436.041965799872,None,2436.337711500004,None,2436.337711500004,None,2437.185536999954,None,2437.185536999954,None,2437.185536999954,None,2437.185536999954,None,2437.185536999954,None,2437.185536999954,None,2437.185536999954,None,2437.185536999954,None,2437.185536999954,None,62,22,74,67,74,46,2439.703519599978,None,3.0,0.4045851998962462,2439.703519599978,None,2439.703519599978,None,2439.703519599978,None,2439.703519599978,None,None,None,2440.123179799877,None,,,,,,,119,f,1,2022_Dec_11_1658,RL,2021.2.3,59.94010783479166,
1,86,0,86,0,,,,,,,,,,,,,,,None,None,None,None,None,2442.0112587998156,None,2442.0112587998156,None,2442.0112587998156,None,2442.0112587998156,None,i,0.09958260017447174,2442.0112587998156,None,2442.0112587998156,None,2442.162738899933,None,2442.162738899933,None,2442.162738899933,None,2442.162738899933,None,2442.162738899933,None,2442.162738899933,None,2442.458885299973,None,2442.458885299973,None,2443.3088334999047,None,2443.3088334999047,None,2443.3088334999047,None,2443.3088334999047,None,2443.3088334999047,None,2443.3088334999047,None,2443.3088334999047,None,2443.3088334999047,None,2443.3088334999047,None,55,21,73,66,73,38,2445.82872999995,None,3.0,0.29967520013451576,2445.82872999995,None,2445.82872999995,None,2445.82872999995,None,2445.82872999995,None,None,None,2446.144608499948,None,,,,,,,119,f,1,2022_Dec_11_1658,RL,2021.2.3,59.94010783479166,
1,87,0,87,0,,,,,,,,,,,,,,,None,None,None,None,None,2448.1155639998615,None,2448.1155639998615,None,2448.1155639998615,None,2448.1155639998615,None,i,0.3261036998592317,2448.1155639998615,None,2448.1155639998615,None,2448.4846663998906,None,2448.4846663998906,None,2448.4846663998906,None,2448.4846663998906,None,2448.4846663998906,None,2448.4846663998906,None,2448.779731299961,None,2448.779731299961,None,2450.2427321998402,None,2450.2427321998402,None,2450.2427321998402,None,2450.2427321998402,None,2450.2427321998402,None,2450.2427321998402,None,2450.2427321998402,None,2450.2427321998402,None,2450.2427321998402,None,61,28,72,63,72,45,2452.766394799808,None,4.0,0.3685035998933017,2452.766394799808,None,2452.766394799808,None,2452.766394799808,None,2452.766394799808,None,None,None,2453.1491978999693,None,,,,,,,119,f,1,2022_Dec_11_1658,RL,2021.2.3,59.94010783479166,
1,88,0,88,0,,,,,,,,,,,,,,,None,None,None,None,None,2454.8037455999292,None,2454.8037455999292,None,2454.8037455999292,None,2454.8037455999292,None,i,0.20772549998946488,2454.8037455999292,None,2454.8037455999292,None,2455.0631375999656,None,2455.0631375999656,None,2455.0631375999656,None,2455.0631375999656,None,2455.0631375999656,None,2455.0631375999656,None,2455.3509232997894,None,2455.3509232997894,None,2457.2487158000004,None,2457.2487158000004,None,2457.2487158000004,None,2457.2487158000004,None,2457.2487158000004,None,2457.2487158000004,None,2457.2487158000004,None,2457.2487158000004,None,2457.2487158000004,None,58,30,69,66,69,48,2459.7712394997943,None,3.0,0.6369378999806941,2459.7712394997943,None,2459.7712394997943,None,2459.7712394997943,None,2459.7712394997943,None,None,None,2460.4287975998595,None,,,,,,,119,f,1,2022_Dec_11_1658,RL,2021.2.3,59.94010783479166,
1,89,0,89,0,,,,,,,,,,,,,,,None,None,None,None,None,2462.375253399834,None,2462.375253399834,None,2462.375253399834,None,2462.375253399834,None,i,0.2763965998310596,2462.375253399834,None,2462.375253399834,None,2462.693536599865,None,2462.693536599865,None,2462.693536599865,None,2462.693536599865,None,2462.693536599865,None,2462.693536599865,None,2462.9896757998504,2464.0569448999595,2462.9896757998504,2464.0569448999595,2464.088804199826,None,2464.088804199826,None,2464.088804199826,None,2464.088804199826,None,2464.088804199826,None,2464.088804199826,None,2464.088804199826,None,2464.088804199826,None,2464.088804199826,None,46,32,64,64,64,37,2466.6022782998625,None,2.0,0.673763700062409,2466.6022782998625,None,2466.6022782998625,None,2466.6022782998625,None,2466.6022782998625,None,None,None,2467.2922464997973,None,,,,,,,119,f,1,2022_Dec_11_1658,RL,2021.2.3,59.94010783479166,
1,90,0,90,0,,,,,,,,,,,,,,,None,None,None,None,None,2469.163613999961,None,2469.163613999961,None,2469.163613999961,None,2469.163613999961,None,i,0.2480830999556929,2469.163613999961,None,2469.163613999961,None,2469.4508483998943,None,2469.4508483998943,None,2469.4508483998943,None,2469.4508483998943,None,2469.4508483998943,None,2469.4508483998943,None,2469.744314200012,None,2469.744314200012,None,2471.266074599931,None,2471.266074599931,None,2471.266074599931,None,2471.266074599931,None,2471.266074599931,None,2471.266074599931,None,2471.266074599931,None,2471.266074599931,None,2471.266074599931,None,45,33,61,63,61,39,2473.776585499989,None,2.0,0.30418679979629815,2473.776585499989,None,2473.776585499989,None,2473.776585499989,None,2473.776585499989,None,None,None,2474.1061644,None,,,,,,,119,f,1,2022_Dec_11_1658,RL,2021.2.3,59.94010783479166,
1,91,0,91,0,,,,,,,,,,,,,,,None,None,None,None,None,2475.999086299911,None,2475.999086299911,None,2475.999086299911,None,2475.999086299911,None,i,0.2627286999486387,2475.999086299911,None,2475.999086299911,None,2476.310547999805,None,2476.310547999805,None,2476.310547999805,None,2476.310547999805,None,2476.310547999805,None,2476.310547999805,None,2476.5990344998427,2478.500401899917,2476.5990344998427,2478.500401899917,2478.5312234999146,None,2478.5312234999146,None,2478.5312234999146,None,2478.5312234999146,None,2478.5312234999146,None,2478.5312234999146,None,2478.5312234999146,None,2478.5312234999146,None,2478.5312234999146,None,49,42,70,57,70,40,2481.0529902998824,None,3.0,0.3653584998100996,2481.0529902998824,None,2481.0529902998824,None,2481.0529902998824,None,2481.0529902998824,None,None,None,2481.4433680998627,None,,,,,,,119,f,1,2022_Dec_11_1658,RL,2021.2.3,59.94010783479166,
1,92,0,92,0,,,,,,,,,,,,,,,None,None,None,None,None,2483.323307399871,None,2483.323307399871,None,2483.323307399871,None,2483.323307399871,None,i,0.2789483000524342,2483.323307399871,None,2483.323307399871,None,2483.647568799788,None,2483.647568799788,None,2483.647568799788,None,2483.647568799788,None,2483.647568799788,None,2483.647568799788,None,2483.937477899948,2485.60522999987,2483.937477899948,2485.60522999987,2485.6432651998475,None,2485.6432651998475,None,2485.6432651998475,None,2485.6432651998475,None,2485.6432651998475,None,2485.6432651998475,None,2485.6432651998475,None,2485.6432651998475,None,2485.6432651998475,None,49,40,58,56,58,41,2488.1590592998546,None,1.0,0.333313699811697,2488.1590592998546,None,2488.1590592998546,None,2488.1590592998546,None,2488.1590592998546,None,None,None,2488.5070069998037,None,,,,,,,119,f,1,2022_Dec_11_1658,RL,2021.2.3,59.94010783479166,
1,93,0,93,0,,,,,,,,,,,,,,,None,None,None,None,None,2490.495316099841,None,2490.495316099841,None,2490.495316099841,None,2490.495316099841,None,i,0.26650240016169846,2490.495316099841,None,2490.495316099841,None,2490.8147924998775,None,2490.8147924998775,None,2490.8147924998775,None,2490.8147924998775,None,2490.8147924998775,None,2490.8147924998775,None,2491.109212299809,None,2491.109212299809,None,2492.0877016999293,None,2492.0877016999293,None,2492.0877016999293,None,2492.0877016999293,None,2492.0877016999293,None,2492.0877016999293,None,2492.0877016999293,None,2492.0877016999293,None,2492.0877016999293,None,57,37,61,57,61,46,2494.61220209999,None,2.0,0.3157338001765311,2494.61220209999,None,2494.61220209999,None,2494.61220209999,None,2494.61220209999,None,None,None,2494.944751799805,None,,,,,,,119,f,1,2022_Dec_11_1658,RL,2021.2.3,59.94010783479166,
1,94,0,94,0,,,,,,,,,,,,,,,None,None,None,None,None,2496.6995602999814,None,2496.6995602999814,None,2496.6995602999814,None,2496.6995602999814,None,i,0.3122431000228971,2496.6995602999814,None,2496.6995602999814,None,2497.051559999818,None,2497.051559999818,None,2497.051559999818,None,2497.051559999818,None,2497.051559999818,None,2497.051559999818,None,2497.3466982999817,None,2497.3466982999817,None,2498.56063169986,None,2498.56063169986,None,2498.56063169986,None,2498.56063169986,None,2498.56063169986,None,2498.56063169986,None,2498.56063169986,None,2498.56063169986,None,2498.56063169986,None,56,35,75,59,75,47,2501.0787537998985,None,3.0,0.6209892998449504,2501.0787537998985,None,2501.0787537998985,None,2501.0787537998985,None,2501.0787537998985,None,None,None,2501.715900299838,None,,,,,,,119,f,1,2022_Dec_11_1658,RL,2021.2.3,59.94010783479166,
1,95,0,95,0,,,,,,,,,,,,,,,None,None,None,None,None,2503.2540145998355,None,2503.2540145998355,None,2503.2540145998355,None,2503.2540145998355,None,i,0.2678102001082152,2503.2540145998355,None,2503.2540145998355,None,2503.5736717998516,None,2503.5736717998516,None,2503.5736717998516,None,2503.5736717998516,None,2503.5736717998516,None,2503.5736717998516,None,2503.8679984000046,None,2503.8679984000046,None,2504.768326899968,None,2504.768326899968,None,2504.768326899968,None,2504.768326899968,None,2504.768326899968,None,2504.768326899968,None,2504.768326899968,None,2504.768326899968,None,2504.768326899968,None,56,41,67,61,67,48,2507.2831013000105,None,2.0,0.47388299996964633,2507.2831013000105,None,2507.2831013000105,None,2507.2831013000105,None,2507.2831013000105,None,None,None,2507.778269900009,None,,,,,,,119,f,1,2022_Dec_11_1658,RL,2021.2.3,59.94010783479166,
1,96,0,96,0,,,,,,,,,,,,,,,None,None,None,None,None,2509.4590781999286,None,2509.4590781999286,None,2509.4590781999286,None,2509.4590781999286,None,i,0.2029109001159668,2509.4590781999286,None,2509.4590781999286,None,2509.7201038999483,None,2509.7201038999483,None,2509.7201038999483,None,2509.7201038999483,None,2509.7201038999483,None,2509.7201038999483,None,2510.00567159988,2511.623246899806,2510.00567159988,2511.623246899806,2511.6542619999964,None,2511.6542619999964,None,2511.6542619999964,None,2511.6542619999964,None,2511.6542619999964,None,2511.6542619999964,None,2511.6542619999964,None,2511.6542619999964,None,2511.6542619999964,None,51,30,70,61,70,56,2514.169786399929,None,3.0,0.572985699865967,2514.169786399929,None,2514.169786399929,None,2514.169786399929,None,2514.169786399929,None,None,None,2514.767729899846,None,,,,,,,119,f,1,2022_Dec_11_1658,RL,2021.2.3,59.94010783479166,
1,97,0,97,0,,,,,,,,,,,,,,,None,None,None,None,None,2516.4131901999936,None,2516.4131901999936,None,2516.4131901999936,None,2516.4131901999936,None,i,0.2988249999471009,2516.4131901999936,None,2516.4131901999936,None,2516.749316699803,None,2516.749316699803,None,2516.749316699803,None,2516.749316699803,None,2516.749316699803,None,2516.749316699803,None,2517.0437529999763,None,2517.0437529999763,None,2518.1795428998303,None,2518.1795428998303,None,2518.1795428998303,None,2518.1795428998303,None,2518.1795428998303,None,2518.1795428998303,None,2518.1795428998303,None,2518.1795428998303,None,2518.1795428998303,None,50,30,75,57,75,34,2520.6903665999416,None,4.0,0.9724141999613494,2520.6903665999416,None,2520.6903665999416,None,2520.6903665999416,None,2520.6903665999416,None,None,None,2521.688083499903,None,,,,,,,119,f,1,2022_Dec_11_1658,RL,2021.2.3,59.94010783479166,
1,98,0,98,0,,,,,,,,,,,,,,,None,None,None,None,None,2523.617824099958,None,2523.617824099958,None,2523.617824099958,None,2523.617824099958,None,i,0.21432989998720586,2523.617824099958,None,2523.617824099958,None,2523.875309099909,None,2523.875309099909,None,2523.875309099909,None,2523.875309099909,None,2523.875309099909,None,2523.875309099909,None,2524.1654358999804,None,2524.1654358999804,None,2525.714718399802,None,2525.714718399802,None,2525.714718399802,None,2525.714718399802,None,2525.714718399802,None,2525.714718399802,None,2525.714718399802,None,2525.714718399802,None,2525.714718399802,None,52,37,77,53,77,67,2528.2321969999466,None,4.0,0.4709675000049174,2528.2321969999466,None,2528.2321969999466,None,2528.2321969999466,None,2528.2321969999466,None,None,None,2528.7182604998816,None,,,,,,,119,f,1,2022_Dec_11_1658,RL,2021.2.3,59.94010783479166,
1,99,0,99,0,,,,,,,,,,,,,,,None,None,None,None,None,2530.5391454999335,None,2530.5391454999335,None,2530.5391454999335,None,2530.5391454999335,None,i,0.2527520000003278,2530.5391454999335,None,2530.5391454999335,None,2530.843550699996,None,2530.843550699996,None,2530.843550699996,None,2530.843550699996,None,2530.843550699996,None,2530.843550699996,None,2531.1368846998084,None,2531.1368846998084,None,2532.6195321998093,None,2532.6195321998093,None,2532.6195321998093,None,2532.6195321998093,None,2532.6195321998093,None,2532.6195321998093,None,2532.6195321998093,None,2532.6195321998093,None,2532.6195321998093,None,52,26,81,54,81,60,2535.135496099945,None,5.0,0.5378368000965565,2535.135496099945,None,2535.135496099945,None,2535.135496099945,None,2535.135496099945,None,None,None,2535.6894322999287,None,,,,,,,119,f,1,2022_Dec_11_1658,RL,2021.2.3,59.94010783479166,
1,100,0,100,0,,,,,,,,,,,,,,,None,None,None,None,None,2537.377546499949,None,2537.377546499949,None,2537.377546499949,None,2537.377546499949,None,i,0.30452860007062554,2537.377546499949,None,2537.377546499949,None,2537.7303491998464,None,2537.7303491998464,None,2537.7303491998464,None,2537.7303491998464,None,2537.7303491998464,None,2537.7303491998464,None,2538.024959999835,None,2538.024959999835,None,2540.023453200003,None,2540.023453200003,None,2540.023453200003,None,2540.023453200003,None,2540.023453200003,None,2540.023453200003,None,2540.023453200003,None,2540.023453200003,None,2540.023453200003,None,53,21,86,51,86,59,2542.541204399895,None,5.0,0.4524548000190407,2542.541204399895,None,2542.541204399895,None,2542.541204399895,None,2542.541204399895,None,None,None,2543.011871899944,None,,,,,,,119,f,1,2022_Dec_11_1658,RL,2021.2.3,59.94010783479166,
1,101,0,101,0,,,,,,,,,,,,,,,None,None,None,None,None,2545.016007900005,None,2545.016007900005,None,2545.016007900005,None,2545.016007900005,None,i,0.2762323999777436,2545.016007900005,None,2545.016007900005,None,2545.333306599874,None,2545.333306599874,None,2545.333306599874,None,2545.333306599874,None,2545.333306599874,None,2545.333306599874,None,2545.6302734999917,2546.5307202998083,2545.6302734999917,2546.5307202998083,2546.5626481999643,None,2546.5626481999643,None,2546.5626481999643,None,2546.5626481999643,None,2546.5626481999643,None,2546.5626481999643,None,2546.5626481999643,None,2546.5626481999643,None,2546.5626481999643,None,51,27,81,47,81,34,2549.079423899995,None,5.0,0.45450269989669323,2549.079423899995,None,2549.079423899995,None,2549.079423899995,None,2549.079423899995,None,None,None,2549.5540864998475,None,,,,,,,119,f,1,2022_Dec_11_1658,RL,2021.2.3,59.94010783479166,
1,102,0,102,0,,,,,,,,,,,,,,,None,None,None,None,None,2551.354617499979,None,2551.354617499979,None,2551.354617499979,None,2551.354617499979,None,i,0.2275243999902159,2551.354617499979,None,2551.354617499979,None,2551.6222302999813,None,2551.6222302999813,None,2551.6222302999813,None,2551.6222302999813,None,2551.6222302999813,None,2551.6222302999813,None,2551.9179316998925,None,2551.9179316998925,None,2553.499804099789,None,2553.499804099789,None,2553.499804099789,None,2553.499804099789,None,2553.499804099789,None,2553.499804099789,None,2553.499804099789,None,2553.499804099789,None,2553.499804099789,None,50,17,73,51,73,49,2556.0164098998066,None,4.0,0.4724801001138985,2556.0164098998066,None,2556.0164098998066,None,2556.0164098998066,None,2556.0164098998066,None,None,None,2556.503907599952,None,,,,,,,119,f,1,2022_Dec_11_1658,RL,2021.2.3,59.94010783479166,
1,103,0,103,0,,,,,,,,,,,,,,,None,None,None,None,None,2558.0921173999086,None,2558.0921173999086,None,2558.0921173999086,None,2558.0921173999086,None,i,0.2400835999287665,2558.0921173999086,None,2558.0921173999086,None,2558.379218299873,None,2558.379218299873,None,2558.379218299873,None,2558.379218299873,None,2558.379218299873,None,2558.379218299873,None,2558.6564364999067,2560.5407510998193,2558.6564364999067,2560.5407510998193,2560.572427399922,None,2560.572427399922,None,2560.572427399922,None,2560.572427399922,None,2560.572427399922,None,2560.572427399922,None,2560.572427399922,None,2560.572427399922,None,2560.572427399922,None,33,21,79,46,79,48,2563.088024399942,None,4.0,0.33635499980300665,2563.088024399942,None,2563.088024399942,None,2563.088024399942,None,2563.088024399942,None,None,None,2563.4423228998203,None,,,,,,,119,f,1,2022_Dec_11_1658,RL,2021.2.3,59.94010783479166,
1,104,0,104,0,,,,,,,,,,,,,,,None,None,None,None,None,2565.1297775998246,None,2565.1297775998246,None,2565.1297775998246,None,2565.1297775998246,None,i,0.2825851000379771,2565.1297775998246,None,2565.1297775998246,None,2565.464799999958,None,2565.464799999958,None,2565.464799999958,None,2565.464799999958,None,2565.464799999958,None,2565.464799999958,None,2565.7609900999814,None,2565.7609900999814,None,2567.2573508999776,None,2567.2573508999776,None,2567.2573508999776,None,2567.2573508999776,None,2567.2573508999776,None,2567.2573508999776,None,2567.2573508999776,None,2567.2573508999776,None,2567.2573508999776,None,52,24,77,45,77,44,2569.776749999961,None,4.0,0.35493070003576577,2569.776749999961,None,2569.776749999961,None,2569.776749999961,None,2569.776749999961,None,None,None,2570.14664429985,None,,,,,,,119,f,1,2022_Dec_11_1658,RL,2021.2.3,59.94010783479166,
1,105,0,105,0,,,,,,,,,,,,,,,None,None,None,None,None,2572.067777299788,None,2572.067777299788,None,2572.067777299788,None,2572.067777299788,None,i,0.27464339998550713,2572.067777299788,None,2572.067777299788,None,2572.387930799974,None,2572.387930799974,None,2572.387930799974,None,2572.387930799974,None,2572.387930799974,None,2572.387930799974,None,2572.682362199994,2573.95001959987,2572.682362199994,2573.95001959987,2573.981267799856,None,2573.981267799856,None,2573.981267799856,None,2573.981267799856,None,2573.981267799856,None,2573.981267799856,None,2573.981267799856,None,2573.981267799856,None,2573.981267799856,None,42,30,81,45,81,48,2576.4976588999853,None,5.0,0.45587929990142584,2576.4976588999853,None,2576.4976588999853,None,2576.4976588999853,None,2576.4976588999853,None,None,None,2576.9680315000005,None,,,,,,,119,f,1,2022_Dec_11_1658,RL,2021.2.3,59.94010783479166,
1,106,0,106,0,,,,,,,,,,,,,,,None,None,None,None,None,2578.905641199788,None,2578.905641199788,None,2578.905641199788,None,2578.905641199788,None,i,0.19713110011070967,2578.905641199788,None,2578.905641199788,None,2579.140572599834,None,2579.140572599834,None,2579.140572599834,None,2579.140572599834,None,2579.140572599834,None,2579.140572599834,None,2579.4371269999538,None,2579.4371269999538,None,2580.5007040000055,None,2580.5007040000055,None,2580.5007040000055,None,2580.5007040000055,None,2580.5007040000055,None,2580.5007040000055,None,2580.5007040000055,None,2580.5007040000055,None,2580.5007040000055,None,46,29,76,51,76,45,2583.0200635998044,None,4.0,0.5544082000851631,2583.0200635998044,None,2583.0200635998044,None,2583.0200635998044,None,2583.0200635998044,None,None,None,2583.589527199976,None,,,,,,,119,f,1,2022_Dec_11_1658,RL,2021.2.3,59.94010783479166,
1,107,0,107,0,,,,,,,,,,,,,,,None,None,None,None,None,2585.4942283998244,None,2585.4942283998244,None,2585.4942283998244,None,2585.4942283998244,None,i,0.2582037001848221,2585.4942283998244,None,2585.4942283998244,None,2585.797414699802,None,2585.797414699802,None,2585.797414699802,None,2585.797414699802,None,2585.797414699802,None,2585.797414699802,None,2586.0915859998204,2587.6092416998,2586.0915859998204,2587.6092416998,2587.6415503998287,None,2587.6415503998287,None,2587.6415503998287,None,2587.6415503998287,None,2587.6415503998287,None,2587.6415503998287,None,2587.6415503998287,None,2587.6415503998287,None,2587.6415503998287,None,46,35,83,47,83,49,2590.1595962999854,None,5.0,0.6043169999029487,2590.1595962999854,None,2590.1595962999854,None,2590.1595962999854,None,2590.1595962999854,None,None,None,2590.7776848999783,None,,,,,,,119,f,1,2022_Dec_11_1658,RL,2021.2.3,59.94010783479166,
1,108,0,108,0,,,,,,,,,,,,,,,None,None,None,None,None,2592.579080199823,None,2592.579080199823,None,2592.579080199823,None,2592.579080199823,None,i,0.24335349979810417,2592.579080199823,None,2592.579080199823,None,2592.867535499856,None,2592.867535499856,None,2592.867535499856,None,2592.867535499856,None,2592.867535499856,None,2592.867535499856,None,2593.163138099946,None,2593.163138099946,None,2594.959264599951,None,2594.959264599951,None,2594.959264599951,None,2594.959264599951,None,2594.959264599951,None,2594.959264599951,None,2594.959264599951,None,2594.959264599951,None,2594.959264599951,None,44,34,85,47,85,48,2597.479607200017,None,5.0,0.3547743000090122,2597.479607200017,None,2597.479607200017,None,2597.479607200017,None,2597.479607200017,None,None,None,2597.849193400005,None,,,,,,,119,f,1,2022_Dec_11_1658,RL,2021.2.3,59.94010783479166,
1,109,0,109,0,,,,,,,,,,,,,,,None,None,None,None,None,2599.6372530998196,None,2599.6372530998196,None,2599.6372530998196,None,2599.6372530998196,None,i,0.25534950010478497,2599.6372530998196,None,2599.6372530998196,None,2599.9381324998103,None,2599.9381324998103,None,2599.9381324998103,None,2599.9381324998103,None,2599.9381324998103,None,2599.9381324998103,None,2600.234775000019,2601.685552999843,2600.234775000019,2601.685552999843,2601.72332429979,None,2601.72332429979,None,2601.72332429979,None,2601.72332429979,None,2601.72332429979,None,2601.72332429979,None,2601.72332429979,None,2601.72332429979,None,2601.72332429979,None,44,42,81,52,81,30,2604.233938699821,None,4.0,0.6224686000496149,2604.233938699821,None,2604.233938699821,None,2604.233938699821,None,2604.233938699821,None,None,None,2604.877251399914,None,,,,,,,119,f,1,2022_Dec_11_1658,RL,2021.2.3,59.94010783479166,
