bandit,trials.thisRepN,trials.thisTrialN,trials.thisN,trials.thisIndex,instru_img1.started,instru_resp.started,instru_resp.keys,instru_resp.rt,instru_img2.started,instru_resp2.started,instru_resp2.keys,instru_resp2.rt,fixbefore_2.started,rest_response.keys,red.started,green.started,yellow.started,blue.started,choose_bandit.started,Fixation.started,choose_bandit.keys,choose_bandit.rt,black.started,red_2.started,green_2.started,yellow_2.started,blue_2.started,fixation_2.started,docs.started,image_2.started,docs.stopped,image_2.stopped,black.stopped,red_2.stopped,green_2.stopped,yellow_2.stopped,blue_2.stopped,fixation_2.stopped,black_com.started,reward_sub.started,palyerb.started,reward__sub.started,compare.started,red_compare.started,green_com.started,yellow_com.started,blue_com.started,image_3.started,slider.started,text.started,image_4.started,image_5.started,rewardyellow,rewardred,rewardblue,rewardgreen,subchoose,playerb,slider.response,slider.rt,intertrialfix.started,intertrialfix.stopped,rest_image.started,rest_response.started,rest_response.rt,image.started,key_resp.started,key_resp.keys,participant,Gender,Age,date,expName,psychopyVersion,frameRate,
,,,,,1672.9445218998007,1672.9445218998007,space,62.453907900024205,,,,,,,,,,,,,,,,,,,,,,,,,,,,,,,,,,,,,,,,,,,,,,,,,,,,,,,,,,,,,120,f,1,2022-12-11_16h58.20.291,RL,2022.2.4,60.2567903852046,
,,,,,,,,,1735.4327548998408,1735.4327548998408,space,56.80974259972572,,,,,,,,,,,,,,,,,,,,,,,,,,,,,,,,,,,,,,,,,,,,,,,,,,,,,,,,,120,f,1,2022-12-11_16h58.20.291,RL,2022.2.4,60.2567903852046,
1,0,0,0,0,,,,,,,,,1792.2703283997253,None,1793.2853490998968,1793.2853490998968,1793.2853490998968,1793.2853490998968,1793.2853490998968,1793.2853490998968,j,0.48054319992661476,1793.8582755997777,1793.8582755997777,1793.8582755997777,1793.8582755997777,1793.8582755997777,1793.8582755997777,1794.0995797999203,1794.0995797999203,1795.5456274999306,1795.5456274999306,1795.6028450001031,1795.6028450001031,1795.6028450001031,1795.6028450001031,1795.6028450001031,1795.6028450001031,1795.6028450001031,1795.6028450001031,1795.6028450001031,1795.6028450001031,1795.6028450001031,1795.6028450001031,1795.6028450001031,1795.6028450001031,1795.6028450001031,1798.1047422001138,1798.1047422001138,1798.1047422001138,1798.1047422001138,1798.1047422001138,60,61,51,31,31,46,4.0,2.3587829996831715,1800.5456771999598,1802.243741999846,,,,,,,120,f,1,2022-12-11_16h58.20.291,RL,2022.2.4,60.2567903852046,
1,1,0,1,0,,,,,,,,,,None,1802.243741999846,1802.243741999846,1802.243741999846,1802.243741999846,1802.243741999846,1802.243741999846,r,0.8386876001022756,1803.1117651998065,1803.1117651998065,1803.1117651998065,1803.1117651998065,1803.1117651998065,1803.1117651998065,1803.4077630997635,1803.4077630997635,1804.6706779999658,1804.6706779999658,1804.6706779999658,1804.6706779999658,1804.6706779999658,1804.6706779999658,1804.6706779999658,1804.6706779999658,1804.6706779999658,1804.6706779999658,1804.6706779999658,1804.6706779999658,1804.6706779999658,1804.6706779999658,1804.6706779999658,1804.6706779999658,1804.6706779999658,1807.1799869998358,1807.1799869998358,1807.1799869998358,1807.1799869998358,1807.1799869998358,66,72,46,32,66,34,5.0,1.6783384000882506,1808.874953799881,1810.5544112999924,,,,,,,120,f,1,2022-12-11_16h58.20.291,RL,2022.2.4,60.2567903852046,
1,2,0,2,0,,,,,,,,,,None,1810.5544112999924,1810.5544112999924,1810.5544112999924,1810.5544112999924,1810.5544112999924,1810.5544112999924,i,0.5676345000974834,1811.1558292000555,1811.1558292000555,1811.1558292000555,1811.1558292000555,1811.1558292000555,1811.1558292000555,1811.452371600084,1811.452371600084,1813.263850599993,1813.263850599993,1813.2804860998876,1813.2804860998876,1813.2804860998876,1813.2804860998876,1813.2804860998876,1813.2804860998876,1813.2804860998876,1813.2804860998876,1813.2804860998876,1813.2804860998876,1813.2804860998876,1813.2804860998876,1813.2804860998876,1813.2804860998876,1813.2804860998876,1815.789641099982,1815.789641099982,1815.789641099982,1815.789641099982,1815.789641099982,64,71,45,39,45,54,6.0,1.395410900004208,1817.2023750999942,1819.014778799843,,,,,,,120,f,1,2022-12-11_16h58.20.291,RL,2022.2.4,60.2567903852046,
1,3,0,3,0,,,,,,,,,,None,1819.014778799843,1819.014778799843,1819.014778799843,1819.014778799843,1819.014778799843,1819.014778799843,r,0.7477970998734236,1819.798968099989,1819.798968099989,1819.798968099989,1819.798968099989,1819.798968099989,1819.798968099989,1820.0952741000801,1820.0952741000801,1821.507775099948,1821.507775099948,1821.507775099948,1821.507775099948,1821.507775099948,1821.507775099948,1821.507775099948,1821.507775099948,1821.507775099948,1821.507775099948,1821.507775099948,1821.507775099948,1821.507775099948,1821.507775099948,1821.507775099948,1821.507775099948,1821.507775099948,1824.0172021999024,1824.0172021999024,1824.0172021999024,1824.0172021999024,1824.0172021999024,56,84,40,30,56,41,4.0,2.0260795997455716,1826.061257299967,1827.8405945999548,,,,,,,120,f,1,2022-12-11_16h58.20.291,RL,2022.2.4,60.2567903852046,
1,4,0,4,0,,,,,,,,,,None,1827.8405945999548,1827.8405945999548,1827.8405945999548,1827.8405945999548,1827.8405945999548,1827.8405945999548,r,0.42806070018559694,1828.292098700069,1828.292098700069,1828.292098700069,1828.292098700069,1828.292098700069,1828.292098700069,1828.5884317001328,1828.5884317001328,1830.3006003000773,1830.3006003000773,1830.3006003000773,1830.3006003000773,1830.3006003000773,1830.3006003000773,1830.3006003000773,1830.3006003000773,1830.3006003000773,1830.3006003000773,1830.3006003000773,1830.3006003000773,1830.3006003000773,1830.3006003000773,1830.3006003000773,1830.3006003000773,1830.3006003000773,1832.8097636001185,1832.8097636001185,1832.8097636001185,1832.8097636001185,1832.8097636001185,58,82,37,41,58,44,5.0,1.9772038999944925,1834.8045990997925,1836.3672186001204,,,,,,,120,f,1,2022-12-11_16h58.20.291,RL,2022.2.4,60.2567903852046,
1,5,0,5,0,,,,,,,,,,None,1836.3672186001204,1836.3672186001204,1836.3672186001204,1836.3672186001204,1836.3672186001204,1836.3672186001204,r,0.6829824000597,1837.0840318999253,1837.0840318999253,1837.0840318999253,1837.0840318999253,1837.0840318999253,1837.0840318999253,1837.3816741998307,1837.3816741998307,1839.325665500015,1839.325665500015,1839.325665500015,1839.325665500015,1839.325665500015,1839.325665500015,1839.325665500015,1839.325665500015,1839.325665500015,1839.325665500015,1839.325665500015,1839.325665500015,1839.325665500015,1839.325665500015,1839.325665500015,1839.325665500015,1839.325665500015,1841.8351529999636,1841.8351529999636,1841.8351529999636,1841.8351529999636,1841.8351529999636,59,80,39,38,59,66,4.0,2.526282500009984,1844.3778813998215,1846.356983100064,,,,,,,120,f,1,2022-12-11_16h58.20.291,RL,2022.2.4,60.2567903852046,
1,6,0,6,0,,,,,,,,,,None,1846.356983100064,1846.356983100064,1846.356983100064,1846.356983100064,1846.356983100064,1846.356983100064,r,0.4971970999613404,1846.8746925997548,1846.8746925997548,1846.8746925997548,1846.8746925997548,1846.8746925997548,1846.8746925997548,1847.1712294998579,1847.1712294998579,1848.8844881998375,1848.8844881998375,1848.8844881998375,1848.8844881998375,1848.8844881998375,1848.8844881998375,1848.8844881998375,1848.8844881998375,1848.8844881998375,1848.8844881998375,1848.8844881998375,1848.8844881998375,1848.8844881998375,1848.8844881998375,1848.8844881998375,1848.8844881998375,1848.8844881998375,1851.3925140998326,1851.3925140998326,1851.3925140998326,1851.3925140998326,1851.3925140998326,65,73,31,39,65,70,4.0,2.409483800176531,1853.819089199882,1855.5315848998725,,,,,,,120,f,1,2022-12-11_16h58.20.291,RL,2022.2.4,60.2567903852046,
1,7,0,7,0,,,,,,,,,,None,1855.5315848998725,1855.5315848998725,1855.5315848998725,1855.5315848998725,1855.5315848998725,1855.5315848998725,r,0.39822519989684224,1855.9491805997677,1855.9491805997677,1855.9491805997677,1855.9491805997677,1855.9491805997677,1855.9491805997677,1856.2468464998528,1856.2468464998528,1857.559532099869,1857.559532099869,1857.559532099869,1857.559532099869,1857.559532099869,1857.559532099869,1857.559532099869,1857.559532099869,1857.559532099869,1857.559532099869,1857.559532099869,1857.559532099869,1857.559532099869,1857.559532099869,1857.559532099869,1857.559532099869,1857.559532099869,1860.0686459001154,1860.0686459001154,1860.0686459001154,1860.0686459001154,1860.0686459001154,56,73,32,25,56,64,5.0,1.7113723000511527,1861.7970606000163,1863.4764414001256,,,,,,,120,f,1,2022-12-11_16h58.20.291,RL,2022.2.4,60.2567903852046,
1,8,0,8,0,,,,,,,,,,None,1863.4764414001256,1863.4764414001256,1863.4764414001256,1863.4764414001256,1863.4764414001256,1863.4764414001256,f,0.5945795001462102,1864.0954196997918,1864.0954196997918,1864.0954196997918,1864.0954196997918,1864.0954196997918,1864.0954196997918,1864.3910205001011,1864.3910205001011,1865.5875571998768,1865.5875571998768,1865.5875571998768,1865.5875571998768,1865.5875571998768,1865.5875571998768,1865.5875571998768,1865.5875571998768,1865.5875571998768,1865.5875571998768,1865.5875571998768,1865.5875571998768,1865.5875571998768,1865.5875571998768,1865.5875571998768,1865.5875571998768,1865.5875571998768,1868.0968804000877,1868.0968804000877,1868.0968804000877,1868.0968804000877,1868.0968804000877,46,66,29,31,66,61,4.0,3.02512210002169,1871.1386347999796,1872.6850288999267,,,,,,,120,f,1,2022-12-11_16h58.20.291,RL,2022.2.4,60.2567903852046,
1,9,0,9,0,,,,,,,,,,None,1872.6850288999267,1872.6850288999267,1872.6850288999267,1872.6850288999267,1872.6850288999267,1872.6850288999267,f,0.4810664998367429,1873.1888501001522,1873.1888501001522,1873.1888501001522,1873.1888501001522,1873.1888501001522,1873.1888501001522,1873.4826541999355,1873.4826541999355,1875.1282680998556,1875.1282680998556,1875.1451512998901,1875.1451512998901,1875.1451512998901,1875.1451512998901,1875.1451512998901,1875.1451512998901,1875.1451512998901,1875.1451512998901,1875.1451512998901,1875.1451512998901,1875.1451512998901,1875.1451512998901,1875.1451512998901,1875.1451512998901,1875.1451512998901,1877.6541903000325,1877.6541903000325,1877.6541903000325,1877.6541903000325,1877.6541903000325,50,66,33,29,66,61,4.0,0.8631424997001886,1878.5349230999127,1880.0815014000982,,,,,,,120,f,1,2022-12-11_16h58.20.291,RL,2022.2.4,60.2567903852046,
1,10,0,10,0,,,,,,,,,,None,1880.0815014000982,1880.0815014000982,1880.0815014000982,1880.0815014000982,1880.0815014000982,1880.0815014000982,f,0.35078709991648793,1880.465522899758,1880.465522899758,1880.465522899758,1880.465522899758,1880.465522899758,1880.465522899758,1880.7632490997203,1880.7632490997203,1881.676998599898,1881.676998599898,1881.676998599898,1881.676998599898,1881.676998599898,1881.676998599898,1881.676998599898,1881.676998599898,1881.676998599898,1881.676998599898,1881.676998599898,1881.676998599898,1881.676998599898,1881.676998599898,1881.676998599898,1881.676998599898,1881.676998599898,1884.1867244001478,1884.1867244001478,1884.1867244001478,1884.1867244001478,1884.1867244001478,56,67,30,34,67,62,5.0,1.5282438998110592,1885.7319542998448,1887.710558900144,,,,,,,120,f,1,2022-12-11_16h58.20.291,RL,2022.2.4,60.2567903852046,
1,11,0,11,0,,,,,,,,,,None,1887.710558900144,1887.710558900144,1887.710558900144,1887.710558900144,1887.710558900144,1887.710558900144,i,0.4184069000184536,1888.1610898999497,1888.1610898999497,1888.1610898999497,1888.1610898999497,1888.1610898999497,1888.1610898999497,1888.4586367998272,1888.4586367998272,1890.0542512997054,1890.0542512997054,1890.0542512997054,1890.0542512997054,1890.0542512997054,1890.0542512997054,1890.0542512997054,1890.0542512997054,1890.0542512997054,1890.0542512997054,1890.0542512997054,1890.0542512997054,1890.0542512997054,1890.0542512997054,1890.0542512997054,1890.0542512997054,1890.0542512997054,1892.5632019997574,1892.5632019997574,1892.5632019997574,1892.5632019997574,1892.5632019997574,54,74,31,34,31,31,6.0,1.8436587997712195,1894.4246780998074,1896.2704380997457,,,,,,,120,f,1,2022-12-11_16h58.20.291,RL,2022.2.4,60.2567903852046,
1,12,0,12,0,,,,,,,,,,None,1896.2704380997457,1896.2704380997457,1896.2704380997457,1896.2704380997457,1896.2704380997457,1896.2704380997457,j,0.46445260010659695,1896.755209799856,1896.755209799856,1896.755209799856,1896.755209799856,1896.755209799856,1896.755209799856,1897.0522472998127,1897.0522472998127,1897.8826959999278,1897.8826959999278,1897.8994601001032,1897.8994601001032,1897.8994601001032,1897.8994601001032,1897.8994601001032,1897.8994601001032,1897.8994601001032,1897.8994601001032,1897.8994601001032,1897.8994601001032,1897.8994601001032,1897.8994601001032,1897.8994601001032,1897.8994601001032,1897.8994601001032,1900.4088520999067,1900.4088520999067,1900.4088520999067,1900.4088520999067,1900.4088520999067,58,73,38,33,33,41,4.0,1.0632025999948382,1901.4890795997344,1903.1350056999363,,,,,,,120,f,1,2022-12-11_16h58.20.291,RL,2022.2.4,60.2567903852046,
1,13,0,13,0,,,,,,,,,,None,1903.1350056999363,1903.1350056999363,1903.1350056999363,1903.1350056999363,1903.1350056999363,1903.1350056999363,i,0.41295359982177615,1903.5726447999477,1903.5726447999477,1903.5726447999477,1903.5726447999477,1903.5726447999477,1903.5726447999477,1903.866916200146,1903.866916200146,1904.8974700998515,1904.8974700998515,1904.8974700998515,1904.8974700998515,1904.8974700998515,1904.8974700998515,1904.8974700998515,1904.8974700998515,1904.8974700998515,1904.8974700998515,1904.8974700998515,1904.8974700998515,1904.8974700998515,1904.8974700998515,1904.8974700998515,1904.8974700998515,1904.8974700998515,1907.4063503998332,1907.4063503998332,1907.4063503998332,1907.4063503998332,1907.4063503998332,58,71,38,38,38,67,5.0,2.1252641999162734,1909.5497836000286,1911.4622291997075,,,,,,,120,f,1,2022-12-11_16h58.20.291,RL,2022.2.4,60.2567903852046,
1,14,0,14,0,,,,,,,,,,None,1911.4622291997075,1911.4622291997075,1911.4622291997075,1911.4622291997075,1911.4622291997075,1911.4622291997075,f,0.3313945000991225,1911.8135799998417,1911.8135799998417,1911.8135799998417,1911.8135799998417,1911.8135799998417,1911.8135799998417,1912.1109667997807,1912.1109667997807,1913.6232114001177,1913.6232114001177,1913.6232114001177,1913.6232114001177,1913.6232114001177,1913.6232114001177,1913.6232114001177,1913.6232114001177,1913.6232114001177,1913.6232114001177,1913.6232114001177,1913.6232114001177,1913.6232114001177,1913.6232114001177,1913.6232114001177,1913.6232114001177,1913.6232114001177,1916.1326150000095,1916.1326150000095,1916.1326150000095,1916.1326150000095,1916.1326150000095,57,62,40,38,62,58,6.0,1.4623858002014458,1917.611883299891,1919.4238892998546,,,,,,,120,f,1,2022-12-11_16h58.20.291,RL,2022.2.4,60.2567903852046,
1,15,0,15,0,,,,,,,,,,None,1919.4238892998546,1919.4238892998546,1919.4238892998546,1919.4238892998546,1919.4238892998546,1919.4238892998546,r,0.3264076001942158,1919.774971100036,1919.774971100036,1919.774971100036,1919.774971100036,1919.774971100036,1919.774971100036,1920.0724527998827,1920.0724527998827,1921.2361392998137,1921.2361392998137,1921.2361392998137,1921.2361392998137,1921.2361392998137,1921.2361392998137,1921.2361392998137,1921.2361392998137,1921.2361392998137,1921.2361392998137,1921.2361392998137,1921.2361392998137,1921.2361392998137,1921.2361392998137,1921.2361392998137,1921.2361392998137,1921.2361392998137,1923.744793099817,1923.744793099817,1923.744793099817,1923.744793099817,1923.744793099817,54,66,53,40,54,57,3.0,0.9965679999440908,1924.7591075999662,1926.4716023998335,,,,,,,120,f,1,2022-12-11_16h58.20.291,RL,2022.2.4,60.2567903852046,
1,16,0,16,0,,,,,,,,,,None,1926.4716023998335,1926.4716023998335,1926.4716023998335,1926.4716023998335,1926.4716023998335,1926.4716023998335,f,0.3066962999291718,1926.808597699739,1926.808597699739,1926.808597699739,1926.808597699739,1926.808597699739,1926.808597699739,1927.1038965997286,1927.1038965997286,1928.2832880001515,1928.2832880001515,1928.2832880001515,1928.2832880001515,1928.2832880001515,1928.2832880001515,1928.2832880001515,1928.2832880001515,1928.2832880001515,1928.2832880001515,1928.2832880001515,1928.2832880001515,1928.2832880001515,1928.2832880001515,1928.2832880001515,1928.2832880001515,1928.2832880001515,1930.792263600044,1930.792263600044,1930.792263600044,1930.792263600044,1930.792263600044,60,72,49,36,72,62,5.0,1.1128076002933085,1931.9229713999666,1933.5687146000564,,,,,,,120,f,1,2022-12-11_16h58.20.291,RL,2022.2.4,60.2567903852046,
1,17,0,17,0,,,,,,,,,,None,1933.5687146000564,1933.5687146000564,1933.5687146000564,1933.5687146000564,1933.5687146000564,1933.5687146000564,j,0.3379143001511693,1933.936602700036,1933.936602700036,1933.936602700036,1933.936602700036,1933.936602700036,1933.936602700036,1934.2336883000098,1934.2336883000098,1935.1314644999802,1935.1314644999802,1935.1314644999802,1935.1314644999802,1935.1314644999802,1935.1314644999802,1935.1314644999802,1935.1314644999802,1935.1314644999802,1935.1314644999802,1935.1314644999802,1935.1314644999802,1935.1314644999802,1935.1314644999802,1935.1314644999802,1935.1314644999802,1935.1314644999802,1937.6404093001038,1937.6404093001038,1937.6404093001038,1937.6404093001038,1937.6404093001038,59,55,57,50,50,55,5.0,1.1290517002344131,1938.7871773000807,1940.4499399997294,,,,,,,120,f,1,2022-12-11_16h58.20.291,RL,2022.2.4,60.2567903852046,
1,18,0,18,0,,,,,,,,,,None,1940.4499399997294,1940.4499399997294,1940.4499399997294,1940.4499399997294,1940.4499399997294,1940.4499399997294,j,0.34410070022568107,1940.8180991001427,1940.8180991001427,1940.8180991001427,1940.8180991001427,1940.8180991001427,1940.8180991001427,1941.115393199958,1941.115393199958,1942.5443934998475,1942.5443934998475,1942.5443934998475,1942.5443934998475,1942.5443934998475,1942.5443934998475,1942.5443934998475,1942.5443934998475,1942.5443934998475,1942.5443934998475,1942.5443934998475,1942.5443934998475,1942.5443934998475,1942.5443934998475,1942.5443934998475,1942.5443934998475,1942.5443934998475,1945.0533304000273,1945.0533304000273,1945.0533304000273,1945.0533304000273,1945.0533304000273,63,62,48,50,50,55,5.0,1.2624531998299062,1946.3332039001398,1948.2453482998535,,,,,,,120,f,1,2022-12-11_16h58.20.291,RL,2022.2.4,60.2567903852046,
1,19,0,19,0,,,,,,,,,,None,1948.2453482998535,1948.2453482998535,1948.2453482998535,1948.2453482998535,1948.2453482998535,1948.2453482998535,f,0.25986830005422235,1948.5283075999469,1948.5283075999469,1948.5283075999469,1948.5283075999469,1948.5283075999469,1948.5283075999469,1948.8275663000531,1948.8275663000531,1949.9075478999875,1949.9075478999875,1949.9241788997315,1949.9241788997315,1949.9241788997315,1949.9241788997315,1949.9241788997315,1949.9241788997315,1949.9241788997315,1949.9241788997315,1949.9241788997315,1949.9241788997315,1949.9241788997315,1949.9241788997315,1949.9241788997315,1949.9241788997315,1949.9241788997315,1952.4332444998436,1952.4332444998436,1952.4332444998436,1952.4332444998436,1952.4332444998436,64,55,48,55,55,54,3.0,1.2125874999910593,1953.6631971001625,1955.5422588000074,,,,,,,120,f,1,2022-12-11_16h58.20.291,RL,2022.2.4,60.2567903852046,
1,20,0,20,0,,,,,,,,,,None,1955.5422588000074,1955.5422588000074,1955.5422588000074,1955.5422588000074,1955.5422588000074,1955.5422588000074,f,0.2604745998978615,1955.8291645999998,1955.8291645999998,1955.8291645999998,1955.8291645999998,1955.8291645999998,1955.8291645999998,1956.1240849001333,1956.1240849001333,1957.138235699851,1957.138235699851,1957.138235699851,1957.138235699851,1957.138235699851,1957.138235699851,1957.138235699851,1957.138235699851,1957.138235699851,1957.138235699851,1957.138235699851,1957.138235699851,1957.138235699851,1957.138235699851,1957.138235699851,1957.138235699851,1957.138235699851,1959.6468251999468,1959.6468251999468,1959.6468251999468,1959.6468251999468,1959.6468251999468,53,59,50,60,59,26,5.0,0.9959183000028133,1960.6607248997316,1962.6559660998173,,,,,,,120,f,1,2022-12-11_16h58.20.291,RL,2022.2.4,60.2567903852046,
1,21,0,21,0,,,,,,,,,,None,1962.6559660998173,1962.6559660998173,1962.6559660998173,1962.6559660998173,1962.6559660998173,1962.6559660998173,f,0.2650611996650696,1962.941070899833,1962.941070899833,1962.941070899833,1962.941070899833,1962.941070899833,1962.941070899833,1963.2379457000643,1963.2379457000643,1964.8335768999532,1964.8335768999532,1964.8335768999532,1964.8335768999532,1964.8335768999532,1964.8335768999532,1964.8335768999532,1964.8335768999532,1964.8335768999532,1964.8335768999532,1964.8335768999532,1964.8335768999532,1964.8335768999532,1964.8335768999532,1964.8335768999532,1964.8335768999532,1964.8335768999532,1967.3425596999004,1967.3425596999004,1967.3425596999004,1967.3425596999004,1967.3425596999004,64,65,48,61,65,43,4.0,1.378035499714315,1968.7386527997442,1970.617851700168,,,,,,,120,f,1,2022-12-11_16h58.20.291,RL,2022.2.4,60.2567903852046,
1,22,0,22,0,,,,,,,,,,None,1970.617851700168,1970.617851700168,1970.617851700168,1970.617851700168,1970.617851700168,1970.617851700168,f,0.2905852999538183,1970.9358105999418,1970.9358105999418,1970.9358105999418,1970.9358105999418,1970.9358105999418,1970.9358105999418,1971.2332370998338,1971.2332370998338,1972.5623697000556,1972.5623697000556,1972.5623697000556,1972.5623697000556,1972.5623697000556,1972.5623697000556,1972.5623697000556,1972.5623697000556,1972.5623697000556,1972.5623697000556,1972.5623697000556,1972.5623697000556,1972.5623697000556,1972.5623697000556,1972.5623697000556,1972.5623697000556,1972.5623697000556,1975.0716209998354,1975.0716209998354,1975.0716209998354,1975.0716209998354,1975.0716209998354,53,68,45,51,68,18,5.0,1.3783264001831412,1976.4678509999067,1978.1475033001043,,,,,,,120,f,1,2022-12-11_16h58.20.291,RL,2022.2.4,60.2567903852046,
1,23,0,23,0,,,,,,,,,,None,1978.1475033001043,1978.1475033001043,1978.1475033001043,1978.1475033001043,1978.1475033001043,1978.1475033001043,f,0.2308674999512732,1978.4004881000146,1978.4004881000146,1978.4004881000146,1978.4004881000146,1978.4004881000146,1978.4004881000146,1978.696144899819,1978.696144899819,1979.8923177998513,1979.8923177998513,1979.9090791000053,1979.9090791000053,1979.9090791000053,1979.9090791000053,1979.9090791000053,1979.9090791000053,1979.9090791000053,1979.9090791000053,1979.9090791000053,1979.9090791000053,1979.9090791000053,1979.9090791000053,1979.9090791000053,1979.9090791000053,1979.9090791000053,1982.4179937001318,1982.4179937001318,1982.4179937001318,1982.4179937001318,1982.4179937001318,42,73,49,52,73,42,5.0,2.0923017002642155,1984.529108100105,1986.241725599859,,,,,,,120,f,1,2022-12-11_16h58.20.291,RL,2022.2.4,60.2567903852046,
1,24,0,24,0,,,,,,,,,,None,1986.241725599859,1986.241725599859,1986.241725599859,1986.241725599859,1986.241725599859,1986.241725599859,f,0.23812280036509037,1986.5109751997516,1986.5109751997516,1986.5109751997516,1986.5109751997516,1986.5109751997516,1986.5109751997516,1986.8070955998264,1986.8070955998264,1988.1204214999452,1988.1204214999452,1988.1204214999452,1988.1204214999452,1988.1204214999452,1988.1204214999452,1988.1204214999452,1988.1204214999452,1988.1204214999452,1988.1204214999452,1988.1204214999452,1988.1204214999452,1988.1204214999452,1988.1204214999452,1988.1204214999452,1988.1204214999452,1988.1204214999452,1990.6293989000842,1990.6293989000842,1990.6293989000842,1990.6293989000842,1990.6293989000842,52,66,49,55,66,31,5.0,1.9938980001024902,1992.6403707000427,1994.50246720016,,,,,,,120,f,1,2022-12-11_16h58.20.291,RL,2022.2.4,60.2567903852046,
1,25,0,25,0,,,,,,,,,,None,1994.50246720016,1994.50246720016,1994.50246720016,1994.50246720016,1994.50246720016,1994.50246720016,f,0.29865359980612993,1994.820220099762,1994.820220099762,1994.820220099762,1994.820220099762,1994.820220099762,1994.820220099762,1995.1177167999558,1995.1177167999558,1996.2975809001364,1996.2975809001364,1996.2975809001364,1996.2975809001364,1996.2975809001364,1996.2975809001364,1996.2975809001364,1996.2975809001364,1996.2975809001364,1996.2975809001364,1996.2975809001364,1996.2975809001364,1996.2975809001364,1996.2975809001364,1996.2975809001364,1996.2975809001364,1996.2975809001364,1998.8073175000027,1998.8073175000027,1998.8073175000027,1998.8073175000027,1998.8073175000027,42,59,54,54,59,67,5.0,0.9628339000046253,1999.7874314999208,2001.5170132997446,,,,,,,120,f,1,2022-12-11_16h58.20.291,RL,2022.2.4,60.2567903852046,
1,26,0,26,0,,,,,,,,,,None,2001.5170132997446,2001.5170132997446,2001.5170132997446,2001.5170132997446,2001.5170132997446,2001.5170132997446,f,0.3731082999147475,2001.9196019000374,2001.9196019000374,2001.9196019000374,2001.9196019000374,2001.9196019000374,2001.9196019000374,2002.2150559001602,2002.2150559001602,2003.9605855001137,2003.9605855001137,2003.9605855001137,2003.9605855001137,2003.9605855001137,2003.9605855001137,2003.9605855001137,2003.9605855001137,2003.9605855001137,2003.9605855001137,2003.9605855001137,2003.9605855001137,2003.9605855001137,2003.9605855001137,2003.9605855001137,2003.9605855001137,2003.9605855001137,2006.4692085999995,2006.4692085999995,2006.4692085999995,2006.4692085999995,2006.4692085999995,39,59,46,59,59,74,6.0,1.22987399995327,2007.7157716001384,2009.3450937001035,,,,,,,120,f,1,2022-12-11_16h58.20.291,RL,2022.2.4,60.2567903852046,
1,27,0,27,0,,,,,,,,,,None,2009.3450937001035,2009.3450937001035,2009.3450937001035,2009.3450937001035,2009.3450937001035,2009.3450937001035,f,0.35056980000808835,2009.7323276000097,2009.7323276000097,2009.7323276000097,2009.7323276000097,2009.7323276000097,2009.7323276000097,2010.0272344001569,2010.0272344001569,2011.6892631999217,2011.6892631999217,2011.6892631999217,2011.6892631999217,2011.6892631999217,2011.6892631999217,2011.6892631999217,2011.6892631999217,2011.6892631999217,2011.6892631999217,2011.6892631999217,2011.6892631999217,2011.6892631999217,2011.6892631999217,2011.6892631999217,2011.6892631999217,2011.6892631999217,2014.1985114999115,2014.1985114999115,2014.1985114999115,2014.1985114999115,2014.1985114999115,50,60,38,58,60,60,6.0,1.8109339997172356,2016.026479799766,2017.556291999761,,,,,,,120,f,1,2022-12-11_16h58.20.291,RL,2022.2.4,60.2567903852046,
1,28,0,28,0,,,,,,,,,,None,2017.556291999761,2017.556291999761,2017.556291999761,2017.556291999761,2017.556291999761,2017.556291999761,f,0.36521049961447716,2017.9591176998802,2017.9591176998802,2017.9591176998802,2017.9591176998802,2017.9591176998802,2017.9591176998802,2018.2548754001036,2018.2548754001036,2019.8174795000814,2019.8174795000814,2019.8174795000814,2019.8174795000814,2019.8174795000814,2019.8174795000814,2019.8174795000814,2019.8174795000814,2019.8174795000814,2019.8174795000814,2019.8174795000814,2019.8174795000814,2019.8174795000814,2019.8174795000814,2019.8174795000814,2019.8174795000814,2019.8174795000814,2022.3264681999572,2022.3264681999572,2022.3264681999572,2022.3264681999572,2022.3264681999572,48,64,49,52,64,64,6.0,1.1121112001128495,2023.4565988997929,2025.3020043997094,,,,,,,120,f,1,2022-12-11_16h58.20.291,RL,2022.2.4,60.2567903852046,
1,29,0,29,0,,,,,,,,,,None,2025.3020043997094,2025.3020043997094,2025.3020043997094,2025.3020043997094,2025.3020043997094,2025.3020043997094,f,0.31184120010584593,2025.6374687999487,2025.6374687999487,2025.6374687999487,2025.6374687999487,2025.6374687999487,2025.6374687999487,2025.9334861999378,2025.9334861999378,2027.3133319001645,2027.3133319001645,2027.3133319001645,2027.3133319001645,2027.3133319001645,2027.3133319001645,2027.3133319001645,2027.3133319001645,2027.3133319001645,2027.3133319001645,2027.3133319001645,2027.3133319001645,2027.3133319001645,2027.3133319001645,2027.3133319001645,2027.3133319001645,2027.3133319001645,2029.8224013997242,2029.8224013997242,2029.8224013997242,2029.8224013997242,2029.8224013997242,57,54,40,49,54,60,6.0,0.6641453001648188,2030.5036957999691,2032.2663829997182,,,,,,,120,f,1,2022-12-11_16h58.20.291,RL,2022.2.4,60.2567903852046,
1,30,0,30,0,,,,,,,,,,None,2032.2663829997182,2032.2663829997182,2032.2663829997182,2032.2663829997182,2032.2663829997182,2032.2663829997182,f,0.29442799976095557,2032.5853812000714,2032.5853812000714,2032.5853812000714,2032.5853812000714,2032.5853812000714,2032.5853812000714,2032.8813998000696,2032.8813998000696,2033.8621984999627,2033.8621984999627,2033.8621984999627,2033.8621984999627,2033.8621984999627,2033.8621984999627,2033.8621984999627,2033.8621984999627,2033.8621984999627,2033.8621984999627,2033.8621984999627,2033.8621984999627,2033.8621984999627,2033.8621984999627,2033.8621984999627,2033.8621984999627,2033.8621984999627,2036.3709406997077,2036.3709406997077,2036.3709406997077,2036.3709406997077,2036.3709406997077,54,52,44,59,52,71,4.0,1.7437006998807192,2038.132594499737,2039.8120316998102,,,,,,,120,f,1,2022-12-11_16h58.20.291,RL,2022.2.4,60.2567903852046,
1,31,0,31,0,,,,,,,,,,None,2039.8120316998102,2039.8120316998102,2039.8120316998102,2039.8120316998102,2039.8120316998102,2039.8120316998102,r,0.2526145000010729,2040.0974865001626,2040.0974865001626,2040.0974865001626,2040.0974865001626,2040.0974865001626,2040.0974865001626,2040.3941615000367,2040.3941615000367,2042.2892303001136,2042.2892303001136,2042.2892303001136,2042.2892303001136,2042.2892303001136,2042.2892303001136,2042.2892303001136,2042.2892303001136,2042.2892303001136,2042.2892303001136,2042.2892303001136,2042.2892303001136,2042.2892303001136,2042.2892303001136,2042.2892303001136,2042.2892303001136,2042.2892303001136,2044.7983495998196,2044.7983495998196,2044.7983495998196,2044.7983495998196,2044.7983495998196,48,60,49,57,48,69,4.0,2.359396900050342,2047.1749889999628,2048.7044799998403,,,,,,,120,f,1,2022-12-11_16h58.20.291,RL,2022.2.4,60.2567903852046,
1,32,0,32,0,,,,,,,,,,None,2048.7044799998403,2048.7044799998403,2048.7044799998403,2048.7044799998403,2048.7044799998403,2048.7044799998403,i,0.3644568999297917,2049.0893597998656,2049.0893597998656,2049.0893597998656,2049.0893597998656,2049.0893597998656,2049.0893597998656,2049.3865674999543,2049.3865674999543,2051.2814704999328,2051.2814704999328,2051.2814704999328,2051.2814704999328,2051.2814704999328,2051.2814704999328,2051.2814704999328,2051.2814704999328,2051.2814704999328,2051.2814704999328,2051.2814704999328,2051.2814704999328,2051.2814704999328,2051.2814704999328,2051.2814704999328,2051.2814704999328,2051.2814704999328,2053.790663899854,2053.790663899854,2053.790663899854,2053.790663899854,2053.790663899854,56,53,28,44,28,60,4.0,3.2072955002076924,2057.014910200145,2058.8435814999975,,,,,,,120,f,1,2022-12-11_16h58.20.291,RL,2022.2.4,60.2567903852046,
1,33,0,33,0,,,,,,,,,,None,2058.8435814999975,2058.8435814999975,2058.8435814999975,2058.8435814999975,2058.8435814999975,2058.8435814999975,j,0.4386313003487885,2059.3132372000255,2059.3132372000255,2059.3132372000255,2059.3132372000255,2059.3132372000255,2059.3132372000255,2059.6085962001234,2059.6085962001234,2060.5391730000265,2060.5391730000265,2060.5391730000265,2060.5391730000265,2060.5391730000265,2060.5391730000265,2060.5391730000265,2060.5391730000265,2060.5391730000265,2060.5391730000265,2060.5391730000265,2060.5391730000265,2060.5391730000265,2060.5391730000265,2060.5391730000265,2060.5391730000265,2060.5391730000265,2063.0483373999596,2063.0483373999596,2063.0483373999596,2063.0483373999596,2063.0483373999596,54,58,36,54,54,71,5.0,1.3281225999817252,2064.3945789998397,2066.206769200042,,,,,,,120,f,1,2022-12-11_16h58.20.291,RL,2022.2.4,60.2567903852046,
1,34,0,34,0,,,,,,,,,,None,2066.206769200042,2066.206769200042,2066.206769200042,2066.206769200042,2066.206769200042,2066.206769200042,f,0.3879917999729514,2066.627025899943,2066.627025899943,2066.627025899943,2066.627025899943,2066.627025899943,2066.627025899943,2066.9220614000224,2066.9220614000224,2068.683910000138,2068.683910000138,2068.7002270999365,2068.7002270999365,2068.7002270999365,2068.7002270999365,2068.7002270999365,2068.7002270999365,2068.7002270999365,2068.7002270999365,2068.7002270999365,2068.7002270999365,2068.7002270999365,2068.7002270999365,2068.7002270999365,2068.7002270999365,2068.7002270999365,2071.2095598001033,2071.2095598001033,2071.2095598001033,2071.2095598001033,2071.2095598001033,48,56,41,61,56,34,5.0,1.1792838000692427,2072.4064700999297,2073.9523621997796,,,,,,,120,f,1,2022-12-11_16h58.20.291,RL,2022.2.4,60.2567903852046,
1,35,0,35,0,,,,,,,,,,None,2073.9523621997796,2073.9523621997796,2073.9523621997796,2073.9523621997796,2073.9523621997796,2073.9523621997796,f,0.28391060000285506,2074.2709606001154,2074.2709606001154,2074.2709606001154,2074.2709606001154,2074.2709606001154,2074.2709606001154,2074.5677144997753,2074.5677144997753,2076.180250499863,2076.180250499863,2076.180250499863,2076.180250499863,2076.180250499863,2076.180250499863,2076.180250499863,2076.180250499863,2076.180250499863,2076.180250499863,2076.180250499863,2076.180250499863,2076.180250499863,2076.180250499863,2076.180250499863,2076.180250499863,2076.180250499863,2078.6891227001324,2078.6891227001324,2078.6891227001324,2078.6891227001324,2078.6891227001324,58,63,44,52,63,55,5.0,1.3785663000307977,2080.085002299864,2081.9805954000913,,,,,,,120,f,1,2022-12-11_16h58.20.291,RL,2022.2.4,60.2567903852046,
1,36,0,36,0,,,,,,,,,,None,2081.9805954000913,2081.9805954000913,2081.9805954000913,2081.9805954000913,2081.9805954000913,2081.9805954000913,f,0.2573726000264287,2082.2668654997833,2082.2668654997833,2082.2668654997833,2082.2668654997833,2082.2668654997833,2082.2668654997833,2082.562318599783,2082.562318599783,2084.1247070999816,2084.1247070999816,2084.1247070999816,2084.1247070999816,2084.1247070999816,2084.1247070999816,2084.1247070999816,2084.1247070999816,2084.1247070999816,2084.1247070999816,2084.1247070999816,2084.1247070999816,2084.1247070999816,2084.1247070999816,2084.1247070999816,2084.1247070999816,2084.1247070999816,2086.6337641999125,2086.6337641999125,2086.6337641999125,2086.6337641999125,2086.6337641999125,53,51,49,57,51,59,4.0,1.4789869002997875,2088.129838100169,2089.8758950997144,,,,,,,120,f,1,2022-12-11_16h58.20.291,RL,2022.2.4,60.2567903852046,
1,37,0,37,0,,,,,,,,,,None,2089.8758950997144,2089.8758950997144,2089.8758950997144,2089.8758950997144,2089.8758950997144,2089.8758950997144,f,0.5146286999806762,2090.428305800073,2090.428305800073,2090.428305800073,2090.428305800073,2090.428305800073,2090.428305800073,2090.7233798997477,2090.7233798997477,2092.468866399955,2092.468866399955,2092.468866399955,2092.468866399955,2092.468866399955,2092.468866399955,2092.468866399955,2092.468866399955,2092.468866399955,2092.468866399955,2092.468866399955,2092.468866399955,2092.468866399955,2092.468866399955,2092.468866399955,2092.468866399955,2092.468866399955,2094.977701699827,2094.977701699827,2094.977701699827,2094.977701699827,2094.977701699827,56,48,55,65,48,66,3.0,0.9802764998748899,2095.9753374997526,2097.637623500079,,,,,,,120,f,1,2022-12-11_16h58.20.291,RL,2022.2.4,60.2567903852046,
1,38,0,38,0,,,,,,,,,,None,2097.637623500079,2097.637623500079,2097.637623500079,2097.637623500079,2097.637623500079,2097.637623500079,i,0.7428811998106539,2098.4042925997637,2098.4042925997637,2098.4042925997637,2098.4042925997637,2098.4042925997637,2098.4042925997637,2098.7019301000983,2098.7019301000983,2100.2308545997366,2100.2308545997366,2100.247551899869,2100.247551899869,2100.247551899869,2100.247551899869,2100.247551899869,2100.247551899869,2100.247551899869,2100.247551899869,2100.247551899869,2100.247551899869,2100.247551899869,2100.247551899869,2100.247551899869,2100.247551899869,2100.247551899869,2102.756907499861,2102.756907499861,2102.756907499861,2102.756907499861,2102.756907499861,61,59,47,67,47,61,5.0,2.060673499945551,2104.8343985001557,2106.547088399995,,,,,,,120,f,1,2022-12-11_16h58.20.291,RL,2022.2.4,60.2567903852046,
1,39,0,39,0,,,,,,,,,,None,2106.547088399995,2106.547088399995,2106.547088399995,2106.547088399995,2106.547088399995,2106.547088399995,r,0.3787361001595855,2106.9488794999197,2106.9488794999197,2106.9488794999197,2106.9488794999197,2106.9488794999197,2106.9488794999197,2107.2454853998497,2107.2454853998497,2108.0764983999543,2108.0764983999543,2108.0764983999543,2108.0764983999543,2108.0764983999543,2108.0764983999543,2108.0764983999543,2108.0764983999543,2108.0764983999543,2108.0764983999543,2108.0764983999543,2108.0764983999543,2108.0764983999543,2108.0764983999543,2108.0764983999543,2108.0764983999543,2108.0764983999543,2110.5855927001685,2110.5855927001685,2110.5855927001685,2110.5855927001685,2110.5855927001685,52,61,49,74,52,59,4.0,0.6804419998079538,2111.2833600998856,2112.8629771000706,,,,,,,120,f,1,2022-12-11_16h58.20.291,RL,2022.2.4,60.2567903852046,
1,40,0,40,0,,,,,,,,,,None,2112.8629771000706,2112.8629771000706,2112.8629771000706,2112.8629771000706,2112.8629771000706,2112.8629771000706,f,0.25058670016005635,2113.147462999914,2113.147462999914,2113.147462999914,2113.147462999914,2113.147462999914,2113.147462999914,2113.4451163997874,2113.4451163997874,2115.0406402000226,2115.0406402000226,2115.0406402000226,2115.0406402000226,2115.0406402000226,2115.0406402000226,2115.0406402000226,2115.0406402000226,2115.0406402000226,2115.0406402000226,2115.0406402000226,2115.0406402000226,2115.0406402000226,2115.0406402000226,2115.0406402000226,2115.0406402000226,2115.0406402000226,2117.5497766998596,2117.5497766998596,2117.5497766998596,2117.5497766998596,2117.5497766998596,53,55,54,73,55,50,4.0,0.7311274004168808,2118.2973810001276,2120.243095899932,,,,,,,120,f,1,2022-12-11_16h58.20.291,RL,2022.2.4,60.2567903852046,
1,41,0,41,0,,,,,,,,,,None,2120.243095899932,2120.243095899932,2120.243095899932,2120.243095899932,2120.243095899932,2120.243095899932,f,0.552693999838084,2120.825501400046,2120.825501400046,2120.825501400046,2120.825501400046,2120.825501400046,2120.825501400046,2121.123872799799,2121.123872799799,2123.068644999992,2123.068644999992,2123.068644999992,2123.068644999992,2123.068644999992,2123.068644999992,2123.068644999992,2123.068644999992,2123.068644999992,2123.068644999992,2123.068644999992,2123.068644999992,2123.068644999992,2123.068644999992,2123.068644999992,2123.068644999992,2123.068644999992,2125.577804000117,2125.577804000117,2125.577804000117,2125.577804000117,2125.577804000117,51,54,55,68,54,63,5.0,0.7144148000515997,2126.309112200048,2128.1714312997647,,,,,,,120,f,1,2022-12-11_16h58.20.291,RL,2022.2.4,60.2567903852046,
1,42,0,42,0,,,,,,,,,,None,2128.1714312997647,2128.1714312997647,2128.1714312997647,2128.1714312997647,2128.1714312997647,2128.1714312997647,f,0.7602443001233041,2128.957597400062,2128.957597400062,2128.957597400062,2128.957597400062,2128.957597400062,2128.957597400062,2129.2519700000994,2129.2519700000994,2131.0801618001424,2131.0801618001424,2131.096984599717,2131.096984599717,2131.096984599717,2131.096984599717,2131.096984599717,2131.096984599717,2131.096984599717,2131.096984599717,2131.096984599717,2131.096984599717,2131.096984599717,2131.096984599717,2131.096984599717,2131.096984599717,2131.096984599717,2133.6057058000006,2133.6057058000006,2133.6057058000006,2133.6057058000006,2133.6057058000006,52,53,67,68,53,62,4.0,1.3448944999836385,2134.9687581998296,2136.7813897999004,,,,,,,120,f,1,2022-12-11_16h58.20.291,RL,2022.2.4,60.2567903852046,
1,43,0,43,0,,,,,,,,,,None,2136.7813897999004,2136.7813897999004,2136.7813897999004,2136.7813897999004,2136.7813897999004,2136.7813897999004,f,0.3369362996891141,2137.149132600054,2137.149132600054,2137.149132600054,2137.149132600054,2137.149132600054,2137.149132600054,2137.446113700047,2137.446113700047,2139.308004199993,2139.308004199993,2139.308004199993,2139.308004199993,2139.308004199993,2139.308004199993,2139.308004199993,2139.308004199993,2139.308004199993,2139.308004199993,2139.308004199993,2139.308004199993,2139.308004199993,2139.308004199993,2139.308004199993,2139.308004199993,2139.308004199993,2141.817148100119,2141.817148100119,2141.817148100119,2141.817148100119,2141.817148100119,59,49,53,68,49,69,5.0,0.7975261998362839,2142.63107999973,2144.5096611999907,,,,,,,120,f,1,2022-12-11_16h58.20.291,RL,2022.2.4,60.2567903852046,
1,44,0,44,0,,,,,,,,,,None,2144.5096611999907,2144.5096611999907,2144.5096611999907,2144.5096611999907,2144.5096611999907,2144.5096611999907,f,0.3196913995780051,2144.8604898997582,2144.8604898997582,2144.8604898997582,2144.8604898997582,2144.8604898997582,2144.8604898997582,2145.1582444999367,2145.1582444999367,2146.4380930000916,2146.4380930000916,2146.4380930000916,2146.4380930000916,2146.4380930000916,2146.4380930000916,2146.4380930000916,2146.4380930000916,2146.4380930000916,2146.4380930000916,2146.4380930000916,2146.4380930000916,2146.4380930000916,2146.4380930000916,2146.4380930000916,2146.4380930000916,2146.4380930000916,2148.9472174998373,2148.9472174998373,2148.9472174998373,2148.9472174998373,2148.9472174998373,47,52,56,69,52,57,5.0,0.5638665002770722,2149.5288940998726,2151.4245533999056,,,,,,,120,f,1,2022-12-11_16h58.20.291,RL,2022.2.4,60.2567903852046,
1,45,0,45,0,,,,,,,,,,None,2151.4245533999056,2151.4245533999056,2151.4245533999056,2151.4245533999056,2151.4245533999056,2151.4245533999056,r,0.36357029993087053,2151.8104226998985,2151.8104226998985,2151.8104226998985,2151.8104226998985,2151.8104226998985,2151.8104226998985,2152.106319000013,2152.106319000013,2153.0536303999834,2153.0536303999834,2153.0536303999834,2153.0536303999834,2153.0536303999834,2153.0536303999834,2153.0536303999834,2153.0536303999834,2153.0536303999834,2153.0536303999834,2153.0536303999834,2153.0536303999834,2153.0536303999834,2153.0536303999834,2153.0536303999834,2153.0536303999834,2153.0536303999834,2155.562599899713,2155.562599899713,2155.562599899713,2155.562599899713,2155.562599899713,66,54,63,74,66,62,5.0,0.5478052999824286,2156.1275130999275,2157.7737361998297,,,,,,,120,f,1,2022-12-11_16h58.20.291,RL,2022.2.4,60.2567903852046,
1,46,0,46,0,,,,,,,,,,None,2157.7737361998297,2157.7737361998297,2157.7737361998297,2157.7737361998297,2157.7737361998297,2157.7737361998297,r,0.3369877999648452,2158.1422183001414,2158.1422183001414,2158.1422183001414,2158.1422183001414,2158.1422183001414,2158.1422183001414,2158.438715999946,2158.438715999946,2160.3005873998627,2160.3005873998627,2160.3005873998627,2160.3005873998627,2160.3005873998627,2160.3005873998627,2160.3005873998627,2160.3005873998627,2160.3005873998627,2160.3005873998627,2160.3005873998627,2160.3005873998627,2160.3005873998627,2160.3005873998627,2160.3005873998627,2160.3005873998627,2160.3005873998627,2162.8096118001267,2162.8096118001267,2162.8096118001267,2162.8096118001267,2162.8096118001267,53,53,54,65,53,41,4.0,0.49758769990876317,2163.3249058001675,2165.286352499854,,,,,,,120,f,1,2022-12-11_16h58.20.291,RL,2022.2.4,60.2567903852046,
1,47,0,47,0,,,,,,,,,,None,2165.286352499854,2165.286352499854,2165.286352499854,2165.286352499854,2165.286352499854,2165.286352499854,r,0.30675620026886463,2165.6218997999094,2165.6218997999094,2165.6218997999094,2165.6218997999094,2165.6218997999094,2165.6218997999094,2165.91828610003,2165.91828610003,2166.882391099818,2166.882391099818,2166.882391099818,2166.882391099818,2166.882391099818,2166.882391099818,2166.882391099818,2166.882391099818,2166.882391099818,2166.882391099818,2166.882391099818,2166.882391099818,2166.882391099818,2166.882391099818,2166.882391099818,2166.882391099818,2166.882391099818,2169.3914739997126,2169.3914739997126,2169.3914739997126,2169.3914739997126,2169.3914739997126,51,45,62,65,51,68,5.0,0.9648540001362562,2170.3723124000244,2172.317793900147,,,,,,,120,f,1,2022-12-11_16h58.20.291,RL,2022.2.4,60.2567903852046,
1,48,0,48,0,,,,,,,,,,None,2172.317793900147,2172.317793900147,2172.317793900147,2172.317793900147,2172.317793900147,2172.317793900147,f,0.28788459999486804,2172.6377018997446,2172.6377018997446,2172.6377018997446,2172.6377018997446,2172.6377018997446,2172.6377018997446,2172.9325157999992,2172.9325157999992,2174.295479999855,2174.295479999855,2174.312343900092,2174.312343900092,2174.312343900092,2174.312343900092,2174.312343900092,2174.312343900092,2174.312343900092,2174.312343900092,2174.312343900092,2174.312343900092,2174.312343900092,2174.312343900092,2174.312343900092,2174.312343900092,2174.312343900092,2176.82123149978,2176.82123149978,2176.82123149978,2176.82123149978,2176.82123149978,60,44,53,71,44,43,5.0,0.5810247003100812,2177.4196950998157,2179.248490099795,,,,,,,120,f,1,2022-12-11_16h58.20.291,RL,2022.2.4,60.2567903852046,
1,49,0,49,0,,,,,,,,,,None,2179.248490099795,2179.248490099795,2179.248490099795,2179.248490099795,2179.248490099795,2179.248490099795,j,0.330978199839592,2179.5998538997956,2179.5998538997956,2179.5998538997956,2179.5998538997956,2179.5998538997956,2179.5998538997956,2179.897414899897,2179.897414899897,2180.811170999892,2180.811170999892,2180.8274594997056,2180.8274594997056,2180.8274594997056,2180.8274594997056,2180.8274594997056,2180.8274594997056,2180.8274594997056,2180.8274594997056,2180.8274594997056,2180.8274594997056,2180.8274594997056,2180.8274594997056,2180.8274594997056,2180.8274594997056,2180.8274594997056,2183.3371596997604,2183.3371596997604,2183.3371596997604,2183.3371596997604,2183.3371596997604,64,44,44,64,64,70,5.0,0.69688790012151,2184.0513377999887,2185.979726099875,,,,,,,120,f,1,2022-12-11_16h58.20.291,RL,2022.2.4,60.2567903852046,
1,50,0,50,0,,,,,,,,,,None,2185.979726099875,2185.979726099875,2185.979726099875,2185.979726099875,2185.979726099875,2185.979726099875,j,0.28221819968894124,2186.282562499866,2186.282562499866,2186.282562499866,2186.282562499866,2186.282562499866,2186.282562499866,2186.5787694999017,2186.5787694999017,2188.091099599842,2188.091099599842,2188.091099599842,2188.091099599842,2188.091099599842,2188.091099599842,2188.091099599842,2188.091099599842,2188.091099599842,2188.091099599842,2188.091099599842,2188.091099599842,2188.091099599842,2188.091099599842,2188.091099599842,2188.091099599842,2188.091099599842,2190.600511100143,2190.600511100143,2190.600511100143,2190.600511100143,2190.600511100143,53,43,46,64,64,76,4.0,1.9941910998895764,2192.611520799808,2194.2743306998163,,,,,,,120,f,1,2022-12-11_16h58.20.291,RL,2022.2.4,60.2567903852046,
1,51,0,51,0,,,,,,,,,,None,2194.2743306998163,2194.2743306998163,2194.2743306998163,2194.2743306998163,2194.2743306998163,2194.2743306998163,i,0.24360830010846257,2194.5447597997263,2194.5447597997263,2194.5447597997263,2194.5447597997263,2194.5447597997263,2194.5447597997263,2194.8396350000985,2194.8396350000985,2195.986390700098,2195.986390700098,2195.986390700098,2195.986390700098,2195.986390700098,2195.986390700098,2195.986390700098,2195.986390700098,2195.986390700098,2195.986390700098,2195.986390700098,2195.986390700098,2195.986390700098,2195.986390700098,2195.986390700098,2195.986390700098,2195.986390700098,2198.4951348998584,2198.4951348998584,2198.4951348998584,2198.4951348998584,2198.4951348998584,57,54,54,62,54,71,4.0,0.7157780998386443,2199.2271477999166,2201.2055600001477,,,,,,,120,f,1,2022-12-11_16h58.20.291,RL,2022.2.4,60.2567903852046,
1,52,0,52,0,,,,,,,,,,None,2201.2055600001477,2201.2055600001477,2201.2055600001477,2201.2055600001477,2201.2055600001477,2201.2055600001477,j,0.25460359966382384,2201.490374499932,2201.490374499932,2201.490374499932,2201.490374499932,2201.490374499932,2201.490374499932,2201.7872546999715,2201.7872546999715,2202.9676831001416,2202.9676831001416,2202.9676831001416,2202.9676831001416,2202.9676831001416,2202.9676831001416,2202.9676831001416,2202.9676831001416,2202.9676831001416,2202.9676831001416,2202.9676831001416,2202.9676831001416,2202.9676831001416,2202.9676831001416,2202.9676831001416,2202.9676831001416,2202.9676831001416,2205.4767603999935,2205.4767603999935,2205.4767603999935,2205.4767603999935,2205.4767603999935,59,49,52,63,63,73,5.0,0.6971995001658797,2206.1912639001384,2208.036556799896,,,,,,,120,f,1,2022-12-11_16h58.20.291,RL,2022.2.4,60.2567903852046,
1,53,0,53,0,,,,,,,,,,None,2208.036556799896,2208.036556799896,2208.036556799896,2208.036556799896,2208.036556799896,2208.036556799896,f,0.30125589994713664,2208.3717851997353,2208.3717851997353,2208.3717851997353,2208.3717851997353,2208.3717851997353,2208.3717851997353,2208.668616499752,2208.668616499752,2210.530102000106,2210.530102000106,2210.530102000106,2210.530102000106,2210.530102000106,2210.530102000106,2210.530102000106,2210.530102000106,2210.530102000106,2210.530102000106,2210.530102000106,2210.530102000106,2210.530102000106,2210.530102000106,2210.530102000106,2210.530102000106,2210.530102000106,2213.039121899754,2213.039121899754,2213.039121899754,2213.039121899754,2213.039121899754,60,42,47,62,42,69,4.0,1.0966212996281683,2214.1530435997993,2215.7820244999602,,,,,,,120,f,1,2022-12-11_16h58.20.291,RL,2022.2.4,60.2567903852046,
1,54,0,54,0,,,,,,,,,,None,2215.7820244999602,2215.7820244999602,2215.7820244999602,2215.7820244999602,2215.7820244999602,2215.7820244999602,r,0.3519310001283884,2216.167276499793,2216.167276499793,2216.167276499793,2216.167276499793,2216.167276499793,2216.167276499793,2216.463776699733,2216.463776699733,2218.3918884997256,2218.3918884997256,2218.3918884997256,2218.3918884997256,2218.3918884997256,2218.3918884997256,2218.3918884997256,2218.3918884997256,2218.3918884997256,2218.3918884997256,2218.3918884997256,2218.3918884997256,2218.3918884997256,2218.3918884997256,2218.3918884997256,2218.3918884997256,2218.3918884997256,2220.9009027997963,2220.9009027997963,2220.9009027997963,2220.9009027997963,2220.9009027997963,64,56,44,57,64,52,4.0,0.4649391998536885,2221.3829461997375,2223.311624699738,,,,,,,120,f,1,2022-12-11_16h58.20.291,RL,2022.2.4,60.2567903852046,
1,55,0,55,0,,,,,,,,,,None,2223.311624699738,2223.311624699738,2223.311624699738,2223.311624699738,2223.311624699738,2223.311624699738,r,0.23416139977052808,2223.5796046000905,2223.5796046000905,2223.5796046000905,2223.5796046000905,2223.5796046000905,2223.5796046000905,2223.877382100094,2223.877382100094,2224.874085499905,2224.874085499905,2224.890955499839,2224.890955499839,2224.890955499839,2224.890955499839,2224.890955499839,2224.890955499839,2224.890955499839,2224.890955499839,2224.890955499839,2224.890955499839,2224.890955499839,2224.890955499839,2224.890955499839,2224.890955499839,2224.890955499839,2227.399986300152,2227.399986300152,2227.399986300152,2227.399986300152,2227.399986300152,63,38,41,62,63,73,5.0,0.664822000078857,2228.0813457998447,2230.0099583999254,,,,,,,120,f,1,2022-12-11_16h58.20.291,RL,2022.2.4,60.2567903852046,
1,56,0,56,0,,,,,,,,,,None,2230.0099583999254,2230.0099583999254,2230.0099583999254,2230.0099583999254,2230.0099583999254,2230.0099583999254,r,0.2790707000531256,2230.3133435999043,2230.3133435999043,2230.3133435999043,2230.3133435999043,2230.3133435999043,2230.3133435999043,2230.608500899747,2230.608500899747,2231.9550601998344,2231.9550601998344,2231.9550601998344,2231.9550601998344,2231.9550601998344,2231.9550601998344,2231.9550601998344,2231.9550601998344,2231.9550601998344,2231.9550601998344,2231.9550601998344,2231.9550601998344,2231.9550601998344,2231.9550601998344,2231.9550601998344,2231.9550601998344,2231.9550601998344,2234.4640679000877,2234.4640679000877,2234.4640679000877,2234.4640679000877,2234.4640679000877,67,48,39,57,67,72,5.0,0.547339600045234,2235.0289102001116,2237.024133899715,,,,,,,120,f,1,2022-12-11_16h58.20.291,RL,2022.2.4,60.2567903852046,
1,57,0,57,0,,,,,,,,,,None,2237.024133899715,2237.024133899715,2237.024133899715,2237.024133899715,2237.024133899715,2237.024133899715,f,0.3615077999420464,2237.409953500144,2237.409953500144,2237.409953500144,2237.409953500144,2237.409953500144,2237.409953500144,2237.705997900106,2237.705997900106,2238.852728600148,2238.852728600148,2238.852728600148,2238.852728600148,2238.852728600148,2238.852728600148,2238.852728600148,2238.852728600148,2238.852728600148,2238.852728600148,2238.852728600148,2238.852728600148,2238.852728600148,2238.852728600148,2238.852728600148,2238.852728600148,2238.852728600148,2241.3616380998865,2241.3616380998865,2241.3616380998865,2241.3616380998865,2241.3616380998865,66,31,42,61,31,65,5.0,1.0626348000951111,2242.442278499715,2244.2377080000006,,,,,,,120,f,1,2022-12-11_16h58.20.291,RL,2022.2.4,60.2567903852046,
1,58,0,58,0,,,,,,,,,,None,2244.2377080000006,2244.2377080000006,2244.2377080000006,2244.2377080000006,2244.2377080000006,2244.2377080000006,r,0.26556399976834655,2244.5421434999444,2244.5421434999444,2244.5421434999444,2244.5421434999444,2244.5421434999444,2244.5421434999444,2244.836711399723,2244.836711399723,2245.9498906000517,2245.9498906000517,2245.9498906000517,2245.9498906000517,2245.9498906000517,2245.9498906000517,2245.9498906000517,2245.9498906000517,2245.9498906000517,2245.9498906000517,2245.9498906000517,2245.9498906000517,2245.9498906000517,2245.9498906000517,2245.9498906000517,2245.9498906000517,2245.9498906000517,2248.459094100166,2248.459094100166,2248.459094100166,2248.459094100166,2248.459094100166,71,34,42,61,71,74,5.0,1.078462699893862,2249.5564862000756,2251.235694000032,,,,,,,120,f,1,2022-12-11_16h58.20.291,RL,2022.2.4,60.2567903852046,
1,59,0,59,0,,,,,,,,,,None,2251.235694000032,2251.235694000032,2251.235694000032,2251.235694000032,2251.235694000032,2251.235694000032,r,0.21543290000408888,2251.4708781000227,2251.4708781000227,2251.4708781000227,2251.4708781000227,2251.4708781000227,2251.4708781000227,2251.7673937999643,2251.7673937999643,2253.596065599937,2253.596065599937,2253.6124195000157,2253.6124195000157,2253.6124195000157,2253.6124195000157,2253.6124195000157,2253.6124195000157,2253.6124195000157,2253.6124195000157,2253.6124195000157,2253.6124195000157,2253.6124195000157,2253.6124195000157,2253.6124195000157,2253.6124195000157,2253.6124195000157,2256.1214352999814,2256.1214352999814,2256.1214352999814,2256.1214352999814,2256.1214352999814,72,31,36,63,72,78,5.0,0.9959561000578105,2257.1355003998615,2258.648736299947,,,,,,,120,f,1,2022-12-11_16h58.20.291,RL,2022.2.4,60.2567903852046,
1,60,0,60,0,,,,,,,,,,None,2258.648736299947,2258.648736299947,2258.648736299947,2258.648736299947,2258.648736299947,2258.648736299947,r,0.3497724998742342,2259.033951799851,2259.033951799851,2259.033951799851,2259.033951799851,2259.033951799851,2259.033951799851,2259.3305293000303,2259.3305293000303,2260.7431385000236,2260.7431385000236,2260.7431385000236,2260.7431385000236,2260.7431385000236,2260.7431385000236,2260.7431385000236,2260.7431385000236,2260.7431385000236,2260.7431385000236,2260.7431385000236,2260.7431385000236,2260.7431385000236,2260.7431385000236,2260.7431385000236,2260.7431385000236,2260.7431385000236,2263.252446900122,2263.252446900122,2263.252446900122,2263.252446900122,2263.252446900122,66,30,37,68,66,71,4.0,1.3784573995508254,2264.6484743999317,2266.3275962001644,,,,,,,120,f,1,2022-12-11_16h58.20.291,RL,2022.2.4,60.2567903852046,
1,61,0,61,0,,,,,,,,,,None,2266.3275962001644,2266.3275962001644,2266.3275962001644,2266.3275962001644,2266.3275962001644,2266.3275962001644,r,0.2982200002297759,2266.6458463999443,2266.6458463999443,2266.6458463999443,2266.6458463999443,2266.6458463999443,2266.6458463999443,2266.9429335999303,2266.9429335999303,2268.0895921997726,2268.0895921997726,2268.0895921997726,2268.0895921997726,2268.0895921997726,2268.0895921997726,2268.0895921997726,2268.0895921997726,2268.0895921997726,2268.0895921997726,2268.0895921997726,2268.0895921997726,2268.0895921997726,2268.0895921997726,2268.0895921997726,2268.0895921997726,2268.0895921997726,2270.598639999982,2270.598639999982,2270.598639999982,2270.598639999982,2270.598639999982,65,28,31,67,65,69,5.0,1.2617267998866737,2271.8789502000436,2273.674193699844,,,,,,,120,f,1,2022-12-11_16h58.20.291,RL,2022.2.4,60.2567903852046,
1,62,0,62,0,,,,,,,,,,None,2273.674193699844,2273.674193699844,2273.674193699844,2273.674193699844,2273.674193699844,2273.674193699844,r,0.23389830021187663,2273.943455299828,2273.943455299828,2273.943455299828,2273.943455299828,2273.943455299828,2273.943455299828,2274.2398683000356,2274.2398683000356,2275.818689600099,2275.818689600099,2275.818689600099,2275.818689600099,2275.818689600099,2275.818689600099,2275.818689600099,2275.818689600099,2275.818689600099,2275.818689600099,2275.818689600099,2275.818689600099,2275.818689600099,2275.818689600099,2275.818689600099,2275.818689600099,2275.818689600099,2278.3275079997256,2278.3275079997256,2278.3275079997256,2278.3275079997256,2278.3275079997256,63,39,36,64,63,76,5.0,0.6969403000548482,2279.0422625998035,2280.854592999909,,,,,,,120,f,1,2022-12-11_16h58.20.291,RL,2022.2.4,60.2567903852046,
1,63,0,63,0,,,,,,,,,,None,2280.854592999909,2280.854592999909,2280.854592999909,2280.854592999909,2280.854592999909,2280.854592999909,j,0.25548990024253726,2281.1423892998137,2281.1423892998137,2281.1423892998137,2281.1423892998137,2281.1423892998137,2281.1423892998137,2281.4367760997266,2281.4367760997266,2282.433681599796,2282.433681599796,2282.433681599796,2282.433681599796,2282.433681599796,2282.433681599796,2282.433681599796,2282.433681599796,2282.433681599796,2282.433681599796,2282.433681599796,2282.433681599796,2282.433681599796,2282.433681599796,2282.433681599796,2282.433681599796,2282.433681599796,2284.942812900059,2284.942812900059,2284.942812900059,2284.942812900059,2284.942812900059,73,42,36,55,55,73,5.0,1.0788392997346818,2286.0399536001496,2287.9683962999843,,,,,,,120,f,1,2022-12-11_16h58.20.291,RL,2022.2.4,60.2567903852046,
1,64,0,64,0,,,,,,,,,,None,2287.9683962999843,2287.9683962999843,2287.9683962999843,2287.9683962999843,2287.9683962999843,2287.9683962999843,r,0.2747463001869619,2288.2702612997964,2288.2702612997964,2288.2702612997964,2288.2702612997964,2288.2702612997964,2288.2702612997964,2288.5675961999223,2288.5675961999223,2289.780565300025,2289.780565300025,2289.780565300025,2289.780565300025,2289.780565300025,2289.780565300025,2289.780565300025,2289.780565300025,2289.780565300025,2289.780565300025,2289.780565300025,2289.780565300025,2289.780565300025,2289.780565300025,2289.780565300025,2289.780565300025,2289.780565300025,2292.289771299809,2292.289771299809,2292.289771299809,2292.289771299809,2292.289771299809,69,43,37,56,69,79,6.0,1.2128631002269685,2293.519296300132,2295.431434100028,,,,,,,120,f,1,2022-12-11_16h58.20.291,RL,2022.2.4,60.2567903852046,
1,65,0,65,0,,,,,,,,,,None,2295.431434100028,2295.431434100028,2295.431434100028,2295.431434100028,2295.431434100028,2295.431434100028,f,0.28369970014318824,2295.751282900106,2295.751282900106,2295.751282900106,2295.751282900106,2295.751282900106,2295.751282900106,2296.047174999956,2296.047174999956,2297.4432270997204,2297.4432270997204,2297.4432270997204,2297.4432270997204,2297.4432270997204,2297.4432270997204,2297.4432270997204,2297.4432270997204,2297.4432270997204,2297.4432270997204,2297.4432270997204,2297.4432270997204,2297.4432270997204,2297.4432270997204,2297.4432270997204,2297.4432270997204,2297.4432270997204,2299.951977000106,2299.951977000106,2299.951977000106,2299.951977000106,2299.951977000106,63,38,36,58,38,76,5.0,1.4281513001769781,2301.3979857000522,2303.376438499894,,,,,,,120,f,1,2022-12-11_16h58.20.291,RL,2022.2.4,60.2567903852046,
1,66,0,66,0,,,,,,,,,,None,2303.376438499894,2303.376438499894,2303.376438499894,2303.376438499894,2303.376438499894,2303.376438499894,r,0.30550969997420907,2303.713183199987,2303.713183199987,2303.713183199987,2303.713183199987,2303.713183199987,2303.713183199987,2304.00829649996,2304.00829649996,2305.3714755000547,2305.3714755000547,2305.387962399982,2305.387962399982,2305.387962399982,2305.387962399982,2305.387962399982,2305.387962399982,2305.387962399982,2305.387962399982,2305.387962399982,2305.387962399982,2305.387962399982,2305.387962399982,2305.387962399982,2305.387962399982,2305.387962399982,2307.8969856998883,2307.8969856998883,2307.8969856998883,2307.8969856998883,2307.8969856998883,66,38,37,66,66,73,4.0,1.9769832999445498,2309.8917022999376,2311.4211351000704,,,,,,,120,f,1,2022-12-11_16h58.20.291,RL,2022.2.4,60.2567903852046,
1,67,0,67,0,,,,,,,,,,None,2311.4211351000704,2311.4211351000704,2311.4211351000704,2311.4211351000704,2311.4211351000704,2311.4211351000704,i,0.26695340033620596,2311.7245796001516,2311.7245796001516,2311.7245796001516,2311.7245796001516,2311.7245796001516,2311.7245796001516,2312.0202556001022,2312.0202556001022,2313.1498615997843,2313.1498615997843,2313.1498615997843,2313.1498615997843,2313.1498615997843,2313.1498615997843,2313.1498615997843,2313.1498615997843,2313.1498615997843,2313.1498615997843,2313.1498615997843,2313.1498615997843,2313.1498615997843,2313.1498615997843,2313.1498615997843,2313.1498615997843,2313.1498615997843,2315.659556100145,2315.659556100145,2315.659556100145,2315.659556100145,2315.659556100145,69,40,49,57,49,80,5.0,1.212681899778545,2316.888913199771,2318.668013600167,,,,,,,120,f,1,2022-12-11_16h58.20.291,RL,2022.2.4,60.2567903852046,
1,68,0,68,0,,,,,,,,,,None,2318.668013600167,2318.668013600167,2318.668013600167,2318.668013600167,2318.668013600167,2318.668013600167,j,0.36235579987987876,2319.0528413997963,2319.0528413997963,2319.0528413997963,2319.0528413997963,2319.0528413997963,2319.0528413997963,2319.349703799933,2319.349703799933,2320.5962801999412,2320.5962801999412,2320.5962801999412,2320.5962801999412,2320.5962801999412,2320.5962801999412,2320.5962801999412,2320.5962801999412,2320.5962801999412,2320.5962801999412,2320.5962801999412,2320.5962801999412,2320.5962801999412,2320.5962801999412,2320.5962801999412,2320.5962801999412,2320.5962801999412,2323.105611700099,2323.105611700099,2323.105611700099,2323.105611700099,2323.105611700099,68,32,40,59,59,68,5.0,1.8935833000577986,2325.016686399933,2326.962248600088,,,,,,,120,f,1,2022-12-11_16h58.20.291,RL,2022.2.4,60.2567903852046,
1,69,0,69,0,,,,,,,,,,None,2326.962248600088,2326.962248600088,2326.962248600088,2326.962248600088,2326.962248600088,2326.962248600088,r,0.30970120010897517,2327.296982499771,2327.296982499771,2327.296982499771,2327.296982499771,2327.296982499771,2327.296982499771,2327.593980900012,2327.593980900012,2329.039833799936,2329.039833799936,2329.0568833998404,2329.0568833998404,2329.0568833998404,2329.0568833998404,2329.0568833998404,2329.0568833998404,2329.0568833998404,2329.0568833998404,2329.0568833998404,2329.0568833998404,2329.0568833998404,2329.0568833998404,2329.0568833998404,2329.0568833998404,2329.0568833998404,2331.565672900062,2331.565672900062,2331.565672900062,2331.565672900062,2331.565672900062,68,39,42,59,68,66,5.0,1.5775983999483287,2333.1613730001263,2334.9738174001686,,,,,,,120,f,1,2022-12-11_16h58.20.291,RL,2022.2.4,60.2567903852046,
1,70,0,70,0,,,,,,,,,,None,2334.9738174001686,2334.9738174001686,2334.9738174001686,2334.9738174001686,2334.9738174001686,2334.9738174001686,r,0.3084929003380239,2335.3094657999463,2335.3094657999463,2335.3094657999463,2335.3094657999463,2335.3094657999463,2335.3094657999463,2335.605477800127,2335.605477800127,2336.7520500998944,2336.7520500998944,2336.7688341997564,2336.7688341997564,2336.7688341997564,2336.7688341997564,2336.7688341997564,2336.7688341997564,2336.7688341997564,2336.7688341997564,2336.7688341997564,2336.7688341997564,2336.7688341997564,2336.7688341997564,2336.7688341997564,2336.7688341997564,2336.7688341997564,2339.2783368998207,2339.2783368998207,2339.2783368998207,2339.2783368998207,2339.2783368998207,66,34,49,71,66,39,6.0,1.8444249001331627,2341.139595499728,2342.9686749000102,,,,,,,120,f,1,2022-12-11_16h58.20.291,RL,2022.2.4,60.2567903852046,
1,71,0,71,0,,,,,,,,,,None,2342.9686749000102,2342.9686749000102,2342.9686749000102,2342.9686749000102,2342.9686749000102,2342.9686749000102,r,0.34446849999949336,2343.3363831001334,2343.3363831001334,2343.3363831001334,2343.3363831001334,2343.3363831001334,2343.3363831001334,2343.6335979001597,2343.6335979001597,2345.2458695997484,2345.2458695997484,2345.2458695997484,2345.2458695997484,2345.2458695997484,2345.2458695997484,2345.2458695997484,2345.2458695997484,2345.2458695997484,2345.2458695997484,2345.2458695997484,2345.2458695997484,2345.2458695997484,2345.2458695997484,2345.2458695997484,2345.2458695997484,2345.2458695997484,2347.7547538997605,2347.7547538997605,2347.7547538997605,2347.7547538997605,2347.7547538997605,63,42,53,66,63,90,5.0,1.5122449998743832,2349.2840610998683,2350.8136844998226,,,,,,,120,f,1,2022-12-11_16h58.20.291,RL,2022.2.4,60.2567903852046,
1,72,0,72,0,,,,,,,,,,None,2350.8136844998226,2350.8136844998226,2350.8136844998226,2350.8136844998226,2350.8136844998226,2350.8136844998226,f,0.2666729004122317,2351.114700799808,2351.114700799808,2351.114700799808,2351.114700799808,2351.114700799808,2351.114700799808,2351.412415999919,2351.412415999919,2352.5423822999,2352.5423822999,2352.5591989997774,2352.5591989997774,2352.5591989997774,2352.5591989997774,2352.5591989997774,2352.5591989997774,2352.5591989997774,2352.5591989997774,2352.5591989997774,2352.5591989997774,2352.5591989997774,2352.5591989997774,2352.5591989997774,2352.5591989997774,2352.5591989997774,2355.068521599751,2355.068521599751,2355.068521599751,2355.068521599751,2355.068521599751,74,40,47,57,40,76,6.0,1.8115149000659585,2356.8969076001085,2358.5591867999174,,,,,,,120,f,1,2022-12-11_16h58.20.291,RL,2022.2.4,60.2567903852046,
1,73,0,73,0,,,,,,,,,,None,2358.5591867999174,2358.5591867999174,2358.5591867999174,2358.5591867999174,2358.5591867999174,2358.5591867999174,r,0.26735669979825616,2358.8619979997166,2358.8619979997166,2358.8619979997166,2358.8619979997166,2358.8619979997166,2358.8619979997166,2359.157784199808,2359.157784199808,2360.603797900025,2360.603797900025,2360.6207968001254,2360.6207968001254,2360.6207968001254,2360.6207968001254,2360.6207968001254,2360.6207968001254,2360.6207968001254,2360.6207968001254,2360.6207968001254,2360.6207968001254,2360.6207968001254,2360.6207968001254,2360.6207968001254,2360.6207968001254,2360.6207968001254,2363.129768999759,2363.129768999759,2363.129768999759,2363.129768999759,2363.129768999759,65,35,50,58,65,86,6.0,1.1628797999583185,2364.3099581999704,2365.839457700029,,,,,,,120,f,1,2022-12-11_16h58.20.291,RL,2022.2.4,60.2567903852046,
1,74,0,74,0,,,,,,,,,,None,2365.839457700029,2365.839457700029,2365.839457700029,2365.839457700029,2365.839457700029,2365.839457700029,i,0.28032359993085265,2366.1424241000786,2366.1424241000786,2366.1424241000786,2366.1424241000786,2366.1424241000786,2366.1424241000786,2366.4379408997484,2366.4379408997484,2368.449509100057,2368.449509100057,2368.449509100057,2368.449509100057,2368.449509100057,2368.449509100057,2368.449509100057,2368.449509100057,2368.449509100057,2368.449509100057,2368.449509100057,2368.449509100057,2368.449509100057,2368.449509100057,2368.449509100057,2368.449509100057,2368.449509100057,2370.9585754997097,2370.9585754997097,2370.9585754997097,2370.9585754997097,2370.9585754997097,66,41,58,53,58,76,4.0,0.8796978001482785,2371.855731099844,2373.667930800002,,,,,,,120,f,1,2022-12-11_16h58.20.291,RL,2022.2.4,60.2567903852046,
1,75,0,75,0,,,,,,,,,,q,2448.8468459998257,2448.8468459998257,2448.8468459998257,2448.8468459998257,2448.8468459998257,2448.8468459998257,r,0.8485246999189258,2449.7313705999404,2449.7313705999404,2449.7313705999404,2449.7313705999404,2449.7313705999404,2449.7313705999404,2450.026745200157,2450.026745200157,2450.8412644001655,2450.8412644001655,2450.8577644997276,2450.8577644997276,2450.8577644997276,2450.8577644997276,2450.8577644997276,2450.8577644997276,2450.8577644997276,2450.8577644997276,2450.8577644997276,2450.8577644997276,2450.8577644997276,2450.8577644997276,2450.8577644997276,2450.8577644997276,2450.8577644997276,2453.3666006997228,2453.3666006997228,2453.3666006997228,2453.3666006997228,2453.3666006997228,72,45,59,62,72,66,4.0,2.060244900174439,2455.444580100011,2457.2732689999975,2373.667930800002,2373.667930800002,75.15367039991543,,,,120,f,1,2022-12-11_16h58.20.291,RL,2022.2.4,60.2567903852046,
1,76,0,76,0,,,,,,,,,,None,2457.2732689999975,2457.2732689999975,2457.2732689999975,2457.2732689999975,2457.2732689999975,2457.2732689999975,r,0.24408000009134412,2457.540779700037,2457.540779700037,2457.540779700037,2457.540779700037,2457.540779700037,2457.540779700037,2457.8387787998654,2457.8387787998654,2459.101776299998,2459.101776299998,2459.101776299998,2459.101776299998,2459.101776299998,2459.101776299998,2459.101776299998,2459.101776299998,2459.101776299998,2459.101776299998,2459.101776299998,2459.101776299998,2459.101776299998,2459.101776299998,2459.101776299998,2459.101776299998,2459.101776299998,2461.610783100128,2461.610783100128,2461.610783100128,2461.610783100128,2461.610783100128,69,40,58,51,69,62,4.0,1.5768067999742925,2463.2068245001137,2465.1355086998083,,,,,,,120,f,1,2022-12-11_16h58.20.291,RL,2022.2.4,60.2567903852046,
1,77,0,77,0,,,,,,,,,,None,2465.1355086998083,2465.1355086998083,2465.1355086998083,2465.1355086998083,2465.1355086998083,2465.1355086998083,j,0.33288889983668923,2465.5031138998456,2465.5031138998456,2465.5031138998456,2465.5031138998456,2465.5031138998456,2465.5031138998456,2465.800570699852,2465.800570699852,2467.346168600023,2467.346168600023,2467.346168600023,2467.346168600023,2467.346168600023,2467.346168600023,2467.346168600023,2467.346168600023,2467.346168600023,2467.346168600023,2467.346168600023,2467.346168600023,2467.346168600023,2467.346168600023,2467.346168600023,2467.346168600023,2467.346168600023,2469.855109800119,2469.855109800119,2469.855109800119,2469.855109800119,2469.855109800119,74,43,51,57,57,72,5.0,0.746582499705255,2470.619511900004,2472.365527200047,,,,,,,120,f,1,2022-12-11_16h58.20.291,RL,2022.2.4,60.2567903852046,
1,78,0,78,0,,,,,,,,,,None,2472.365527200047,2472.365527200047,2472.365527200047,2472.365527200047,2472.365527200047,2472.365527200047,i,0.2800710997544229,2472.6677262997255,2472.6677262997255,2472.6677262997255,2472.6677262997255,2472.6677262997255,2472.6677262997255,2472.964255400002,2472.964255400002,2474.8422528998926,2474.8422528998926,2474.8422528998926,2474.8422528998926,2474.8422528998926,2474.8422528998926,2474.8422528998926,2474.8422528998926,2474.8422528998926,2474.8422528998926,2474.8422528998926,2474.8422528998926,2474.8422528998926,2474.8422528998926,2474.8422528998926,2474.8422528998926,2474.8422528998926,2477.351285099983,2477.351285099983,2477.351285099983,2477.351285099983,2477.351285099983,64,43,53,58,53,80,6.0,1.2453719996847212,2478.614635599777,2480.4603121001273,,,,,,,120,f,1,2022-12-11_16h58.20.291,RL,2022.2.4,60.2567903852046,
1,79,0,79,0,,,,,,,,,,None,2480.4603121001273,2480.4603121001273,2480.4603121001273,2480.4603121001273,2480.4603121001273,2480.4603121001273,f,0.3301747003570199,2480.8115241997875,2480.8115241997875,2480.8115241997875,2480.8115241997875,2480.8115241997875,2480.8115241997875,2481.1087957997806,2481.1087957997806,2482.554546999745,2482.554546999745,2482.554546999745,2482.554546999745,2482.554546999745,2482.554546999745,2482.554546999745,2482.554546999745,2482.554546999745,2482.554546999745,2482.554546999745,2482.554546999745,2482.554546999745,2482.554546999745,2482.554546999745,2482.554546999745,2482.554546999745,2485.0634364001453,2485.0634364001453,2485.0634364001453,2485.0634364001453,2485.0634364001453,61,52,59,63,52,73,4.0,0.7475733002647758,2485.8284053001553,2487.3578133997507,,,,,,,120,f,1,2022-12-11_16h58.20.291,RL,2022.2.4,60.2567903852046,
1,80,0,80,0,,,,,,,,,,None,2487.3578133997507,2487.3578133997507,2487.3578133997507,2487.3578133997507,2487.3578133997507,2487.3578133997507,r,0.2903187000192702,2487.676804599818,2487.676804599818,2487.676804599818,2487.676804599818,2487.676804599818,2487.676804599818,2487.973179399967,2487.973179399967,2489.2033091001213,2489.2033091001213,2489.2033091001213,2489.2033091001213,2489.2033091001213,2489.2033091001213,2489.2033091001213,2489.2033091001213,2489.2033091001213,2489.2033091001213,2489.2033091001213,2489.2033091001213,2489.2033091001213,2489.2033091001213,2489.2033091001213,2489.2033091001213,2489.2033091001213,2491.7122928998433,2491.7122928998433,2491.7122928998433,2491.7122928998433,2491.7122928998433,58,49,68,63,58,65,5.0,0.8634615000337362,2492.59294540016,2494.305683999788,,,,,,,120,f,1,2022-12-11_16h58.20.291,RL,2022.2.4,60.2567903852046,
1,81,0,81,0,,,,,,,,,,None,2494.305683999788,2494.305683999788,2494.305683999788,2494.305683999788,2494.305683999788,2494.305683999788,r,0.3398770000785589,2494.6745428000577,2494.6745428000577,2494.6745428000577,2494.6745428000577,2494.6745428000577,2494.6745428000577,2494.9706776998937,2494.9706776998937,2495.801840200089,2495.801840200089,2495.801840200089,2495.801840200089,2495.801840200089,2495.801840200089,2495.801840200089,2495.801840200089,2495.801840200089,2495.801840200089,2495.801840200089,2495.801840200089,2495.801840200089,2495.801840200089,2495.801840200089,2495.801840200089,2495.801840200089,2498.311063100118,2498.311063100118,2498.311063100118,2498.311063100118,2498.311063100118,60,49,62,51,60,78,5.0,0.547503899782896,2498.8762321998365,2500.388993000146,,,,,,,120,f,1,2022-12-11_16h58.20.291,RL,2022.2.4,60.2567903852046,
1,82,0,82,0,,,,,,,,,,None,2500.388993000146,2500.388993000146,2500.388993000146,2500.388993000146,2500.388993000146,2500.388993000146,r,0.4541686000302434,2500.872448099777,2500.872448099777,2500.872448099777,2500.872448099777,2500.872448099777,2500.872448099777,2501.1703963000327,2501.1703963000327,2502.0513029997237,2502.0513029997237,2502.0677797999233,2502.0677797999233,2502.0677797999233,2502.0677797999233,2502.0677797999233,2502.0677797999233,2502.0677797999233,2502.0677797999233,2502.0677797999233,2502.0677797999233,2502.0677797999233,2502.0677797999233,2502.0677797999233,2502.0677797999233,2502.0677797999233,2504.576988299843,2504.576988299843,2504.576988299843,2504.576988299843,2504.576988299843,61,45,56,62,61,84,4.0,0.8637286997400224,2505.457679799758,2507.403620999772,,,,,,,120,f,1,2022-12-11_16h58.20.291,RL,2022.2.4,60.2567903852046,
1,83,0,83,0,,,,,,,,,,None,2507.403620999772,2507.403620999772,2507.403620999772,2507.403620999772,2507.403620999772,2507.403620999772,f,0.2871367000043392,2507.7214071000926,2507.7214071000926,2507.7214071000926,2507.7214071000926,2507.7214071000926,2507.7214071000926,2508.018583300058,2508.018583300058,2510.0132384998724,2510.0132384998724,2510.029687399976,2510.029687399976,2510.029687399976,2510.029687399976,2510.029687399976,2510.029687399976,2510.029687399976,2510.029687399976,2510.029687399976,2510.029687399976,2510.029687399976,2510.029687399976,2510.029687399976,2510.029687399976,2510.029687399976,2512.539028099738,2512.539028099738,2512.539028099738,2512.539028099738,2512.539028099738,60,45,53,58,45,64,5.0,0.6975054000504315,2513.253221000079,2515.015713499859,,,,,,,120,f,1,2022-12-11_16h58.20.291,RL,2022.2.4,60.2567903852046,
1,84,0,84,0,,,,,,,,,,None,2515.015713499859,2515.015713499859,2515.015713499859,2515.015713499859,2515.015713499859,2515.015713499859,f,0.30845100013539195,2515.35052860016,2515.35052860016,2515.35052860016,2515.35052860016,2515.35052860016,2515.35052860016,2515.6475474997424,2515.6475474997424,2516.8113910001703,2516.8113910001703,2516.8113910001703,2516.8113910001703,2516.8113910001703,2516.8113910001703,2516.8113910001703,2516.8113910001703,2516.8113910001703,2516.8113910001703,2516.8113910001703,2516.8113910001703,2516.8113910001703,2516.8113910001703,2516.8113910001703,2516.8113910001703,2516.8113910001703,2519.320572699886,2519.320572699886,2519.320572699886,2519.320572699886,2519.320572699886,55,46,49,64,46,67,5.0,0.6810389002785087,2520.0180224999785,2521.7140970998444,,,,,,,120,f,1,2022-12-11_16h58.20.291,RL,2022.2.4,60.2567903852046,
1,85,0,85,0,,,,,,,,,,None,2521.7140970998444,2521.7140970998444,2521.7140970998444,2521.7140970998444,2521.7140970998444,2521.7140970998444,f,0.30579589959234,2522.0486070998013,2522.0486070998013,2522.0486070998013,2522.0486070998013,2522.0486070998013,2522.0486070998013,2522.346143499948,2522.346143499948,2523.2268870999105,2523.2268870999105,2523.2268870999105,2523.2268870999105,2523.2268870999105,2523.2268870999105,2523.2268870999105,2523.2268870999105,2523.2268870999105,2523.2268870999105,2523.2268870999105,2523.2268870999105,2523.2268870999105,2523.2268870999105,2523.2268870999105,2523.2268870999105,2523.2268870999105,2525.736525400076,2525.736525400076,2525.736525400076,2525.736525400076,2525.736525400076,56,48,53,63,48,76,5.0,1.2453606999479234,2526.999006099999,2528.8779575000517,,,,,,,120,f,1,2022-12-11_16h58.20.291,RL,2022.2.4,60.2567903852046,
1,86,0,86,0,,,,,,,,,,None,2528.8779575000517,2528.8779575000517,2528.8779575000517,2528.8779575000517,2528.8779575000517,2528.8779575000517,j,0.3755468996241689,2529.2788462997414,2529.2788462997414,2529.2788462997414,2529.2788462997414,2529.2788462997414,2529.2788462997414,2529.57634399971,2529.57634399971,2530.523533700034,2530.523533700034,2530.5404538000003,2530.5404538000003,2530.5404538000003,2530.5404538000003,2530.5404538000003,2530.5404538000003,2530.5404538000003,2530.5404538000003,2530.5404538000003,2530.5404538000003,2530.5404538000003,2530.5404538000003,2530.5404538000003,2530.5404538000003,2530.5404538000003,2533.049461899791,2533.049461899791,2533.049461899791,2533.049461899791,2533.049461899791,53,44,49,60,60,50,5.0,0.4483535001054406,2533.5148477000184,2535.2104087001644,,,,,,,120,f,1,2022-12-11_16h58.20.291,RL,2022.2.4,60.2567903852046,
1,87,0,87,0,,,,,,,,,,None,2535.2104087001644,2535.2104087001644,2535.2104087001644,2535.2104087001644,2535.2104087001644,2535.2104087001644,j,0.3402358000166714,2535.5779721001163,2535.5779721001163,2535.5779721001163,2535.5779721001163,2535.5779721001163,2535.5779721001163,2535.876068300102,2535.876068300102,2537.1059758998454,2537.1059758998454,2537.1059758998454,2537.1059758998454,2537.1059758998454,2537.1059758998454,2537.1059758998454,2537.1059758998454,2537.1059758998454,2537.1059758998454,2537.1059758998454,2537.1059758998454,2537.1059758998454,2537.1059758998454,2537.1059758998454,2537.1059758998454,2537.1059758998454,2539.615011899732,2539.615011899732,2539.615011899732,2539.615011899732,2539.615011899732,50,43,49,63,63,78,6.0,1.6947157997637987,2541.327010499779,2543.2053294000216,,,,,,,120,f,1,2022-12-11_16h58.20.291,RL,2022.2.4,60.2567903852046,
1,88,0,88,0,,,,,,,,,,None,2543.2053294000216,2543.2053294000216,2543.2053294000216,2543.2053294000216,2543.2053294000216,2543.2053294000216,j,0.25667749997228384,2543.48977500014,2543.48977500014,2543.48977500014,2543.48977500014,2543.48977500014,2543.48977500014,2543.788010899909,2543.788010899909,2545.400077300146,2545.400077300146,2545.400077300146,2545.400077300146,2545.400077300146,2545.400077300146,2545.400077300146,2545.400077300146,2545.400077300146,2545.400077300146,2545.400077300146,2545.400077300146,2545.400077300146,2545.400077300146,2545.400077300146,2545.400077300146,2545.400077300146,2547.9089661999606,2547.9089661999606,2547.9089661999606,2547.9089661999606,2547.9089661999606,66,50,58,58,58,74,5.0,1.6940318001434207,2549.6206398997456,2551.399770000018,,,,,,,120,f,1,2022-12-11_16h58.20.291,RL,2022.2.4,60.2567903852046,
1,89,0,89,0,,,,,,,,,,None,2551.399770000018,2551.399770000018,2551.399770000018,2551.399770000018,2551.399770000018,2551.399770000018,i,0.312164600007236,2551.7351975999773,2551.7351975999773,2551.7351975999773,2551.7351975999773,2551.7351975999773,2551.7351975999773,2552.031973700039,2552.031973700039,2553.3777922000736,2553.3777922000736,2553.3777922000736,2553.3777922000736,2553.3777922000736,2553.3777922000736,2553.3777922000736,2553.3777922000736,2553.3777922000736,2553.3777922000736,2553.3777922000736,2553.3777922000736,2553.3777922000736,2553.3777922000736,2553.3777922000736,2553.3777922000736,2553.3777922000736,2555.8869169000536,2555.8869169000536,2555.8869169000536,2555.8869169000536,2555.8869169000536,61,50,50,62,50,76,4.0,1.2804179000668228,2557.183460799977,2558.7965047000907,,,,,,,120,f,1,2022-12-11_16h58.20.291,RL,2022.2.4,60.2567903852046,
1,90,0,90,0,,,,,,,,,,None,2558.7965047000907,2558.7965047000907,2558.7965047000907,2558.7965047000907,2558.7965047000907,2558.7965047000907,r,0.30714459996670485,2559.1315144998953,2559.1315144998953,2559.1315144998953,2559.1315144998953,2559.1315144998953,2559.1315144998953,2559.4282785998657,2559.4282785998657,2560.359198300168,2560.359198300168,2560.359198300168,2560.359198300168,2560.359198300168,2560.359198300168,2560.359198300168,2560.359198300168,2560.359198300168,2560.359198300168,2560.359198300168,2560.359198300168,2560.359198300168,2560.359198300168,2560.359198300168,2560.359198300168,2560.359198300168,2562.8679287997074,2562.8679287997074,2562.8679287997074,2562.8679287997074,2562.8679287997074,65,47,53,50,65,75,3.0,1.1629626001231372,2564.048352499958,2565.644302299712,,,,,,,120,f,1,2022-12-11_16h58.20.291,RL,2022.2.4,60.2567903852046,
1,91,0,91,0,,,,,,,,,,None,2565.644302299712,2565.644302299712,2565.644302299712,2565.644302299712,2565.644302299712,2565.644302299712,r,0.23679039999842644,2565.9130277000368,2565.9130277000368,2565.9130277000368,2565.9130277000368,2565.9130277000368,2565.9130277000368,2566.21003990015,2566.21003990015,2567.954849400092,2567.954849400092,2567.9717569998465,2567.9717569998465,2567.9717569998465,2567.9717569998465,2567.9717569998465,2567.9717569998465,2567.9717569998465,2567.9717569998465,2567.9717569998465,2567.9717569998465,2567.9717569998465,2567.9717569998465,2567.9717569998465,2567.9717569998465,2567.9717569998465,2570.480889900122,2570.480889900122,2570.480889900122,2570.480889900122,2570.480889900122,70,41,66,57,70,80,4.0,0.7460247999988496,2571.2450375999324,2573.0075447000563,,,,,,,120,f,1,2022-12-11_16h58.20.291,RL,2022.2.4,60.2567903852046,
1,92,0,92,0,,,,,,,,,,None,2573.0075447000563,2573.0075447000563,2573.0075447000563,2573.0075447000563,2573.0075447000563,2573.0075447000563,r,0.27639449993148446,2573.3076422000304,2573.3076422000304,2573.3076422000304,2573.3076422000304,2573.3076422000304,2573.3076422000304,2573.606334500015,2573.606334500015,2575.601062899921,2575.601062899921,2575.601062899921,2575.601062899921,2575.601062899921,2575.601062899921,2575.601062899921,2575.601062899921,2575.601062899921,2575.601062899921,2575.601062899921,2575.601062899921,2575.601062899921,2575.601062899921,2575.601062899921,2575.601062899921,2575.601062899921,2578.109672700055,2578.109672700055,2578.109672700055,2578.109672700055,2578.109672700055,74,46,69,69,74,71,5.0,0.7802687003277242,2578.9077487001196,2580.852886799723,,,,,,,120,f,1,2022-12-11_16h58.20.291,RL,2022.2.4,60.2567903852046,
1,93,0,93,0,,,,,,,,,,None,2580.852886799723,2580.852886799723,2580.852886799723,2580.852886799723,2580.852886799723,2580.852886799723,r,0.271083100233227,2581.1545974998735,2581.1545974998735,2581.1545974998735,2581.1545974998735,2581.1545974998735,2581.1545974998735,2581.451888300013,2581.451888300013,2583.296207800042,2583.296207800042,2583.296207800042,2583.296207800042,2583.296207800042,2583.296207800042,2583.296207800042,2583.296207800042,2583.296207800042,2583.296207800042,2583.296207800042,2583.296207800042,2583.296207800042,2583.296207800042,2583.296207800042,2583.296207800042,2583.296207800042,2585.8056076001376,2585.8056076001376,2585.8056076001376,2585.8056076001376,2585.8056076001376,63,44,65,65,63,72,4.0,1.7941900002770126,2587.616915300023,2589.612112000119,,,,,,,120,f,1,2022-12-11_16h58.20.291,RL,2022.2.4,60.2567903852046,
1,94,0,94,0,,,,,,,,,,None,2589.612112000119,2589.612112000119,2589.612112000119,2589.612112000119,2589.612112000119,2589.612112000119,r,0.2919892999343574,2589.9315140000544,2589.9315140000544,2589.9315140000544,2589.9315140000544,2589.9315140000544,2589.9315140000544,2590.227645599749,2590.227645599749,2592.02246080013,2592.02246080013,2592.02246080013,2592.02246080013,2592.02246080013,2592.02246080013,2592.02246080013,2592.02246080013,2592.02246080013,2592.02246080013,2592.02246080013,2592.02246080013,2592.02246080013,2592.02246080013,2592.02246080013,2592.02246080013,2592.02246080013,2594.531633600127,2594.531633600127,2594.531633600127,2594.531633600127,2594.531633600127,67,47,60,58,67,61,3.0,1.1131721995770931,2595.661788399797,2597.5737983998843,,,,,,,120,f,1,2022-12-11_16h58.20.291,RL,2022.2.4,60.2567903852046,
1,95,0,95,0,,,,,,,,,,None,2597.5737983998843,2597.5737983998843,2597.5737983998843,2597.5737983998843,2597.5737983998843,2597.5737983998843,r,0.2667519999668002,2597.87633930007,2597.87633930007,2597.87633930007,2597.87633930007,2597.87633930007,2597.87633930007,2598.1724874000065,2598.1724874000065,2599.6020113998093,2599.6020113998093,2599.6020113998093,2599.6020113998093,2599.6020113998093,2599.6020113998093,2599.6020113998093,2599.6020113998093,2599.6020113998093,2599.6020113998093,2599.6020113998093,2599.6020113998093,2599.6020113998093,2599.6020113998093,2599.6020113998093,2599.6020113998093,2599.6020113998093,2602.1111659999005,2602.1111659999005,2602.1111659999005,2602.1111659999005,2602.1111659999005,74,48,62,59,74,69,6.0,1.8769500004127622,2604.0060632000677,2605.751957499888,,,,,,,120,f,1,2022-12-11_16h58.20.291,RL,2022.2.4,60.2567903852046,
1,96,0,96,0,,,,,,,,,,None,2605.751957499888,2605.751957499888,2605.751957499888,2605.751957499888,2605.751957499888,2605.751957499888,r,0.2238900000229478,2606.001633599866,2606.001633599866,2606.001633599866,2606.001633599866,2606.001633599866,2606.001633599866,2606.3005654998124,2606.3005654998124,2608.062182100024,2608.062182100024,2608.062182100024,2608.062182100024,2608.062182100024,2608.062182100024,2608.062182100024,2608.062182100024,2608.062182100024,2608.062182100024,2608.062182100024,2608.062182100024,2608.062182100024,2608.062182100024,2608.062182100024,2608.062182100024,2608.062182100024,2610.5710959001444,2610.5710959001444,2610.5710959001444,2610.5710959001444,2610.5710959001444,60,54,57,62,60,70,5.0,0.8134502000175416,2611.402587799821,2613.2476292001083,,,,,,,120,f,1,2022-12-11_16h58.20.291,RL,2022.2.4,60.2567903852046,
1,97,0,97,0,,,,,,,,,,None,2613.2476292001083,2613.2476292001083,2613.2476292001083,2613.2476292001083,2613.2476292001083,2613.2476292001083,r,0.23096439987421036,2613.500105800107,2613.500105800107,2613.500105800107,2613.500105800107,2613.500105800107,2613.500105800107,2613.7969582998194,2613.7969582998194,2614.9270597998984,2614.9270597998984,2614.9270597998984,2614.9270597998984,2614.9270597998984,2614.9270597998984,2614.9270597998984,2614.9270597998984,2614.9270597998984,2614.9270597998984,2614.9270597998984,2614.9270597998984,2614.9270597998984,2614.9270597998984,2614.9270597998984,2614.9270597998984,2614.9270597998984,2617.4362710998394,2617.4362710998394,2617.4362710998394,2617.4362710998394,2617.4362710998394,68,49,73,53,68,64,5.0,0.9125496000051498,2618.366451200098,2620.062616399955,,,,,,,120,f,1,2022-12-11_16h58.20.291,RL,2022.2.4,60.2567903852046,
1,98,0,98,0,,,,,,,,,,None,2620.062616399955,2620.062616399955,2620.062616399955,2620.062616399955,2620.062616399955,2620.062616399955,r,0.4581983000971377,2620.5468071997166,2620.5468071997166,2620.5468071997166,2620.5468071997166,2620.5468071997166,2620.5468071997166,2620.84392210003,2620.84392210003,2622.605931899976,2622.605931899976,2622.605931899976,2622.605931899976,2622.605931899976,2622.605931899976,2622.605931899976,2622.605931899976,2622.605931899976,2622.605931899976,2622.605931899976,2622.605931899976,2622.605931899976,2622.605931899976,2622.605931899976,2622.605931899976,2622.605931899976,2625.11481679976,2625.11481679976,2625.11481679976,2625.11481679976,2625.11481679976,74,45,68,60,74,63,6.0,1.3619698998518288,2626.494320699945,2628.3563858997077,,,,,,,120,f,1,2022-12-11_16h58.20.291,RL,2022.2.4,60.2567903852046,
1,99,0,99,0,,,,,,,,,,None,2628.3563858997077,2628.3563858997077,2628.3563858997077,2628.3563858997077,2628.3563858997077,2628.3563858997077,r,0.24085710011422634,2628.6252608997747,2628.6252608997747,2628.6252608997747,2628.6252608997747,2628.6252608997747,2628.6252608997747,2628.922152100131,2628.922152100131,2630.018888699822,2630.018888699822,2630.018888699822,2630.018888699822,2630.018888699822,2630.018888699822,2630.018888699822,2630.018888699822,2630.018888699822,2630.018888699822,2630.018888699822,2630.018888699822,2630.018888699822,2630.018888699822,2630.018888699822,2630.018888699822,2630.018888699822,2632.5282899001613,2632.5282899001613,2632.5282899001613,2632.5282899001613,2632.5282899001613,61,46,61,50,61,58,5.0,1.2287718998268247,2633.7743323999457,2635.453818500042,,,,,,,120,f,1,2022-12-11_16h58.20.291,RL,2022.2.4,60.2567903852046,
1,100,0,100,0,,,,,,,,,,None,2635.453818500042,2635.453818500042,2635.453818500042,2635.453818500042,2635.453818500042,2635.453818500042,r,0.3049728996120393,2635.790641500149,2635.790641500149,2635.790641500149,2635.790641500149,2635.790641500149,2635.790641500149,2636.0860959999263,2636.0860959999263,2637.6650053998455,2637.6650053998455,2637.6650053998455,2637.6650053998455,2637.6650053998455,2637.6650053998455,2637.6650053998455,2637.6650053998455,2637.6650053998455,2637.6650053998455,2637.6650053998455,2637.6650053998455,2637.6650053998455,2637.6650053998455,2637.6650053998455,2637.6650053998455,2637.6650053998455,2640.174069999717,2640.174069999717,2640.174069999717,2640.174069999717,2640.174069999717,68,49,57,59,68,64,5.0,1.8436793996952474,2642.0352623001672,2643.631245699711,,,,,,,120,f,1,2022-12-11_16h58.20.291,RL,2022.2.4,60.2567903852046,
1,101,0,101,0,,,,,,,,,,None,2643.631245699711,2643.631245699711,2643.631245699711,2643.631245699711,2643.631245699711,2643.631245699711,r,0.2529668998904526,2643.9174751997925,2643.9174751997925,2643.9174751997925,2643.9174751997925,2643.9174751997925,2643.9174751997925,2644.2135731000453,2644.2135731000453,2645.825838800054,2645.825838800054,2645.825838800054,2645.825838800054,2645.825838800054,2645.825838800054,2645.825838800054,2645.825838800054,2645.825838800054,2645.825838800054,2645.825838800054,2645.825838800054,2645.825838800054,2645.825838800054,2645.825838800054,2645.825838800054,2645.825838800054,2648.334799800068,2648.334799800068,2648.334799800068,2648.334799800068,2648.334799800068,77,59,63,61,77,62,6.0,1.7945620999671519,2650.146718400065,2651.9921145001426,,,,,,,120,f,1,2022-12-11_16h58.20.291,RL,2022.2.4,60.2567903852046,
1,102,0,102,0,,,,,,,,,,None,2651.9921145001426,2651.9921145001426,2651.9921145001426,2651.9921145001426,2651.9921145001426,2651.9921145001426,r,0.24831650033593178,2652.2616614997387,2652.2616614997387,2652.2616614997387,2652.2616614997387,2652.2616614997387,2652.2616614997387,2652.5578391999006,2652.5578391999006,2653.6712327999994,2653.6712327999994,2653.6875211000443,2653.6875211000443,2653.6875211000443,2653.6875211000443,2653.6875211000443,2653.6875211000443,2653.6875211000443,2653.6875211000443,2653.6875211000443,2653.6875211000443,2653.6875211000443,2653.6875211000443,2653.6875211000443,2653.6875211000443,2653.6875211000443,2656.196990599856,2656.196990599856,2656.196990599856,2656.196990599856,2656.196990599856,68,54,68,59,68,49,5.0,0.9803273999132216,2657.193907899782,2658.7734616999514,,,,,,,120,f,1,2022-12-11_16h58.20.291,RL,2022.2.4,60.2567903852046,
1,103,0,103,0,,,,,,,,,,None,2658.7734616999514,2658.7734616999514,2658.7734616999514,2658.7734616999514,2658.7734616999514,2658.7734616999514,r,0.3088810001499951,2659.108141699806,2659.108141699806,2659.108141699806,2659.108141699806,2659.108141699806,2659.108141699806,2659.4056253000163,2659.4056253000163,2661.133912899997,2661.133912899997,2661.15110119991,2661.15110119991,2661.15110119991,2661.15110119991,2661.15110119991,2661.15110119991,2661.15110119991,2661.15110119991,2661.15110119991,2661.15110119991,2661.15110119991,2661.15110119991,2661.15110119991,2661.15110119991,2661.15110119991,2663.6594676999375,2663.6594676999375,2663.6594676999375,2663.6594676999375,2663.6594676999375,83,58,72,63,83,54,7.0,0.5977040999568999,2664.2748718997464,2665.93772980012,,,,,,,120,f,1,2022-12-11_16h58.20.291,RL,2022.2.4,60.2567903852046,
1,104,0,104,0,,,,,,,,,,None,2665.93772980012,2665.93772980012,2665.93772980012,2665.93772980012,2665.93772980012,2665.93772980012,r,0.25185649981722236,2666.222264799755,2666.222264799755,2666.222264799755,2666.222264799755,2666.222264799755,2666.222264799755,2666.51978519978,2666.51978519978,2668.4804850998335,2668.4804850998335,2668.4971308000386,2668.4971308000386,2668.4971308000386,2668.4971308000386,2668.4971308000386,2668.4971308000386,2668.4971308000386,2668.4971308000386,2668.4971308000386,2668.4971308000386,2668.4971308000386,2668.4971308000386,2668.4971308000386,2668.4971308000386,2668.4971308000386,2671.0068447999656,2671.0068447999656,2671.0068447999656,2671.0068447999656,2671.0068447999656,86,60,76,55,86,56,7.0,2.591731700114906,2673.6161148999818,2675.5946538997814,,,,,,,120,f,1,2022-12-11_16h58.20.291,RL,2022.2.4,60.2567903852046,
1,105,0,105,0,,,,,,,,,,None,2675.5946538997814,2675.5946538997814,2675.5946538997814,2675.5946538997814,2675.5946538997814,2675.5946538997814,r,0.2737060999497771,2675.8976996000856,2675.8976996000856,2675.8976996000856,2675.8976996000856,2675.8976996000856,2675.8976996000856,2676.193203299772,2676.193203299772,2677.738926900085,2677.738926900085,2677.738926900085,2677.738926900085,2677.738926900085,2677.738926900085,2677.738926900085,2677.738926900085,2677.738926900085,2677.738926900085,2677.738926900085,2677.738926900085,2677.738926900085,2677.738926900085,2677.738926900085,2677.738926900085,2677.738926900085,2680.2481237999164,2680.2481237999164,2680.2481237999164,2680.2481237999164,2680.2481237999164,77,57,74,60,77,55,6.0,1.1793112000450492,2681.4446727000177,2683.3232305999845,,,,,,,120,f,1,2022-12-11_16h58.20.291,RL,2022.2.4,60.2567903852046,
1,106,0,106,0,,,,,,,,,,None,2683.3232305999845,2683.3232305999845,2683.3232305999845,2683.3232305999845,2683.3232305999845,2683.3232305999845,r,0.20678640017285943,2683.5565542997792,2683.5565542997792,2683.5565542997792,2683.5565542997792,2683.5565542997792,2683.5565542997792,2683.855622800067,2683.855622800067,2685.3678711997345,2685.3678711997345,2685.3678711997345,2685.3678711997345,2685.3678711997345,2685.3678711997345,2685.3678711997345,2685.3678711997345,2685.3678711997345,2685.3678711997345,2685.3678711997345,2685.3678711997345,2685.3678711997345,2685.3678711997345,2685.3678711997345,2685.3678711997345,2685.3678711997345,2687.8768660998903,2687.8768660998903,2687.8768660998903,2687.8768660998903,2687.8768660998903,83,57,79,48,83,71,7.0,0.8471697997301817,2688.7412863997743,2690.3042147997767,,,,,,,120,f,1,2022-12-11_16h58.20.291,RL,2022.2.4,60.2567903852046,
1,107,0,107,0,,,,,,,,,,None,2690.3042147997767,2690.3042147997767,2690.3042147997767,2690.3042147997767,2690.3042147997767,2690.3042147997767,r,0.23319029994308949,2690.5720569998957,2690.5720569998957,2690.5720569998957,2690.5720569998957,2690.5720569998957,2690.5720569998957,2690.8695521000773,2690.8695521000773,2691.7176379999146,2691.7176379999146,2691.7176379999146,2691.7176379999146,2691.7176379999146,2691.7176379999146,2691.7176379999146,2691.7176379999146,2691.7176379999146,2691.7176379999146,2691.7176379999146,2691.7176379999146,2691.7176379999146,2691.7176379999146,2691.7176379999146,2691.7176379999146,2691.7176379999146,2694.226814699825,2694.226814699825,2694.226814699825,2694.226814699825,2694.226814699825,79,58,78,58,79,65,6.0,0.7465257998555899,2694.9909823997878,2696.7531678001396,,,,,,,120,f,1,2022-12-11_16h58.20.291,RL,2022.2.4,60.2567903852046,
1,108,0,108,0,,,,,,,,,,None,2696.7531678001396,2696.7531678001396,2696.7531678001396,2696.7531678001396,2696.7531678001396,2696.7531678001396,r,0.261548800393939,2697.0384188001044,2697.0384188001044,2697.0384188001044,2697.0384188001044,2697.0384188001044,2697.0384188001044,2697.3356288997456,2697.3356288997456,2698.3993697999977,2698.3993697999977,2698.3993697999977,2698.3993697999977,2698.3993697999977,2698.3993697999977,2698.3993697999977,2698.3993697999977,2698.3993697999977,2698.3993697999977,2698.3993697999977,2698.3993697999977,2698.3993697999977,2698.3993697999977,2698.3993697999977,2698.3993697999977,2698.3993697999977,2700.907958799973,2700.907958799973,2700.907958799973,2700.907958799973,2700.907958799973,81,61,74,61,81,59,7.0,0.4815929997712374,2701.406722600106,2702.9529988998547,,,,,,,120,f,1,2022-12-11_16h58.20.291,RL,2022.2.4,60.2567903852046,
1,109,0,109,0,,,,,,,,,,None,2702.9529988998547,2702.9529988998547,2702.9529988998547,2702.9529988998547,2702.9529988998547,2702.9529988998547,r,0.2948974003084004,2703.2713353997096,2703.2713353997096,2703.2713353997096,2703.2713353997096,2703.2713353997096,2703.2713353997096,2703.568454799708,2703.568454799708,2704.8814555001445,2704.8814555001445,2704.898061499931,2704.898061499931,2704.898061499931,2704.898061499931,2704.898061499931,2704.898061499931,2704.898061499931,2704.898061499931,2704.898061499931,2704.898061499931,2704.898061499931,2704.898061499931,2704.898061499931,2704.898061499931,2704.898061499931,2707.4068756997585,2707.4068756997585,2707.4068756997585,2707.4068756997585,2707.4068756997585,77,50,79,61,77,56,5.0,1.5779943000525236,2709.002586599905,2710.947877400089,,,,,,,120,f,1,2022-12-11_16h58.20.291,RL,2022.2.4,60.2567903852046,
1,110,0,110,0,,,,,,,,,,None,2710.947877400089,2710.947877400089,2710.947877400089,2710.947877400089,2710.947877400089,2710.947877400089,r,0.19571320014074445,2711.169684600085,2711.169684600085,2711.169684600085,2711.169684600085,2711.169684600085,2711.169684600085,2711.463907800149,2711.463907800149,2712.377846200019,2712.377846200019,2712.394137399737,2712.394137399737,2712.394137399737,2712.394137399737,2712.394137399737,2712.394137399737,2712.394137399737,2712.394137399737,2712.394137399737,2712.394137399737,2712.394137399737,2712.394137399737,2712.394137399737,2712.394137399737,2712.394137399737,2714.9034826997668,2714.9034826997668,2714.9034826997668,2714.9034826997668,2714.9034826997668,81,66,79,61,81,56,7.0,0.5313492999412119,2715.4516040999442,2717.430302700028,,,,,,,120,f,1,2022-12-11_16h58.20.291,RL,2022.2.4,60.2567903852046,
1,111,0,111,0,,,,,,,,,,None,2717.430302700028,2717.430302700028,2717.430302700028,2717.430302700028,2717.430302700028,2717.430302700028,r,0.25594429997727275,2717.7148330998607,2717.7148330998607,2717.7148330998607,2717.7148330998607,2717.7148330998607,2717.7148330998607,2718.012284900062,2718.012284900062,2719.9900719998404,2719.9900719998404,2719.9900719998404,2719.9900719998404,2719.9900719998404,2719.9900719998404,2719.9900719998404,2719.9900719998404,2719.9900719998404,2719.9900719998404,2719.9900719998404,2719.9900719998404,2719.9900719998404,2719.9900719998404,2719.9900719998404,2719.9900719998404,2719.9900719998404,2722.499390500132,2722.499390500132,2722.499390500132,2722.499390500132,2722.499390500132,76,64,82,60,76,53,6.0,0.7305360003374517,2723.247077600099,2724.843412499875,,,,,,,120,f,1,2022-12-11_16h58.20.291,RL,2022.2.4,60.2567903852046,
1,112,0,112,0,,,,,,,,,,None,2724.843412499875,2724.843412499875,2724.843412499875,2724.843412499875,2724.843412499875,2724.843412499875,r,0.8887932002544403,2725.761748999823,2725.761748999823,2725.761748999823,2725.761748999823,2725.761748999823,2725.761748999823,2726.0573823000304,2726.0573823000304,2726.9376803999767,2726.9376803999767,2726.9376803999767,2726.9376803999767,2726.9376803999767,2726.9376803999767,2726.9376803999767,2726.9376803999767,2726.9376803999767,2726.9376803999767,2726.9376803999767,2726.9376803999767,2726.9376803999767,2726.9376803999767,2726.9376803999767,2726.9376803999767,2726.9376803999767,2729.447255199775,2729.447255199775,2729.447255199775,2729.447255199775,2729.447255199775,77,69,78,56,77,63,6.0,0.614077600184828,2730.0784133998677,2731.741429099813,,,,,,,120,f,1,2022-12-11_16h58.20.291,RL,2022.2.4,60.2567903852046,
