bandit,trials.thisRepN,trials.thisTrialN,trials.thisN,trials.thisIndex,instru_img1.started,instru_resp.started,instru_resp.keys,instru_resp.rt,instru_img2.started,instru_resp2.started,instru_resp2.keys,instru_resp2.rt,fixbefore_2.started,rest_response.keys,red.started,green.started,yellow.started,blue.started,choose_bandit.started,Fixation.started,choose_bandit.keys,choose_bandit.rt,black.started,red_2.started,green_2.started,yellow_2.started,blue_2.started,fixation_2.started,docs.started,image_2.started,docs.stopped,image_2.stopped,black.stopped,red_2.stopped,green_2.stopped,yellow_2.stopped,blue_2.stopped,fixation_2.stopped,black_com.started,reward_sub.started,palyerb.started,reward__sub.started,compare.started,red_compare.started,green_com.started,yellow_com.started,blue_com.started,image_3.started,slider.started,text.started,image_4.started,image_5.started,rewardyellow,rewardred,rewardblue,rewardgreen,subchoose,playerb,slider.response,slider.rt,intertrialfix.started,intertrialfix.stopped,bigx.started,bigx.stopped,rest_image.started,rest_response.started,rest_response.rt,image.started,key_resp.started,key_resp.keys,participant,Gender,Age,date,expName,psychopyVersion,frameRate,
,,,,,1003.8180644996464,1003.8180644996464,space,37.57319310028106,,,,,,,,,,,,,,,,,,,,,,,,,,,,,,,,,,,,,,,,,,,,,,,,,,,,,,,,,,,,,,,121,f,21,2022-12-11_17h47.56.387,RL,2022.2.4,60.07604423436596,
,,,,,,,,,1041.4293654998764,1041.4293654998764,space,49.95608890010044,,,,,,,,,,,,,,,,,,,,,,,,,,,,,,,,,,,,,,,,,,,,,,,,,,,,,,,,,,,121,f,21,2022-12-11_17h47.56.387,RL,2022.2.4,60.07604423436596,
1,0,0,0,0,,,,,,,,,1091.4019138999283,None,1092.4177214000374,1092.4177214000374,1092.4177214000374,1092.4177214000374,1092.4177214000374,1092.4177214000374,r,1.0902420999482274,1093.589586299844,1093.589586299844,1093.589586299844,1093.589586299844,1093.589586299844,1093.589586299844,1093.8299038000405,1093.8299038000405,1095.4748690999113,1095.4748690999113,1095.543327699881,1095.543327699881,1095.543327699881,1095.543327699881,1095.543327699881,1095.543327699881,1095.543327699881,1095.543327699881,1095.543327699881,1095.543327699881,1095.543327699881,1095.543327699881,1095.543327699881,1095.543327699881,1095.543327699881,1098.0511435000226,1098.0511435000226,1098.0511435000226,1098.0511435000226,1098.0511435000226,59,54,55,43,59,55,4.0,2.143065799959004,1100.2558808997273,1102.2398842000403,,,,,,,,,121,f,21,2022-12-11_17h47.56.387,RL,2022.2.4,60.07604423436596,
1,1,0,1,0,,,,,,,,,,None,1102.2398842000403,1102.2398842000403,1102.2398842000403,1102.2398842000403,1102.2398842000403,1102.2398842000403,j,0.45405209995806217,1102.7247653999366,1102.7247653999366,1102.7247653999366,1102.7247653999366,1102.7247653999366,1102.7247653999366,1103.021790899802,1103.021790899802,1104.1688656997867,1104.1688656997867,1104.1688656997867,1104.1688656997867,1104.1688656997867,1104.1688656997867,1104.1688656997867,1104.1688656997867,1104.1688656997867,1104.1688656997867,1104.1688656997867,1104.1688656997867,1104.1688656997867,1104.1688656997867,1104.1688656997867,1104.1688656997867,1104.1688656997867,1106.6772598996758,1106.6772598996758,1106.6772598996758,1106.6772598996758,1106.6772598996758,58,51,46,46,46,33,5.0,1.710843900218606,1108.4059001998976,1110.4174942998216,,,,,,,,,121,f,21,2022-12-11_17h47.56.387,RL,2022.2.4,60.07604423436596,
1,2,0,2,0,,,,,,,,,,None,1110.4174942998216,1110.4174942998216,1110.4174942998216,1110.4174942998216,1110.4174942998216,1110.4174942998216,i,0.710202599875629,1111.153589699883,1111.153589699883,1111.153589699883,1111.153589699883,1111.153589699883,1111.153589699883,1111.44845669996,1111.44845669996,1112.54537529964,1112.54537529964,1112.5617228997871,1112.5617228997871,1112.5617228997871,1112.5617228997871,1112.5617228997871,1112.5617228997871,1112.5617228997871,1112.5617228997871,1112.5617228997871,1112.5617228997871,1112.5617228997871,1112.5617228997871,1112.5617228997871,1112.5617228997871,1112.5617228997871,1115.0709469998255,1115.0709469998255,1115.0709469998255,1115.0709469998255,1115.0709469998255,68,52,44,48,44,55,4.0,1.5280570001341403,1116.616640499793,1118.3960123998113,,,,,,,,,121,f,21,2022-12-11_17h47.56.387,RL,2022.2.4,60.07604423436596,
1,3,0,3,0,,,,,,,,,,None,1118.3960123998113,1118.3960123998113,1118.3960123998113,1118.3960123998113,1118.3960123998113,1118.3960123998113,f,0.7317571002058685,1119.1632333998568,1119.1632333998568,1119.1632333998568,1119.1632333998568,1119.1632333998568,1119.1632333998568,1119.4599350998178,1119.4599350998178,1120.523768299725,1120.523768299725,1120.523768299725,1120.523768299725,1120.523768299725,1120.523768299725,1120.523768299725,1120.523768299725,1120.523768299725,1120.523768299725,1120.523768299725,1120.523768299725,1120.523768299725,1120.523768299725,1120.523768299725,1120.523768299725,1120.523768299725,1123.0329911997542,1123.0329911997542,1123.0329911997542,1123.0329911997542,1123.0329911997542,53,50,37,50,50,58,4.0,0.9810071000829339,1124.0300332996994,1125.776050799992,,,,,,,,,121,f,21,2022-12-11_17h47.56.387,RL,2022.2.4,60.07604423436596,
1,4,0,4,0,,,,,,,,,,None,1125.776050799992,1125.776050799992,1125.776050799992,1125.776050799992,1125.776050799992,1125.776050799992,i,0.6888049999251962,1126.4932689997368,1126.4932689997368,1126.4932689997368,1126.4932689997368,1126.4932689997368,1126.4932689997368,1126.7897823997773,1126.7897823997773,1128.086210299749,1128.086210299749,1128.086210299749,1128.086210299749,1128.086210299749,1128.086210299749,1128.086210299749,1128.086210299749,1128.086210299749,1128.086210299749,1128.086210299749,1128.086210299749,1128.086210299749,1128.086210299749,1128.086210299749,1128.086210299749,1128.086210299749,1130.5955190998502,1130.5955190998502,1130.5955190998502,1130.5955190998502,1130.5955190998502,62,43,45,59,45,63,3.0,0.6975577003322542,1131.309996199794,1133.0394142000005,,,,,,,,,121,f,21,2022-12-11_17h47.56.387,RL,2022.2.4,60.07604423436596,
1,5,0,5,0,,,,,,,,,,None,1133.0394142000005,1133.0394142000005,1133.0394142000005,1133.0394142000005,1133.0394142000005,1133.0394142000005,r,0.5165967997163534,1133.590837799944,1133.590837799944,1133.590837799944,1133.590837799944,1133.590837799944,1133.590837799944,1133.8872422999702,1133.8872422999702,1135.5161120998673,1135.5161120998673,1135.5161120998673,1135.5161120998673,1135.5161120998673,1135.5161120998673,1135.5161120998673,1135.5161120998673,1135.5161120998673,1135.5161120998673,1135.5161120998673,1135.5161120998673,1135.5161120998673,1135.5161120998673,1135.5161120998673,1135.5161120998673,1135.5161120998673,1138.025203799829,1138.025203799829,1138.025203799829,1138.025203799829,1138.025203799829,61,46,44,64,61,66,4.0,0.7631051000207663,1138.8063070997596,1140.7349235997535,,,,,,,,,121,f,21,2022-12-11_17h47.56.387,RL,2022.2.4,60.07604423436596,
1,6,0,6,0,,,,,,,,,,None,1140.7349235997535,1140.7349235997535,1140.7349235997535,1140.7349235997535,1140.7349235997535,1140.7349235997535,f,0.39805900026112795,1141.1543490998447,1141.1543490998447,1141.1543490998447,1141.1543490998447,1141.1543490998447,1141.1543490998447,1141.4499959996901,1141.4499959996901,1143.2280974998139,1143.2280974998139,1143.2452600998804,1143.2452600998804,1143.2452600998804,1143.2452600998804,1143.2452600998804,1143.2452600998804,1143.2452600998804,1143.2452600998804,1143.2452600998804,1143.2452600998804,1143.2452600998804,1143.2452600998804,1143.2452600998804,1143.2452600998804,1143.2452600998804,1145.7539495998062,1145.7539495998062,1145.7539495998062,1145.7539495998062,1145.7539495998062,61,45,46,64,45,63,3.0,1.0964957997202873,1146.8673572996631,1148.3806484998204,,,,,,,,,121,f,21,2022-12-11_17h47.56.387,RL,2022.2.4,60.07604423436596,
1,7,0,7,0,,,,,,,,,,None,1148.3806484998204,1148.3806484998204,1148.3806484998204,1148.3806484998204,1148.3806484998204,1148.3806484998204,i,0.3881009998731315,1148.798689499963,1148.798689499963,1148.798689499963,1148.798689499963,1148.798689499963,1148.798689499963,1149.0958936000243,1149.0958936000243,1150.4250147999264,1150.4250147999264,1150.4250147999264,1150.4250147999264,1150.4250147999264,1150.4250147999264,1150.4250147999264,1150.4250147999264,1150.4250147999264,1150.4250147999264,1150.4250147999264,1150.4250147999264,1150.4250147999264,1150.4250147999264,1150.4250147999264,1150.4250147999264,1150.4250147999264,1152.934755699709,1152.934755699709,1152.934755699709,1152.934755699709,1152.934755699709,58,43,53,60,53,72,3.0,0.9143728003837168,1153.8653159998357,1155.810512199998,,,,,,,,,121,f,21,2022-12-11_17h47.56.387,RL,2022.2.4,60.07604423436596,
1,8,0,8,0,,,,,,,,,,None,1155.810512199998,1155.810512199998,1155.810512199998,1155.810512199998,1155.810512199998,1155.810512199998,f,0.3796001998707652,1156.2112288000062,1156.2112288000062,1156.2112288000062,1156.2112288000062,1156.2112288000062,1156.2112288000062,1156.5088402000256,1156.5088402000256,1158.4699786999263,1158.4699786999263,1158.4699786999263,1158.4699786999263,1158.4699786999263,1158.4699786999263,1158.4699786999263,1158.4699786999263,1158.4699786999263,1158.4699786999263,1158.4699786999263,1158.4699786999263,1158.4699786999263,1158.4699786999263,1158.4699786999263,1158.4699786999263,1158.4699786999263,1160.9790427996777,1160.9790427996777,1160.9790427996777,1160.9790427996777,1160.9790427996777,64,42,48,52,42,68,2.0,0.8130474998615682,1161.8104420998134,1163.4229461997747,,,,,,,,,121,f,21,2022-12-11_17h47.56.387,RL,2022.2.4,60.07604423436596,
1,9,0,9,0,,,,,,,,,,None,1163.4229461997747,1163.4229461997747,1163.4229461997747,1163.4229461997747,1163.4229461997747,1163.4229461997747,r,0.4833801998756826,1163.9425500999205,1163.9425500999205,1163.9425500999205,1163.9425500999205,1163.9425500999205,1163.9425500999205,1164.2381114000455,1164.2381114000455,1165.4674984999,1165.4674984999,1165.4674984999,1165.4674984999,1165.4674984999,1165.4674984999,1165.4674984999,1165.4674984999,1165.4674984999,1165.4674984999,1165.4674984999,1165.4674984999,1165.4674984999,1165.4674984999,1165.4674984999,1165.4674984999,1165.4674984999,1167.9770052996464,1167.9770052996464,1167.9770052996464,1167.9770052996464,1167.9770052996464,64,44,52,53,64,73,3.0,0.8125146003440022,1168.8076065997593,1170.3873679996468,,,,,,,,,121,f,21,2022-12-11_17h47.56.387,RL,2022.2.4,60.07604423436596,
1,10,0,10,0,,,,,,,,,,None,1170.3873679996468,1170.3873679996468,1170.3873679996468,1170.3873679996468,1170.3873679996468,1170.3873679996468,i,0.3167118998244405,1170.7381747998297,1170.7381747998297,1170.7381747998297,1170.7381747998297,1170.7381747998297,1170.7381747998297,1171.0360568999313,1171.0360568999313,1172.9967696997337,1172.9967696997337,1172.9967696997337,1172.9967696997337,1172.9967696997337,1172.9967696997337,1172.9967696997337,1172.9967696997337,1172.9967696997337,1172.9967696997337,1172.9967696997337,1172.9967696997337,1172.9967696997337,1172.9967696997337,1172.9967696997337,1172.9967696997337,1172.9967696997337,1175.5059894998558,1175.5059894998558,1175.5059894998558,1175.5059894998558,1175.5059894998558,62,40,47,51,47,20,5.0,1.0793583998456597,1176.6029428998008,1178.1162932999432,,,,,,,,,121,f,21,2022-12-11_17h47.56.387,RL,2022.2.4,60.07604423436596,
1,11,0,11,0,,,,,,,,,,None,1178.1162932999432,1178.1162932999432,1178.1162932999432,1178.1162932999432,1178.1162932999432,1178.1162932999432,j,0.43907100008800626,1178.5865349997766,1178.5865349997766,1178.5865349997766,1178.5865349997766,1178.5865349997766,1178.5865349997766,1178.881455899682,1178.881455899682,1180.010960499756,1180.010960499756,1180.010960499756,1180.010960499756,1180.010960499756,1180.010960499756,1180.010960499756,1180.010960499756,1180.010960499756,1180.010960499756,1180.010960499756,1180.010960499756,1180.010960499756,1180.010960499756,1180.010960499756,1180.010960499756,1180.010960499756,1182.5206959000789,1182.5206959000789,1182.5206959000789,1182.5206959000789,1182.5206959000789,65,43,55,43,43,41,4.0,0.9459804999642074,1183.484242099803,1185.1472383998334,,,,,,,,,121,f,21,2022-12-11_17h47.56.387,RL,2022.2.4,60.07604423436596,
1,12,0,12,0,,,,,,,,,,None,1185.1472383998334,1185.1472383998334,1185.1472383998334,1185.1472383998334,1185.1472383998334,1185.1472383998334,i,0.29981209989637136,1185.4798645996489,1185.4798645996489,1185.4798645996489,1185.4798645996489,1185.4798645996489,1185.4798645996489,1185.7791919996962,1185.7791919996962,1187.5905927000567,1187.5905927000567,1187.5905927000567,1187.5905927000567,1187.5905927000567,1187.5905927000567,1187.5905927000567,1187.5905927000567,1187.5905927000567,1187.5905927000567,1187.5905927000567,1187.5905927000567,1187.5905927000567,1187.5905927000567,1187.5905927000567,1187.5905927000567,1187.5905927000567,1190.0997540997341,1190.0997540997341,1190.0997540997341,1190.0997540997341,1190.0997540997341,60,44,59,57,59,67,4.0,0.9461505999788642,1191.0635035997257,1192.6101660998538,,,,,,,,,121,f,21,2022-12-11_17h47.56.387,RL,2022.2.4,60.07604423436596,
1,13,0,13,0,,,,,,,,,,None,1192.6101660998538,1192.6101660998538,1192.6101660998538,1192.6101660998538,1192.6101660998538,1192.6101660998538,f,0.27420519990846515,1192.9142732997425,1192.9142732997425,1192.9142732997425,1192.9142732997425,1192.9142732997425,1192.9142732997425,1193.2087125000544,1193.2087125000544,1194.7213121997193,1194.7213121997193,1194.7383105996996,1194.7383105996996,1194.7383105996996,1194.7383105996996,1194.7383105996996,1194.7383105996996,1194.7383105996996,1194.7383105996996,1194.7383105996996,1194.7383105996996,1194.7383105996996,1194.7383105996996,1194.7383105996996,1194.7383105996996,1194.7383105996996,1197.247136299964,1197.247136299964,1197.247136299964,1197.247136299964,1197.247136299964,67,40,65,55,40,27,5.0,0.913340900093317,1198.1775535997003,1199.7736136997119,,,,,,,,,121,f,21,2022-12-11_17h47.56.387,RL,2022.2.4,60.07604423436596,
1,14,0,14,0,,,,,,,,,,None,1199.7736136997119,1199.7736136997119,1199.7736136997119,1199.7736136997119,1199.7736136997119,1199.7736136997119,i,0.39239839976653457,1200.1913628997281,1200.1913628997281,1200.1913628997281,1200.1913628997281,1200.1913628997281,1200.1913628997281,1200.4889360996895,1200.4889360996895,1201.5859044999816,1201.5859044999816,1201.5859044999816,1201.5859044999816,1201.5859044999816,1201.5859044999816,1201.5859044999816,1201.5859044999816,1201.5859044999816,1201.5859044999816,1201.5859044999816,1201.5859044999816,1201.5859044999816,1201.5859044999816,1201.5859044999816,1201.5859044999816,1201.5859044999816,1204.094891499728,1204.094891499728,1204.094891499728,1204.094891499728,1204.094891499728,72,40,55,50,55,76,3.0,1.3452791003510356,1205.4576609996147,1207.020726500079,,,,,,,,,121,f,21,2022-12-11_17h47.56.387,RL,2022.2.4,60.07604423436596,
1,15,0,15,0,,,,,,,,,,None,1207.020726500079,1207.020726500079,1207.020726500079,1207.020726500079,1207.020726500079,1207.020726500079,r,0.7157954000867903,1207.7712185997516,1207.7712185997516,1207.7712185997516,1207.7712185997516,1207.7712185997516,1207.7712185997516,1208.0680235000327,1208.0680235000327,1209.6804521996528,1209.6804521996528,1209.6804521996528,1209.6804521996528,1209.6804521996528,1209.6804521996528,1209.6804521996528,1209.6804521996528,1209.6804521996528,1209.6804521996528,1209.6804521996528,1209.6804521996528,1209.6804521996528,1209.6804521996528,1209.6804521996528,1209.6804521996528,1209.6804521996528,1212.189467499964,1212.189467499964,1212.189467499964,1212.189467499964,1212.189467499964,72,45,56,60,72,72,6.0,0.8637613002210855,1213.0707910000347,1214.73336499976,,,,,,,,,121,f,21,2022-12-11_17h47.56.387,RL,2022.2.4,60.07604423436596,
1,16,0,16,0,,,,,,,,,,None,1214.73336499976,1214.73336499976,1214.73336499976,1214.73336499976,1214.73336499976,1214.73336499976,f,0.23037320002913475,1214.9846721999347,1214.9846721999347,1214.9846721999347,1214.9846721999347,1214.9846721999347,1214.9846721999347,1215.2822201997042,1215.2822201997042,1216.2792912996374,1216.2792912996374,1216.2792912996374,1216.2792912996374,1216.2792912996374,1216.2792912996374,1216.2792912996374,1216.2792912996374,1216.2792912996374,1216.2792912996374,1216.2792912996374,1216.2792912996374,1216.2792912996374,1216.2792912996374,1216.2792912996374,1216.2792912996374,1216.2792912996374,1218.7882346999831,1218.7882346999831,1218.7882346999831,1218.7882346999831,1218.7882346999831,67,34,60,65,34,74,2.0,1.0963485999964178,1219.9015704998747,1221.4150026999414,,,,,,,,,121,f,21,2022-12-11_17h47.56.387,RL,2022.2.4,60.07604423436596,
1,17,0,17,0,,,,,,,,,,None,1221.4150026999414,1221.4150026999414,1221.4150026999414,1221.4150026999414,1221.4150026999414,1221.4150026999414,i,0.4853149000555277,1221.9327725996263,1221.9327725996263,1221.9327725996263,1221.9327725996263,1221.9327725996263,1221.9327725996263,1222.2297624000348,1222.2297624000348,1223.4924544999376,1223.4924544999376,1223.4924544999376,1223.4924544999376,1223.4924544999376,1223.4924544999376,1223.4924544999376,1223.4924544999376,1223.4924544999376,1223.4924544999376,1223.4924544999376,1223.4924544999376,1223.4924544999376,1223.4924544999376,1223.4924544999376,1223.4924544999376,1223.4924544999376,1226.0016020997427,1226.0016020997427,1226.0016020997427,1226.0016020997427,1226.0016020997427,70,37,50,54,50,74,3.0,0.9469999996945262,1226.9657208998688,1228.6287561999634,,,,,,,,,121,f,21,2022-12-11_17h47.56.387,RL,2022.2.4,60.07604423436596,
1,18,0,18,0,,,,,,,,,,None,1228.6287561999634,1228.6287561999634,1228.6287561999634,1228.6287561999634,1228.6287561999634,1228.6287561999634,j,0.40321930032223463,1229.0654311999679,1229.0654311999679,1229.0654311999679,1229.0654311999679,1229.0654311999679,1229.0654311999679,1229.3602045997977,1229.3602045997977,1230.3740237997845,1230.3740237997845,1230.3903545998037,1230.3903545998037,1230.3903545998037,1230.3903545998037,1230.3903545998037,1230.3903545998037,1230.3903545998037,1230.3903545998037,1230.3903545998037,1230.3903545998037,1230.3903545998037,1230.3903545998037,1230.3903545998037,1230.3903545998037,1230.3903545998037,1232.8997260998003,1232.8997260998003,1232.8997260998003,1232.8997260998003,1232.8997260998003,63,40,52,62,62,69,4.0,1.6282123997807503,1234.5449561998248,1236.4905351996422,,,,,,,,,121,f,21,2022-12-11_17h47.56.387,RL,2022.2.4,60.07604423436596,
1,19,0,19,0,,,,,,,,,,None,1236.4905351996422,1236.4905351996422,1236.4905351996422,1236.4905351996422,1236.4905351996422,1236.4905351996422,f,0.2618834003806114,1236.7749418998137,1236.7749418998137,1236.7749418998137,1236.7749418998137,1236.7749418998137,1236.7749418998137,1237.072233099956,1237.072233099956,1238.318905299995,1238.318905299995,1238.3358455998823,1238.3358455998823,1238.3358455998823,1238.3358455998823,1238.3358455998823,1238.3358455998823,1238.3358455998823,1238.3358455998823,1238.3358455998823,1238.3358455998823,1238.3358455998823,1238.3358455998823,1238.3358455998823,1238.3358455998823,1238.3358455998823,1240.8447806998156,1240.8447806998156,1240.8447806998156,1240.8447806998156,1240.8447806998156,62,42,38,55,42,20,4.0,1.1125186001881957,1241.9748939997517,1243.6538954996504,,,,,,,,,121,f,21,2022-12-11_17h47.56.387,RL,2022.2.4,60.07604423436596,
1,20,0,20,0,,,,,,,,,,None,1243.6538954996504,1243.6538954996504,1243.6538954996504,1243.6538954996504,1243.6538954996504,1243.6538954996504,i,0.34520530002191663,1244.0245256000198,1244.0245256000198,1244.0245256000198,1244.0245256000198,1244.0245256000198,1244.0245256000198,1244.3194549996406,1244.3194549996406,1245.8649994996376,1245.8649994996376,1245.8649994996376,1245.8649994996376,1245.8649994996376,1245.8649994996376,1245.8649994996376,1245.8649994996376,1245.8649994996376,1245.8649994996376,1245.8649994996376,1245.8649994996376,1245.8649994996376,1245.8649994996376,1245.8649994996376,1245.8649994996376,1245.8649994996376,1248.3742231000215,1248.3742231000215,1248.3742231000215,1248.3742231000215,1248.3742231000215,62,31,51,50,51,72,4.0,1.6437113001011312,1250.0360504998825,1251.9318585996516,,,,,,,,,121,f,21,2022-12-11_17h47.56.387,RL,2022.2.4,60.07604423436596,
1,21,0,21,0,,,,,,,,,,None,1251.9318585996516,1251.9318585996516,1251.9318585996516,1251.9318585996516,1251.9318585996516,1251.9318585996516,f,0.21306429989635944,1252.1664529996924,1252.1664529996924,1252.1664529996924,1252.1664529996924,1252.1664529996924,1252.1664529996924,1252.4640103997663,1252.4640103997663,1254.009713199921,1254.009713199921,1254.009713199921,1254.009713199921,1254.009713199921,1254.009713199921,1254.009713199921,1254.009713199921,1254.009713199921,1254.009713199921,1254.009713199921,1254.009713199921,1254.009713199921,1254.009713199921,1254.009713199921,1254.009713199921,1254.009713199921,1256.51866349997,1256.51866349997,1256.51866349997,1256.51866349997,1256.51866349997,62,38,51,50,38,67,2.0,0.7147307000122964,1257.2498008999974,1259.0618976997212,,,,,,,,,121,f,21,2022-12-11_17h47.56.387,RL,2022.2.4,60.07604423436596,
1,22,0,22,0,,,,,,,,,,None,1259.0618976997212,1259.0618976997212,1259.0618976997212,1259.0618976997212,1259.0618976997212,1259.0618976997212,r,0.26915920013561845,1259.3632640000433,1259.3632640000433,1259.3632640000433,1259.3632640000433,1259.3632640000433,1259.3632640000433,1259.6605589999817,1259.6605589999817,1261.3227222999558,1261.3227222999558,1261.3394643999636,1261.3394643999636,1261.3394643999636,1261.3394643999636,1261.3394643999636,1261.3394643999636,1261.3394643999636,1261.3394643999636,1261.3394643999636,1261.3394643999636,1261.3394643999636,1261.3394643999636,1261.3394643999636,1261.3394643999636,1261.3394643999636,1263.8488582996652,1263.8488582996652,1263.8488582996652,1263.8488582996652,1263.8488582996652,60,24,46,50,60,40,5.0,1.0468219998292625,1264.9122530999593,1266.6412173998542,,,,,,,,,121,f,21,2022-12-11_17h47.56.387,RL,2022.2.4,60.07604423436596,
1,23,0,23,0,,,,,,,,,,None,1266.6412173998542,1266.6412173998542,1266.6412173998542,1266.6412173998542,1266.6412173998542,1266.6412173998542,f,0.32154469983652234,1266.9922328996472,1266.9922328996472,1266.9922328996472,1266.9922328996472,1266.9922328996472,1266.9922328996472,1267.28965219995,1267.28965219995,1268.2377221998759,1268.2377221998759,1268.2377221998759,1268.2377221998759,1268.2377221998759,1268.2377221998759,1268.2377221998759,1268.2377221998759,1268.2377221998759,1268.2377221998759,1268.2377221998759,1268.2377221998759,1268.2377221998759,1268.2377221998759,1268.2377221998759,1268.2377221998759,1268.2377221998759,1270.7464199997485,1270.7464199997485,1270.7464199997485,1270.7464199997485,1270.7464199997485,66,23,36,40,23,76,3.0,1.7777174999937415,1272.5413945000619,1274.287515499629,,,,,,,,,121,f,21,2022-12-11_17h47.56.387,RL,2022.2.4,60.07604423436596,
1,24,0,24,0,,,,,,,,,,None,1274.287515499629,1274.287515499629,1274.287515499629,1274.287515499629,1274.287515499629,1274.287515499629,i,0.34605540009215474,1274.654448799789,1274.654448799789,1274.654448799789,1274.654448799789,1274.654448799789,1274.654448799789,1274.9521367000416,1274.9521367000416,1276.1823891997337,1276.1823891997337,1276.1823891997337,1276.1823891997337,1276.1823891997337,1276.1823891997337,1276.1823891997337,1276.1823891997337,1276.1823891997337,1276.1823891997337,1276.1823891997337,1276.1823891997337,1276.1823891997337,1276.1823891997337,1276.1823891997337,1276.1823891997337,1276.1823891997337,1278.6913552000187,1278.6913552000187,1278.6913552000187,1278.6913552000187,1278.6913552000187,64,28,43,41,43,45,4.0,0.8469638000242412,1279.5557088996284,1281.4678128999658,,,,,,,,,121,f,21,2022-12-11_17h47.56.387,RL,2022.2.4,60.07604423436596,
1,25,0,25,0,,,,,,,,,,None,1281.4678128999658,1281.4678128999658,1281.4678128999658,1281.4678128999658,1281.4678128999658,1281.4678128999658,f,0.312293800059706,1281.8033189000562,1281.8033189000562,1281.8033189000562,1281.8033189000562,1281.8033189000562,1281.8033189000562,1282.0997655000538,1282.0997655000538,1283.3792359000072,1283.3792359000072,1283.3959311000071,1283.3959311000071,1283.3959311000071,1283.3959311000071,1283.3959311000071,1283.3959311000071,1283.3959311000071,1283.3959311000071,1283.3959311000071,1283.3959311000071,1283.3959311000071,1283.3959311000071,1283.3959311000071,1283.3959311000071,1283.3959311000071,1285.9053289997391,1285.9053289997391,1285.9053289997391,1285.9053289997391,1285.9053289997391,63,23,40,39,23,75,2.0,1.7112680999562144,1287.6333256997168,1289.263205099851,,,,,,,,,121,f,21,2022-12-11_17h47.56.387,RL,2022.2.4,60.07604423436596,
1,26,0,26,0,,,,,,,,,,None,1289.263205099851,1289.263205099851,1289.263205099851,1289.263205099851,1289.263205099851,1289.263205099851,i,0.28271570010110736,1289.5815178998746,1289.5815178998746,1289.5815178998746,1289.5815178998746,1289.5815178998746,1289.5815178998746,1289.8782176999375,1289.8782176999375,1290.7758571999148,1290.7758571999148,1290.7758571999148,1290.7758571999148,1290.7758571999148,1290.7758571999148,1290.7758571999148,1290.7758571999148,1290.7758571999148,1290.7758571999148,1290.7758571999148,1290.7758571999148,1290.7758571999148,1290.7758571999148,1290.7758571999148,1290.7758571999148,1290.7758571999148,1293.2851744997315,1293.2851744997315,1293.2851744997315,1293.2851744997315,1293.2851744997315,59,20,50,38,50,79,3.0,1.1626748000271618,1294.4651313996874,1296.0278913998045,,,,,,,,,121,f,21,2022-12-11_17h47.56.387,RL,2022.2.4,60.07604423436596,
1,27,0,27,0,,,,,,,,,,None,1296.0278913998045,1296.0278913998045,1296.0278913998045,1296.0278913998045,1296.0278913998045,1296.0278913998045,j,0.2946973997168243,1296.346257600002,1296.346257600002,1296.346257600002,1296.346257600002,1296.346257600002,1296.346257600002,1296.6433562999591,1296.6433562999591,1297.6738041997887,1297.6738041997887,1297.6738041997887,1297.6738041997887,1297.6738041997887,1297.6738041997887,1297.6738041997887,1297.6738041997887,1297.6738041997887,1297.6738041997887,1297.6738041997887,1297.6738041997887,1297.6738041997887,1297.6738041997887,1297.6738041997887,1297.6738041997887,1297.6738041997887,1300.1827785000205,1300.1827785000205,1300.1827785000205,1300.1827785000205,1300.1827785000205,62,32,43,41,41,23,5.0,1.096076199784875,1301.2965958998539,1302.909286200069,,,,,,,,,121,f,21,2022-12-11_17h47.56.387,RL,2022.2.4,60.07604423436596,
1,28,0,28,0,,,,,,,,,,None,1302.909286200069,1302.909286200069,1302.909286200069,1302.909286200069,1302.909286200069,1302.909286200069,f,0.4906898997724056,1303.4260676996782,1303.4260676996782,1303.4260676996782,1303.4260676996782,1303.4260676996782,1303.4260676996782,1303.723933399655,1303.723933399655,1305.1200012997724,1305.1200012997724,1305.1200012997724,1305.1200012997724,1305.1200012997724,1305.1200012997724,1305.1200012997724,1305.1200012997724,1305.1200012997724,1305.1200012997724,1305.1200012997724,1305.1200012997724,1305.1200012997724,1305.1200012997724,1305.1200012997724,1305.1200012997724,1305.1200012997724,1307.6292240996845,1307.6292240996845,1307.6292240996845,1307.6292240996845,1307.6292240996845,70,31,39,47,31,68,3.0,1.4616029998287559,1309.108047499787,1311.1036439999007,,,,,,,,,121,f,21,2022-12-11_17h47.56.387,RL,2022.2.4,60.07604423436596,
1,29,0,29,0,,,,,,,,,,None,1311.1036439999007,1311.1036439999007,1311.1036439999007,1311.1036439999007,1311.1036439999007,1311.1036439999007,i,0.4355863998644054,1311.571096799802,1311.571096799802,1311.571096799802,1311.571096799802,1311.571096799802,1311.571096799802,1311.8681572997011,1311.8681572997011,1313.0647350996733,1313.0647350996733,1313.0812899000011,1313.0812899000011,1313.0812899000011,1313.0812899000011,1313.0812899000011,1313.0812899000011,1313.0812899000011,1313.0812899000011,1313.0812899000011,1313.0812899000011,1313.0812899000011,1313.0812899000011,1313.0812899000011,1313.0812899000011,1313.0812899000011,1315.5906889997423,1315.5906889997423,1315.5906889997423,1315.5906889997423,1315.5906889997423,61,28,41,41,41,53,2.0,0.7975687002763152,1316.404853799846,1318.1678184000775,,,,,,,,,121,f,21,2022-12-11_17h47.56.387,RL,2022.2.4,60.07604423436596,
1,30,0,30,0,,,,,,,,,,None,1318.1678184000775,1318.1678184000775,1318.1678184000775,1318.1678184000775,1318.1678184000775,1318.1678184000775,f,0.2747563999146223,1318.4693066999316,1318.4693066999316,1318.4693066999316,1318.4693066999316,1318.4693066999316,1318.4693066999316,1318.7664063996635,1318.7664063996635,1320.6942294999026,1320.6942294999026,1320.6942294999026,1320.6942294999026,1320.6942294999026,1320.6942294999026,1320.6942294999026,1320.6942294999026,1320.6942294999026,1320.6942294999026,1320.6942294999026,1320.6942294999026,1320.6942294999026,1320.6942294999026,1320.6942294999026,1320.6942294999026,1320.6942294999026,1323.2033480000682,1323.2033480000682,1323.2033480000682,1323.2033480000682,1323.2033480000682,73,22,51,42,22,69,2.0,0.6307248999364674,1323.8512508999556,1325.647281399928,,,,,,,,,121,f,21,2022-12-11_17h47.56.387,RL,2022.2.4,60.07604423436596,
1,31,0,31,0,,,,,,,,,,None,1325.647281399928,1325.647281399928,1325.647281399928,1325.647281399928,1325.647281399928,1325.647281399928,r,0.4301285999827087,1326.0982526997104,1326.0982526997104,1326.0982526997104,1326.0982526997104,1326.0982526997104,1326.0982526997104,1326.3953108997084,1326.3953108997084,1327.6916034999304,1327.6916034999304,1327.7083989996463,1327.7083989996463,1327.7083989996463,1327.7083989996463,1327.7083989996463,1327.7083989996463,1327.7083989996463,1327.7083989996463,1327.7083989996463,1327.7083989996463,1327.7083989996463,1327.7083989996463,1327.7083989996463,1327.7083989996463,1327.7083989996463,1330.21738359984,1330.21738359984,1330.21738359984,1330.21738359984,1330.21738359984,63,30,42,44,63,69,4.0,1.1800506999716163,1331.4143373998813,1333.3593637999147,,,,,,,,,121,f,21,2022-12-11_17h47.56.387,RL,2022.2.4,60.07604423436596,
1,32,0,32,0,,,,,,,,,,None,1333.3593637999147,1333.3593637999147,1333.3593637999147,1333.3593637999147,1333.3593637999147,1333.3593637999147,f,0.36868020007386804,1333.7628082996234,1333.7628082996234,1333.7628082996234,1333.7628082996234,1333.7628082996234,1333.7628082996234,1334.0579292997718,1334.0579292997718,1335.9361817999743,1335.9361817999743,1335.9361817999743,1335.9361817999743,1335.9361817999743,1335.9361817999743,1335.9361817999743,1335.9361817999743,1335.9361817999743,1335.9361817999743,1335.9361817999743,1335.9361817999743,1335.9361817999743,1335.9361817999743,1335.9361817999743,1335.9361817999743,1335.9361817999743,1338.4450376997702,1338.4450376997702,1338.4450376997702,1338.4450376997702,1338.4450376997702,55,19,40,42,19,69,1.0,1.7776166000403464,1340.240461899899,1341.7699871999212,,,,,,,,,121,f,21,2022-12-11_17h47.56.387,RL,2022.2.4,60.07604423436596,
1,33,0,33,0,,,,,,,,,,None,1341.7699871999212,1341.7699871999212,1341.7699871999212,1341.7699871999212,1341.7699871999212,1341.7699871999212,j,0.8828391996212304,1342.6859879996628,1342.6859879996628,1342.6859879996628,1342.6859879996628,1342.6859879996628,1342.6859879996628,1342.9836355000734,1342.9836355000734,1344.8948308997788,1344.8948308997788,1344.8948308997788,1344.8948308997788,1344.8948308997788,1344.8948308997788,1344.8948308997788,1344.8948308997788,1344.8948308997788,1344.8948308997788,1344.8948308997788,1344.8948308997788,1344.8948308997788,1344.8948308997788,1344.8948308997788,1344.8948308997788,1344.8948308997788,1347.4040552000515,1347.4040552000515,1347.4040552000515,1347.4040552000515,1347.4040552000515,63,29,42,45,45,24,5.0,2.2758343000896275,1349.697583799716,1351.3772482997738,,,,,,,,,121,f,21,2022-12-11_17h47.56.387,RL,2022.2.4,60.07604423436596,
1,34,0,34,0,,,,,,,,,,None,1351.3772482997738,1351.3772482997738,1351.3772482997738,1351.3772482997738,1351.3772482997738,1351.3772482997738,i,0.3251815000548959,1351.7280450998805,1351.7280450998805,1351.7280450998805,1351.7280450998805,1351.7280450998805,1351.7280450998805,1352.0254115997814,1352.0254115997814,1353.2388335000724,1353.2388335000724,1353.2388335000724,1353.2388335000724,1353.2388335000724,1353.2388335000724,1353.2388335000724,1353.2388335000724,1353.2388335000724,1353.2388335000724,1353.2388335000724,1353.2388335000724,1353.2388335000724,1353.2388335000724,1353.2388335000724,1353.2388335000724,1353.2388335000724,1355.7477291999385,1355.7477291999385,1355.7477291999385,1355.7477291999385,1355.7477291999385,64,27,38,49,38,69,2.0,0.7133316001854837,1356.4790493999608,1358.3742064000107,,,,,,,,,121,f,21,2022-12-11_17h47.56.387,RL,2022.2.4,60.07604423436596,
1,35,0,35,0,,,,,,,,,,None,1358.3742064000107,1358.3742064000107,1358.3742064000107,1358.3742064000107,1358.3742064000107,1358.3742064000107,f,0.33444090001285076,1358.7429205998778,1358.7429205998778,1358.7429205998778,1358.7429205998778,1358.7429205998778,1358.7429205998778,1359.0395797998644,1359.0395797998644,1360.3527035000734,1360.3527035000734,1360.3527035000734,1360.3527035000734,1360.3527035000734,1360.3527035000734,1360.3527035000734,1360.3527035000734,1360.3527035000734,1360.3527035000734,1360.3527035000734,1360.3527035000734,1360.3527035000734,1360.3527035000734,1360.3527035000734,1360.3527035000734,1360.3527035000734,1362.8616146999411,1362.8616146999411,1362.8616146999411,1362.8616146999411,1362.8616146999411,67,26,44,45,26,64,2.0,0.7303742999210954,1363.6095260996372,1365.5879363999702,,,,,,,,,121,f,21,2022-12-11_17h47.56.387,RL,2022.2.4,60.07604423436596,
1,36,0,36,0,,,,,,,,,,None,1365.5879363999702,1365.5879363999702,1365.5879363999702,1365.5879363999702,1365.5879363999702,1365.5879363999702,j,0.30222309986129403,1365.9247907996178,1365.9247907996178,1365.9247907996178,1365.9247907996178,1365.9247907996178,1365.9247907996178,1366.2202522996813,1366.2202522996813,1367.2673478997312,1367.2673478997312,1367.2673478997312,1367.2673478997312,1367.2673478997312,1367.2673478997312,1367.2673478997312,1367.2673478997312,1367.2673478997312,1367.2673478997312,1367.2673478997312,1367.2673478997312,1367.2673478997312,1367.2673478997312,1367.2673478997312,1367.2673478997312,1367.2673478997312,1369.7764249998145,1369.7764249998145,1369.7764249998145,1369.7764249998145,1369.7764249998145,65,27,46,48,48,48,5.0,1.4784364998340607,1371.271855399944,1373.1341018998064,,,,,,,,,121,f,21,2022-12-11_17h47.56.387,RL,2022.2.4,60.07604423436596,
1,37,0,37,0,,,,,,,,,,None,1373.1341018998064,1373.1341018998064,1373.1341018998064,1373.1341018998064,1373.1341018998064,1373.1341018998064,i,0.3363275998272002,1373.5047199996188,1373.5047199996188,1373.5047199996188,1373.5047199996188,1373.5047199996188,1373.5047199996188,1373.7996062999591,1373.7996062999591,1374.8137098997831,1374.8137098997831,1374.8137098997831,1374.8137098997831,1374.8137098997831,1374.8137098997831,1374.8137098997831,1374.8137098997831,1374.8137098997831,1374.8137098997831,1374.8137098997831,1374.8137098997831,1374.8137098997831,1374.8137098997831,1374.8137098997831,1374.8137098997831,1374.8137098997831,1377.3222195999697,1377.3222195999697,1377.3222195999697,1377.3222195999697,1377.3222195999697,65,15,45,51,45,67,4.0,1.1135150999762118,1378.4527437998913,1380.0486151999794,,,,,,,,,121,f,21,2022-12-11_17h47.56.387,RL,2022.2.4,60.07604423436596,
1,38,0,38,0,,,,,,,,,,None,1380.0486151999794,1380.0486151999794,1380.0486151999794,1380.0486151999794,1380.0486151999794,1380.0486151999794,f,0.733063300140202,1380.8152560996823,1380.8152560996823,1380.8152560996823,1380.8152560996823,1380.8152560996823,1380.8152560996823,1381.112635999918,1381.112635999918,1382.3423574999906,1382.3423574999906,1382.3592650997452,1382.3592650997452,1382.3592650997452,1382.3592650997452,1382.3592650997452,1382.3592650997452,1382.3592650997452,1382.3592650997452,1382.3592650997452,1382.3592650997452,1382.3592650997452,1382.3592650997452,1382.3592650997452,1382.3592650997452,1382.3592650997452,1384.8682451997884,1384.8682451997884,1384.8682451997884,1384.8682451997884,1384.8682451997884,63,20,48,47,20,68,2.0,0.8804879998788238,1385.7656113998964,1387.6279432997108,,,,,,,,,121,f,21,2022-12-11_17h47.56.387,RL,2022.2.4,60.07604423436596,
1,39,0,39,0,,,,,,,,,,None,1387.6279432997108,1387.6279432997108,1387.6279432997108,1387.6279432997108,1387.6279432997108,1387.6279432997108,i,0.3807838000357151,1388.030249599833,1388.030249599833,1388.030249599833,1388.030249599833,1388.030249599833,1388.030249599833,1388.3262074999511,1388.3262074999511,1389.5898346998729,1389.5898346998729,1389.5898346998729,1389.5898346998729,1389.5898346998729,1389.5898346998729,1389.5898346998729,1389.5898346998729,1389.5898346998729,1389.5898346998729,1389.5898346998729,1389.5898346998729,1389.5898346998729,1389.5898346998729,1389.5898346998729,1389.5898346998729,1389.5898346998729,1392.0990070998669,1392.0990070998669,1392.0990070998669,1392.0990070998669,1392.0990070998669,63,21,52,43,52,48,5.0,1.0299638002179563,1393.145650899969,1394.6590712000616,,,,,,,,,121,f,21,2022-12-11_17h47.56.387,RL,2022.2.4,60.07604423436596,
1,40,0,40,0,,,,,,,,,,None,1394.6590712000616,1394.6590712000616,1394.6590712000616,1394.6590712000616,1394.6590712000616,1394.6590712000616,i,0.8254766003228724,1395.5096143996343,1395.5096143996343,1395.5096143996343,1395.5096143996343,1395.5096143996343,1395.5096143996343,1395.8061583000235,1395.8061583000235,1397.5017772000283,1397.5017772000283,1397.5017772000283,1397.5017772000283,1397.5017772000283,1397.5017772000283,1397.5017772000283,1397.5017772000283,1397.5017772000283,1397.5017772000283,1397.5017772000283,1397.5017772000283,1397.5017772000283,1397.5017772000283,1397.5017772000283,1397.5017772000283,1397.5017772000283,1400.0104910000227,1400.0104910000227,1400.0104910000227,1400.0104910000227,1400.0104910000227,59,23,51,52,51,69,5.0,0.7806875999085605,1400.8081924999133,1402.553891599644,,,,,,,,,121,f,21,2022-12-11_17h47.56.387,RL,2022.2.4,60.07604423436596,
1,41,0,41,0,,,,,,,,,,None,1402.553891599644,1402.553891599644,1402.553891599644,1402.553891599644,1402.553891599644,1402.553891599644,j,0.39670119993388653,1402.97139229998,1402.97139229998,1402.97139229998,1402.97139229998,1402.97139229998,1402.97139229998,1403.2690764996223,1403.2690764996223,1404.8146656998433,1404.8146656998433,1404.8146656998433,1404.8146656998433,1404.8146656998433,1404.8146656998433,1404.8146656998433,1404.8146656998433,1404.8146656998433,1404.8146656998433,1404.8146656998433,1404.8146656998433,1404.8146656998433,1404.8146656998433,1404.8146656998433,1404.8146656998433,1404.8146656998433,1407.3236209996976,1407.3236209996976,1407.3236209996976,1407.3236209996976,1407.3236209996976,62,22,52,49,49,70,2.0,0.5303869000636041,1407.8724404000677,1409.7677803998813,,,,,,,,,121,f,21,2022-12-11_17h47.56.387,RL,2022.2.4,60.07604423436596,
1,42,0,42,0,,,,,,,,,,None,1409.7677803998813,1409.7677803998813,1409.7677803998813,1409.7677803998813,1409.7677803998813,1409.7677803998813,f,0.42886519990861416,1410.217838099692,1410.217838099692,1410.217838099692,1410.217838099692,1410.217838099692,1410.217838099692,1410.5160264996812,1410.5160264996812,1411.712426299695,1411.712426299695,1411.712426299695,1411.712426299695,1411.712426299695,1411.712426299695,1411.712426299695,1411.712426299695,1411.712426299695,1411.712426299695,1411.712426299695,1411.712426299695,1411.712426299695,1411.712426299695,1411.712426299695,1411.712426299695,1411.712426299695,1414.2214127997868,1414.2214127997868,1414.2214127997868,1414.2214127997868,1414.2214127997868,62,21,54,47,21,59,2.0,1.3444505999796093,1415.5847634999081,1417.2472830000333,,,,,,,,,121,f,21,2022-12-11_17h47.56.387,RL,2022.2.4,60.07604423436596,
1,43,0,43,0,,,,,,,,,,None,1417.2472830000333,1417.2472830000333,1417.2472830000333,1417.2472830000333,1417.2472830000333,1417.2472830000333,r,0.33562569972127676,1417.6158186998218,1417.6158186998218,1417.6158186998218,1417.6158186998218,1417.6158186998218,1417.6158186998218,1417.912366699893,1417.912366699893,1419.0090258000419,1419.0090258000419,1419.0090258000419,1419.0090258000419,1419.0090258000419,1419.0090258000419,1419.0090258000419,1419.0090258000419,1419.0090258000419,1419.0090258000419,1419.0090258000419,1419.0090258000419,1419.0090258000419,1419.0090258000419,1419.0090258000419,1419.0090258000419,1419.0090258000419,1421.5184339997359,1421.5184339997359,1421.5184339997359,1421.5184339997359,1421.5184339997359,78,18,48,39,78,77,4.0,0.6805504998192191,1422.2166387997568,1424.1952037997544,,,,,,,,,121,f,21,2022-12-11_17h47.56.387,RL,2022.2.4,60.07604423436596,
1,44,0,44,0,,,,,,,,,,None,1424.1952037997544,1424.1952037997544,1424.1952037997544,1424.1952037997544,1424.1952037997544,1424.1952037997544,f,0.4992474000900984,1424.7285905000754,1424.7285905000754,1424.7285905000754,1424.7285905000754,1424.7285905000754,1424.7285905000754,1425.0264775999822,1425.0264775999822,1426.2563591999933,1426.2563591999933,1426.2563591999933,1426.2563591999933,1426.2563591999933,1426.2563591999933,1426.2563591999933,1426.2563591999933,1426.2563591999933,1426.2563591999933,1426.2563591999933,1426.2563591999933,1426.2563591999933,1426.2563591999933,1426.2563591999933,1426.2563591999933,1426.2563591999933,1428.7655643997714,1428.7655643997714,1428.7655643997714,1428.7655643997714,1428.7655643997714,79,9,47,25,9,61,1.0,0.9627028000541031,1429.7457930999808,1431.4583934997208,,,,,,,,,121,f,21,2022-12-11_17h47.56.387,RL,2022.2.4,60.07604423436596,
1,45,0,45,0,,,,,,,,,,None,1431.4583934997208,1431.4583934997208,1431.4583934997208,1431.4583934997208,1431.4583934997208,1431.4583934997208,r,0.3483698000200093,1431.8279124996625,1431.8279124996625,1431.8279124996625,1431.8279124996625,1431.8279124996625,1431.8279124996625,1432.1238146997057,1432.1238146997057,1434.0851213000715,1434.0851213000715,1434.0851213000715,1434.0851213000715,1434.0851213000715,1434.0851213000715,1434.0851213000715,1434.0851213000715,1434.0851213000715,1434.0851213000715,1434.0851213000715,1434.0851213000715,1434.0851213000715,1434.0851213000715,1434.0851213000715,1434.0851213000715,1434.0851213000715,1436.594010999892,1436.594010999892,1436.594010999892,1436.594010999892,1436.594010999892,71,26,51,35,71,39,6.0,1.1295789000578225,1437.7407781998627,1439.686101499945,,,,,,,,,121,f,21,2022-12-11_17h47.56.387,RL,2022.2.4,60.07604423436596,
1,46,0,46,0,,,,,,,,,,None,1439.686101499945,1439.686101499945,1439.686101499945,1439.686101499945,1439.686101499945,1439.686101499945,i,0.5706927999854088,1440.2864687000401,1440.2864687000401,1440.2864687000401,1440.2864687000401,1440.2864687000401,1440.2864687000401,1440.5836849999614,1440.5836849999614,1442.5116021996364,1442.5116021996364,1442.5283303000033,1442.5283303000033,1442.5283303000033,1442.5283303000033,1442.5283303000033,1442.5283303000033,1442.5283303000033,1442.5283303000033,1442.5283303000033,1442.5283303000033,1442.5283303000033,1442.5283303000033,1442.5283303000033,1442.5283303000033,1442.5283303000033,1445.0373245999217,1445.0373245999217,1445.0373245999217,1445.0373245999217,1445.0373245999217,76,8,55,38,55,80,3.0,2.2438191999681294,1447.2980865999125,1448.8441566000693,,,,,,,,,121,f,21,2022-12-11_17h47.56.387,RL,2022.2.4,60.07604423436596,
1,47,0,47,0,,,,,,,,,,None,1448.8441566000693,1448.8441566000693,1448.8441566000693,1448.8441566000693,1448.8441566000693,1448.8441566000693,i,0.876203200314194,1449.743219600059,1449.743219600059,1449.743219600059,1449.743219600059,1449.743219600059,1449.743219600059,1450.0413823998533,1450.0413823998533,1451.1219981000759,1451.1219981000759,1451.1219981000759,1451.1219981000759,1451.1219981000759,1451.1219981000759,1451.1219981000759,1451.1219981000759,1451.1219981000759,1451.1219981000759,1451.1219981000759,1451.1219981000759,1451.1219981000759,1451.1219981000759,1451.1219981000759,1451.1219981000759,1451.1219981000759,1453.630613999907,1453.630613999907,1453.630613999907,1453.630613999907,1453.630613999907,80,16,51,49,51,53,3.0,1.4446613998152316,1455.0932457996532,1457.055125199724,,,,,,,,,121,f,21,2022-12-11_17h47.56.387,RL,2022.2.4,60.07604423436596,
1,48,0,48,0,,,,,,,,,,None,1457.055125199724,1457.055125199724,1457.055125199724,1457.055125199724,1457.055125199724,1457.055125199724,None,,,,,,,,,,,,,,,,,,,,,,,,,,,,,,,,74,15,53,50,0,**,None,None,1463.088534399867,1464.7837551999837,1458.575348999817,1463.088534399867,,,,,,,121,f,21,2022-12-11_17h47.56.387,RL,2022.2.4,60.07604423436596,
1,49,0,49,0,,,,,,,,,,None,1464.7837551999837,1464.7837551999837,1464.7837551999837,1464.7837551999837,1464.7837551999837,1464.7837551999837,j,1.4166636997833848,1466.2327222996391,1466.2327222996391,1466.2327222996391,1466.2327222996391,1466.2327222996391,1466.2327222996391,1466.5299416999333,1466.5299416999333,1468.4246596996672,1468.4246596996672,1468.4246596996672,1468.4246596996672,1468.4246596996672,1468.4246596996672,1468.4246596996672,1468.4246596996672,1468.4246596996672,1468.4246596996672,1468.4246596996672,1468.4246596996672,1468.4246596996672,1468.4246596996672,1468.4246596996672,1468.4246596996672,1468.4246596996672,1470.933701599948,1470.933701599948,1470.933701599948,1470.933701599948,1470.933701599948,81,13,49,39,39,50,3.0,0.8462837999686599,1471.7976476997137,1473.543490299955,,,,,,,,,121,f,21,2022-12-11_17h47.56.387,RL,2022.2.4,60.07604423436596,
1,50,0,50,0,,,,,,,,,,None,1473.543490299955,1473.543490299955,1473.543490299955,1473.543490299955,1473.543490299955,1473.543490299955,r,0.546257299836725,1474.1124112997204,1474.1124112997204,1474.1124112997204,1474.1124112997204,1474.1124112997204,1474.1124112997204,1474.408020099625,1474.408020099625,1476.0535007999279,1476.0535007999279,1476.0535007999279,1476.0535007999279,1476.0535007999279,1476.0535007999279,1476.0535007999279,1476.0535007999279,1476.0535007999279,1476.0535007999279,1476.0535007999279,1476.0535007999279,1476.0535007999279,1476.0535007999279,1476.0535007999279,1476.0535007999279,1476.0535007999279,1478.562491899822,1478.562491899822,1478.562491899822,1478.562491899822,1478.562491899822,66,11,63,40,66,42,5.0,1.91163370013237,1480.4911326998845,1482.2201131000184,,,,,,,,,121,f,21,2022-12-11_17h47.56.387,RL,2022.2.4,60.07604423436596,
1,51,0,51,0,,,,,,,,,,None,1482.2201131000184,1482.2201131000184,1482.2201131000184,1482.2201131000184,1482.2201131000184,1482.2201131000184,r,0.4944678000174463,1482.7376709999517,1482.7376709999517,1482.7376709999517,1482.7376709999517,1482.7376709999517,1482.7376709999517,1483.034833099693,1483.034833099693,1484.0653737997636,1484.0653737997636,1484.0815498996526,1484.0815498996526,1484.0815498996526,1484.0815498996526,1484.0815498996526,1484.0815498996526,1484.0815498996526,1484.0815498996526,1484.0815498996526,1484.0815498996526,1484.0815498996526,1484.0815498996526,1484.0815498996526,1484.0815498996526,1484.0815498996526,1486.5909341997467,1486.5909341997467,1486.5909341997467,1486.5909341997467,1486.5909341997467,76,16,53,37,76,88,4.0,0.7303320998325944,1487.3389610997401,1489.2012120997533,,,,,,,,,121,f,21,2022-12-11_17h47.56.387,RL,2022.2.4,60.07604423436596,
1,52,0,52,0,,,,,,,,,,None,1489.2012120997533,1489.2012120997533,1489.2012120997533,1489.2012120997533,1489.2012120997533,1489.2012120997533,j,0.36477530002593994,1489.6048848000355,1489.6048848000355,1489.6048848000355,1489.6048848000355,1489.6048848000355,1489.6048848000355,1489.8995407000184,1489.8995407000184,1491.2120519997552,1491.2120519997552,1491.2120519997552,1491.2120519997552,1491.2120519997552,1491.2120519997552,1491.2120519997552,1491.2120519997552,1491.2120519997552,1491.2120519997552,1491.2120519997552,1491.2120519997552,1491.2120519997552,1491.2120519997552,1491.2120519997552,1491.2120519997552,1491.2120519997552,1493.7212211000733,1493.7212211000733,1493.7212211000733,1493.7212211000733,1493.7212211000733,69,6,51,41,41,92,2.0,1.0132816000841558,1494.7517177998088,1496.5309607996605,,,,,,,,,121,f,21,2022-12-11_17h47.56.387,RL,2022.2.4,60.07604423436596,
1,53,0,53,0,,,,,,,,,,None,1496.5309607996605,1496.5309607996605,1496.5309607996605,1496.5309607996605,1496.5309607996605,1496.5309607996605,i,0.4810231998562813,1497.032533599995,1497.032533599995,1497.032533599995,1497.032533599995,1497.032533599995,1497.032533599995,1497.3289524996653,1497.3289524996653,1499.107302899938,1499.107302899938,1499.107302899938,1499.107302899938,1499.107302899938,1499.107302899938,1499.107302899938,1499.107302899938,1499.107302899938,1499.107302899938,1499.107302899938,1499.107302899938,1499.107302899938,1499.107302899938,1499.107302899938,1499.107302899938,1499.107302899938,1501.6165964999236,1501.6165964999236,1501.6165964999236,1501.6165964999236,1501.6165964999236,81,15,46,51,46,62,3.0,1.8278120998293161,1503.4613588997163,1505.0079043000005,,,,,,,,,121,f,21,2022-12-11_17h47.56.387,RL,2022.2.4,60.07604423436596,
1,54,0,54,0,,,,,,,,,,None,1505.0079043000005,1505.0079043000005,1505.0079043000005,1505.0079043000005,1505.0079043000005,1505.0079043000005,i,0.49909810023382306,1505.5408316999674,1505.5408316999674,1505.5408316999674,1505.5408316999674,1505.5408316999674,1505.5408316999674,1505.8393234000541,1505.8393234000541,1507.5845236000605,1507.5845236000605,1507.5845236000605,1507.5845236000605,1507.5845236000605,1507.5845236000605,1507.5845236000605,1507.5845236000605,1507.5845236000605,1507.5845236000605,1507.5845236000605,1507.5845236000605,1507.5845236000605,1507.5845236000605,1507.5845236000605,1507.5845236000605,1507.5845236000605,1510.093663699925,1510.093663699925,1510.093663699925,1510.093663699925,1510.093663699925,75,18,49,48,49,101,2.0,1.0461918995715678,1511.157209799625,1513.0694311000407,,,,,,,,,121,f,21,2022-12-11_17h47.56.387,RL,2022.2.4,60.07604423436596,
1,55,0,55,0,,,,,,,,,,None,1513.0694311000407,1513.0694311000407,1513.0694311000407,1513.0694311000407,1513.0694311000407,1513.0694311000407,f,0.35757109988480806,1513.453066600021,1513.453066600021,1513.453066600021,1513.453066600021,1513.453066600021,1513.453066600021,1513.7513885996304,1513.7513885996304,1515.2801497997716,1515.2801497997716,1515.2801497997716,1515.2801497997716,1515.2801497997716,1515.2801497997716,1515.2801497997716,1515.2801497997716,1515.2801497997716,1515.2801497997716,1515.2801497997716,1515.2801497997716,1515.2801497997716,1515.2801497997716,1515.2801497997716,1515.2801497997716,1515.2801497997716,1517.7889080997556,1517.7889080997556,1517.7889080997556,1517.7889080997556,1517.7889080997556,81,14,41,41,14,24,2.0,1.2284630998037755,1519.0356852998957,1520.864504700061,,,,,,,,,121,f,21,2022-12-11_17h47.56.387,RL,2022.2.4,60.07604423436596,
1,56,0,56,0,,,,,,,,,,None,1520.864504700061,1520.864504700061,1520.864504700061,1520.864504700061,1520.864504700061,1520.864504700061,r,0.5476469998247921,1521.4325223998167,1521.4325223998167,1521.4325223998167,1521.4325223998167,1521.4325223998167,1521.4325223998167,1521.7294153999537,1521.7294153999537,1523.0589437000453,1523.0589437000453,1523.0589437000453,1523.0589437000453,1523.0589437000453,1523.0589437000453,1523.0589437000453,1523.0589437000453,1523.0589437000453,1523.0589437000453,1523.0589437000453,1523.0589437000453,1523.0589437000453,1523.0589437000453,1523.0589437000453,1523.0589437000453,1523.0589437000453,1525.567926199641,1525.567926199641,1525.567926199641,1525.567926199641,1525.567926199641,83,10,47,36,83,66,6.0,1.046812199987471,1526.6313839997165,1528.510103599634,,,,,,,,,121,f,21,2022-12-11_17h47.56.387,RL,2022.2.4,60.07604423436596,
1,57,0,57,0,,,,,,,,,,None,1528.510103599634,1528.510103599634,1528.510103599634,1528.510103599634,1528.510103599634,1528.510103599634,i,0.3676340999081731,1528.9122878997587,1528.9122878997587,1528.9122878997587,1528.9122878997587,1528.9122878997587,1528.9122878997587,1529.208568799775,1529.208568799775,1530.1227696998976,1530.1227696998976,1530.1227696998976,1530.1227696998976,1530.1227696998976,1530.1227696998976,1530.1227696998976,1530.1227696998976,1530.1227696998976,1530.1227696998976,1530.1227696998976,1530.1227696998976,1530.1227696998976,1530.1227696998976,1530.1227696998976,1530.1227696998976,1530.1227696998976,1532.6320381998084,1532.6320381998084,1532.6320381998084,1532.6320381998084,1532.6320381998084,71,8,44,34,44,73,2.0,1.0957667999900877,1533.745436300058,1535.3252769997343,,,,,,,,,121,f,21,2022-12-11_17h47.56.387,RL,2022.2.4,60.07604423436596,
1,58,0,58,0,,,,,,,,,,None,1535.3252769997343,1535.3252769997343,1535.3252769997343,1535.3252769997343,1535.3252769997343,1535.3252769997343,f,0.5939771998673677,1535.942719699815,1535.942719699815,1535.942719699815,1535.942719699815,1535.942719699815,1535.942719699815,1536.2395651997067,1536.2395651997067,1538.1344824996777,1538.1344824996777,1538.1344824996777,1538.1344824996777,1538.1344824996777,1538.1344824996777,1538.1344824996777,1538.1344824996777,1538.1344824996777,1538.1344824996777,1538.1344824996777,1538.1344824996777,1538.1344824996777,1538.1344824996777,1538.1344824996777,1538.1344824996777,1538.1344824996777,1540.6433410998434,1540.6433410998434,1540.6433410998434,1540.6433410998434,1540.6433410998434,75,4,47,43,4,87,1.0,0.8476475002244115,1541.5074531999417,1543.0705687999725,,,,,,,,,121,f,21,2022-12-11_17h47.56.387,RL,2022.2.4,60.07604423436596,
1,59,0,59,0,,,,,,,,,,None,1543.0705687999725,1543.0705687999725,1543.0705687999725,1543.0705687999725,1543.0705687999725,1543.0705687999725,r,0.4744159998372197,1543.5718063996173,1543.5718063996173,1543.5718063996173,1543.5718063996173,1543.5718063996173,1543.5718063996173,1543.8687570998445,1543.8687570998445,1544.6827908996493,1544.6827908996493,1544.6996497996151,1544.6996497996151,1544.6996497996151,1544.6996497996151,1544.6996497996151,1544.6996497996151,1544.6996497996151,1544.6996497996151,1544.6996497996151,1544.6996497996151,1544.6996497996151,1544.6996497996151,1544.6996497996151,1544.6996497996151,1544.6996497996151,1547.2088468000293,1547.2088468000293,1547.2088468000293,1547.2088468000293,1547.2088468000293,78,-1,41,37,78,86,5.0,1.2289299997501075,1548.4555131997913,1550.400891199708,,,,,,,,,121,f,21,2022-12-11_17h47.56.387,RL,2022.2.4,60.07604423436596,
1,60,0,60,0,,,,,,,,,,None,1550.400891199708,1550.400891199708,1550.400891199708,1550.400891199708,1550.400891199708,1550.400891199708,j,0.37494090013206005,1550.801220299676,1550.801220299676,1550.801220299676,1550.801220299676,1550.801220299676,1550.801220299676,1551.0993355000392,1551.0993355000392,1552.2955862996168,1552.2955862996168,1552.2955862996168,1552.2955862996168,1552.2955862996168,1552.2955862996168,1552.2955862996168,1552.2955862996168,1552.2955862996168,1552.2955862996168,1552.2955862996168,1552.2955862996168,1552.2955862996168,1552.2955862996168,1552.2955862996168,1552.2955862996168,1552.2955862996168,1554.804795099888,1554.804795099888,1554.804795099888,1554.804795099888,1554.804795099888,80,2,45,37,37,85,5.0,0.9463641000911593,1555.7690425999463,1557.7136641996913,,,,,,,,,121,f,21,2022-12-11_17h47.56.387,RL,2022.2.4,60.07604423436596,
1,61,0,61,0,,,,,,,,,,None,1557.7136641996913,1557.7136641996913,1557.7136641996913,1557.7136641996913,1557.7136641996913,1557.7136641996913,i,0.6273331996053457,1558.3623387999833,1558.3623387999833,1558.3623387999833,1558.3623387999833,1558.3623387999833,1558.3623387999833,1558.6615160997026,1558.6615160997026,1560.1573202996515,1560.1573202996515,1560.1573202996515,1560.1573202996515,1560.1573202996515,1560.1573202996515,1560.1573202996515,1560.1573202996515,1560.1573202996515,1560.1573202996515,1560.1573202996515,1560.1573202996515,1560.1573202996515,1560.1573202996515,1560.1573202996515,1560.1573202996515,1560.1573202996515,1562.6670331996866,1562.6670331996866,1562.6670331996866,1562.6670331996866,1562.6670331996866,74,7,46,35,46,93,2.0,0.8964879000559449,1563.5806215000339,1565.4594315998256,,,,,,,,,121,f,21,2022-12-11_17h47.56.387,RL,2022.2.4,60.07604423436596,
1,62,0,62,0,,,,,,,,,,None,1565.4594315998256,1565.4594315998256,1565.4594315998256,1565.4594315998256,1565.4594315998256,1565.4594315998256,f,0.29820659989491105,1565.7786012999713,1565.7786012999713,1565.7786012999713,1565.7786012999713,1565.7786012999713,1565.7786012999713,1566.0748533997685,1566.0748533997685,1567.2879873998463,1567.2879873998463,1567.2879873998463,1567.2879873998463,1567.2879873998463,1567.2879873998463,1567.2879873998463,1567.2879873998463,1567.2879873998463,1567.2879873998463,1567.2879873998463,1567.2879873998463,1567.2879873998463,1567.2879873998463,1567.2879873998463,1567.2879873998463,1567.2879873998463,1569.7971898997203,1569.7971898997203,1569.7971898997203,1569.7971898997203,1569.7971898997203,79,5,50,37,5,92,1.0,0.49781010020524263,1570.3125746999867,1572.1745063997805,,,,,,,,,121,f,21,2022-12-11_17h47.56.387,RL,2022.2.4,60.07604423436596,
1,63,0,63,0,,,,,,,,,,None,1572.1745063997805,1572.1745063997805,1572.1745063997805,1572.1745063997805,1572.1745063997805,1572.1745063997805,i,0.609712100122124,1572.808747800067,1572.808747800067,1572.808747800067,1572.808747800067,1572.808747800067,1572.808747800067,1573.1056765997782,1573.1056765997782,1575.0002387999557,1575.0002387999557,1575.017179099843,1575.017179099843,1575.017179099843,1575.017179099843,1575.017179099843,1575.017179099843,1575.017179099843,1575.017179099843,1575.017179099843,1575.017179099843,1575.017179099843,1575.017179099843,1575.017179099843,1575.017179099843,1575.017179099843,1577.5260716998018,1577.5260716998018,1577.5260716998018,1577.5260716998018,1577.5260716998018,76,-1,47,42,47,96,2.0,1.94430740037933,1579.4872598997317,1581.150176399853,,,,,,,,,121,f,21,2022-12-11_17h47.56.387,RL,2022.2.4,60.07604423436596,
1,64,0,64,0,,,,,,,,,,None,1581.150176399853,1581.150176399853,1581.150176399853,1581.150176399853,1581.150176399853,1581.150176399853,j,0.8880996000953019,1582.069380799774,1582.069380799774,1582.069380799774,1582.069380799774,1582.069380799774,1582.069380799774,1582.3640574999154,1582.3640574999154,1584.2416869997978,1584.2416869997978,1584.258395199664,1584.258395199664,1584.258395199664,1584.258395199664,1584.258395199664,1584.258395199664,1584.258395199664,1584.258395199664,1584.258395199664,1584.258395199664,1584.258395199664,1584.258395199664,1584.258395199664,1584.258395199664,1584.258395199664,1586.7673662998714,1586.7673662998714,1586.7673662998714,1586.7673662998714,1586.7673662998714,73,13,36,46,46,96,3.0,1.7107536001130939,1588.4960389998741,1590.1090587000363,,,,,,,,,121,f,21,2022-12-11_17h47.56.387,RL,2022.2.4,60.07604423436596,
1,65,0,65,0,,,,,,,,,,None,1590.1090587000363,1590.1090587000363,1590.1090587000363,1590.1090587000363,1590.1090587000363,1590.1090587000363,i,0.44765189988538623,1590.5761436000466,1590.5761436000466,1590.5761436000466,1590.5761436000466,1590.5761436000466,1590.5761436000466,1590.8740106998011,1590.8740106998011,1591.7547983997501,1591.7547983997501,1591.7712145000696,1591.7712145000696,1591.7712145000696,1591.7712145000696,1591.7712145000696,1591.7712145000696,1591.7712145000696,1591.7712145000696,1591.7712145000696,1591.7712145000696,1591.7712145000696,1591.7712145000696,1591.7712145000696,1591.7712145000696,1591.7712145000696,1594.2808041996323,1594.2808041996323,1594.2808041996323,1594.2808041996323,1594.2808041996323,80,17,37,47,37,85,3.0,1.0128918001428246,1595.3108643000014,1597.2227975996211,,,,,,,,,121,f,21,2022-12-11_17h47.56.387,RL,2022.2.4,60.07604423436596,
1,66,0,66,0,,,,,,,,,,None,1597.2227975996211,1597.2227975996211,1597.2227975996211,1597.2227975996211,1597.2227975996211,1597.2227975996211,j,0.565158300101757,1597.8240322996862,1597.8240322996862,1597.8240322996862,1597.8240322996862,1597.8240322996862,1597.8240322996862,1598.1208639997058,1598.1208639997058,1600.0821719998494,1600.0821719998494,1600.0821719998494,1600.0821719998494,1600.0821719998494,1600.0821719998494,1600.0821719998494,1600.0821719998494,1600.0821719998494,1600.0821719998494,1600.0821719998494,1600.0821719998494,1600.0821719998494,1600.0821719998494,1600.0821719998494,1600.0821719998494,1600.0821719998494,1602.59142209962,1602.59142209962,1602.59142209962,1602.59142209962,1602.59142209962,87,14,40,48,48,100,2.0,0.7801214996725321,1603.3888312997296,1605.217593099922,,,,,,,,,121,f,21,2022-12-11_17h47.56.387,RL,2022.2.4,60.07604423436596,
1,67,0,67,0,,,,,,,,,,None,1605.217593099922,1605.217593099922,1605.217593099922,1605.217593099922,1605.217593099922,1605.217593099922,f,0.4758390998467803,1605.7194624999538,1605.7194624999538,1605.7194624999538,1605.7194624999538,1605.7194624999538,1605.7194624999538,1606.0161056998186,1606.0161056998186,1607.428545099683,1607.428545099683,1607.428545099683,1607.428545099683,1607.428545099683,1607.428545099683,1607.428545099683,1607.428545099683,1607.428545099683,1607.428545099683,1607.428545099683,1607.428545099683,1607.428545099683,1607.428545099683,1607.428545099683,1607.428545099683,1607.428545099683,1609.937570199836,1609.937570199836,1609.937570199836,1609.937570199836,1609.937570199836,82,15,40,55,15,84,2.0,0.6645333003252745,1610.6189093999565,1612.1986283999868,,,,,,,,,121,f,21,2022-12-11_17h47.56.387,RL,2022.2.4,60.07604423436596,
1,68,0,68,0,,,,,,,,,,None,1612.1986283999868,1612.1986283999868,1612.1986283999868,1612.1986283999868,1612.1986283999868,1612.1986283999868,r,0.45610459987074137,1612.6812384999357,1612.6812384999357,1612.6812384999357,1612.6812384999357,1612.6812384999357,1612.6812384999357,1612.980373899918,1612.980373899918,1614.4430094999261,1614.4430094999261,1614.4430094999261,1614.4430094999261,1614.4430094999261,1614.4430094999261,1614.4430094999261,1614.4430094999261,1614.4430094999261,1614.4430094999261,1614.4430094999261,1614.4430094999261,1614.4430094999261,1614.4430094999261,1614.4430094999261,1614.4430094999261,1614.4430094999261,1616.9516360997222,1616.9516360997222,1616.9516360997222,1616.9516360997222,1616.9516360997222,77,7,44,51,77,85,4.0,0.5310098002664745,1617.5003312998451,1619.3458062997088,,,,,,,,,121,f,21,2022-12-11_17h47.56.387,RL,2022.2.4,60.07604423436596,
1,69,0,69,0,,,,,,,,,,None,1619.3458062997088,1619.3458062997088,1619.3458062997088,1619.3458062997088,1619.3458062997088,1619.3458062997088,r,0.464421100448817,1619.8301406996325,1619.8301406996325,1619.8301406996325,1619.8301406996325,1619.8301406996325,1619.8301406996325,1620.1273520998657,1620.1273520998657,1621.556616799906,1621.556616799906,1621.556616799906,1621.556616799906,1621.556616799906,1621.556616799906,1621.556616799906,1621.556616799906,1621.556616799906,1621.556616799906,1621.556616799906,1621.556616799906,1621.556616799906,1621.556616799906,1621.556616799906,1621.556616799906,1621.556616799906,1624.0658841999248,1624.0658841999248,1624.0658841999248,1624.0658841999248,1624.0658841999248,72,11,41,49,72,83,4.0,1.5101061998866498,1625.5950690000318,1627.373856799677,,,,,,,,,121,f,21,2022-12-11_17h47.56.387,RL,2022.2.4,60.07604423436596,
1,70,0,70,0,,,,,,,,,,None,1627.373856799677,1627.373856799677,1627.373856799677,1627.373856799677,1627.373856799677,1627.373856799677,i,0.8408696996048093,1628.2402095999569,1628.2402095999569,1628.2402095999569,1628.2402095999569,1628.2402095999569,1628.2402095999569,1628.537732699886,1628.537732699886,1629.850474699866,1629.850474699866,1629.867604299914,1629.867604299914,1629.867604299914,1629.867604299914,1629.867604299914,1629.867604299914,1629.867604299914,1629.867604299914,1629.867604299914,1629.867604299914,1629.867604299914,1629.867604299914,1629.867604299914,1629.867604299914,1629.867604299914,1632.3764500999823,1632.3764500999823,1632.3764500999823,1632.3764500999823,1632.3764500999823,68,19,33,48,33,93,2.0,10.221056899987161,1642.615278699901,1644.3940922999755,,,,,,,,,121,f,21,2022-12-11_17h47.56.387,RL,2022.2.4,60.07604423436596,
1,71,0,71,0,,,,,,,,,,None,1644.3940922999755,1644.3940922999755,1644.3940922999755,1644.3940922999755,1644.3940922999755,1644.3940922999755,j,0.24034549994394183,1644.6645436999388,1644.6645436999388,1644.6645436999388,1644.6645436999388,1644.6645436999388,1644.6645436999388,1644.9595665996894,1644.9595665996894,1646.4391451999545,1646.4391451999545,1646.4391451999545,1646.4391451999545,1646.4391451999545,1646.4391451999545,1646.4391451999545,1646.4391451999545,1646.4391451999545,1646.4391451999545,1646.4391451999545,1646.4391451999545,1646.4391451999545,1646.4391451999545,1646.4391451999545,1646.4391451999545,1646.4391451999545,1648.947922699619,1648.947922699619,1648.947922699619,1648.947922699619,1648.947922699619,70,3,36,56,56,89,2.0,0.9645819999277592,1649.928649699781,1651.7571923998185,,,,,,,,,121,f,21,2022-12-11_17h47.56.387,RL,2022.2.4,60.07604423436596,
1,72,0,72,0,,,,,,,,,,None,1651.7571923998185,1651.7571923998185,1651.7571923998185,1651.7571923998185,1651.7571923998185,1651.7571923998185,i,0.5120959999039769,1652.2935422998853,1652.2935422998853,1652.2935422998853,1652.2935422998853,1652.2935422998853,1652.2935422998853,1652.5888429996558,1652.5888429996558,1654.4335662997328,1654.4335662997328,1654.4335662997328,1654.4335662997328,1654.4335662997328,1654.4335662997328,1654.4335662997328,1654.4335662997328,1654.4335662997328,1654.4335662997328,1654.4335662997328,1654.4335662997328,1654.4335662997328,1654.4335662997328,1654.4335662997328,1654.4335662997328,1654.4335662997328,1656.942863599863,1656.942863599863,1656.942863599863,1656.942863599863,1656.942863599863,59,11,38,48,38,92,2.0,0.7631466998718679,1657.7241487000138,1659.5694248997606,,,,,,,,,121,f,21,2022-12-11_17h47.56.387,RL,2022.2.4,60.07604423436596,
1,73,0,73,0,,,,,,,,,,None,1659.5694248997606,1659.5694248997606,1659.5694248997606,1659.5694248997606,1659.5694248997606,1659.5694248997606,f,0.689533700235188,1660.2847597999498,1660.2847597999498,1660.2847597999498,1660.2847597999498,1660.2847597999498,1660.2847597999498,1660.5834905998781,1660.5834905998781,1661.7636724999174,1661.7636724999174,1661.7636724999174,1661.7636724999174,1661.7636724999174,1661.7636724999174,1661.7636724999174,1661.7636724999174,1661.7636724999174,1661.7636724999174,1661.7636724999174,1661.7636724999174,1661.7636724999174,1661.7636724999174,1661.7636724999174,1661.7636724999174,1661.7636724999174,1664.2729539996944,1664.2729539996944,1664.2729539996944,1664.2729539996944,1664.2729539996944,65,9,47,44,9,86,1.0,0.7142533999867737,1665.0039610997774,1666.7498420998454,,,,,,,,,121,f,21,2022-12-11_17h47.56.387,RL,2022.2.4,60.07604423436596,
1,74,0,74,0,,,,,,,,,,None,1666.7498420998454,1666.7498420998454,1666.7498420998454,1666.7498420998454,1666.7498420998454,1666.7498420998454,f,0.3059350997209549,1667.088465000037,1667.088465000037,1667.088465000037,1667.088465000037,1667.088465000037,1667.088465000037,1667.381686499808,1667.381686499808,1668.5619920999743,1668.5619920999743,1668.5783368996345,1668.5783368996345,1668.5783368996345,1668.5783368996345,1668.5783368996345,1668.5783368996345,1668.5783368996345,1668.5783368996345,1668.5783368996345,1668.5783368996345,1668.5783368996345,1668.5783368996345,1668.5783368996345,1668.5783368996345,1668.5783368996345,1671.087587499991,1671.087587499991,1671.087587499991,1671.087587499991,1671.087587499991,64,22,38,44,22,88,2.0,1.045675199944526,1672.1511908997782,1674.0960520999506,,,,,,,,,121,f,21,2022-12-11_17h47.56.387,RL,2022.2.4,60.07604423436596,
1,75,0,75,0,,,,,,,,,,q,1768.056744999718,1768.056744999718,1768.056744999718,1768.056744999718,1768.056744999718,1768.056744999718,f,0.7090399996377528,1768.7917273999192,1768.7917273999192,1768.7917273999192,1768.7917273999192,1768.7917273999192,1768.7917273999192,1769.0876955999993,1769.0876955999993,1770.9325391999446,1770.9325391999446,1770.9491691999137,1770.9491691999137,1770.9491691999137,1770.9491691999137,1770.9491691999137,1770.9491691999137,1770.9491691999137,1770.9491691999137,1770.9491691999137,1770.9491691999137,1770.9491691999137,1770.9491691999137,1770.9491691999137,1770.9491691999137,1770.9491691999137,1773.4584546000697,1773.4584546000697,1773.4584546000697,1773.4584546000697,1773.4584546000697,58,14,32,59,14,91,2.0,1.6285131997428834,1775.1037065996788,1777.0492456997745,,,1674.0960520999506,1674.0960520999506,93.93524420028552,,,,121,f,21,2022-12-11_17h47.56.387,RL,2022.2.4,60.07604423436596,
1,76,0,76,0,,,,,,,,,,None,1777.0492456997745,1777.0492456997745,1777.0492456997745,1777.0492456997745,1777.0492456997745,1777.0492456997745,i,0.4755239998921752,1777.552983299829,1777.552983299829,1777.552983299829,1777.552983299829,1777.552983299829,1777.552983299829,1777.8469495996833,1777.8469495996833,1779.2933737998828,1779.2933737998828,1779.2933737998828,1779.2933737998828,1779.2933737998828,1779.2933737998828,1779.2933737998828,1779.2933737998828,1779.2933737998828,1779.2933737998828,1779.2933737998828,1779.2933737998828,1779.2933737998828,1779.2933737998828,1779.2933737998828,1779.2933737998828,1779.2933737998828,1781.8020803998224,1781.8020803998224,1781.8020803998224,1781.8020803998224,1781.8020803998224,56,15,39,49,39,48,4.0,1.3292725002393126,1783.1481226999313,1785.1270041000098,,,,,,,,,121,f,21,2022-12-11_17h47.56.387,RL,2022.2.4,60.07604423436596,
1,77,0,77,0,,,,,,,,,,None,1785.1270041000098,1785.1270041000098,1785.1270041000098,1785.1270041000098,1785.1270041000098,1785.1270041000098,i,0.4774845000356436,1785.6295491000637,1785.6295491000637,1785.6295491000637,1785.6295491000637,1785.6295491000637,1785.6295491000637,1785.9249716997147,1785.9249716997147,1787.0058013000526,1787.0058013000526,1787.0058013000526,1787.0058013000526,1787.0058013000526,1787.0058013000526,1787.0058013000526,1787.0058013000526,1787.0058013000526,1787.0058013000526,1787.0058013000526,1787.0058013000526,1787.0058013000526,1787.0058013000526,1787.0058013000526,1787.0058013000526,1787.0058013000526,1789.5144074000418,1789.5144074000418,1789.5144074000418,1789.5144074000418,1789.5144074000418,59,17,46,51,46,94,3.0,0.84737000009045,1790.3789224000648,1792.157571299933,,,,,,,,,121,f,21,2022-12-11_17h47.56.387,RL,2022.2.4,60.07604423436596,
1,78,0,78,0,,,,,,,,,,None,1792.157571299933,1792.157571299933,1792.157571299933,1792.157571299933,1792.157571299933,1792.157571299933,j,0.3836356997489929,1792.5752114998177,1792.5752114998177,1792.5752114998177,1792.5752114998177,1792.5752114998177,1792.5752114998177,1792.8728644000366,1792.8728644000366,1794.2691138996743,1794.2691138996743,1794.2691138996743,1794.2691138996743,1794.2691138996743,1794.2691138996743,1794.2691138996743,1794.2691138996743,1794.2691138996743,1794.2691138996743,1794.2691138996743,1794.2691138996743,1794.2691138996743,1794.2691138996743,1794.2691138996743,1794.2691138996743,1794.2691138996743,1796.777856099885,1796.777856099885,1796.777856099885,1796.777856099885,1796.777856099885,51,14,46,55,55,84,2.0,0.9133500996977091,1797.708798499778,1799.2216920997016,,,,,,,,,121,f,21,2022-12-11_17h47.56.387,RL,2022.2.4,60.07604423436596,
1,79,0,79,0,,,,,,,,,,None,1799.2216920997016,1799.2216920997016,1799.2216920997016,1799.2216920997016,1799.2216920997016,1799.2216920997016,f,0.4505551001057029,1799.7054455997422,1799.7054455997422,1799.7054455997422,1799.7054455997422,1799.7054455997422,1799.7054455997422,1800.0036245998926,1800.0036245998926,1801.4660652996972,1801.4660652996972,1801.4660652996972,1801.4660652996972,1801.4660652996972,1801.4660652996972,1801.4660652996972,1801.4660652996972,1801.4660652996972,1801.4660652996972,1801.4660652996972,1801.4660652996972,1801.4660652996972,1801.4660652996972,1801.4660652996972,1801.4660652996972,1801.4660652996972,1803.9753367998637,1803.9753367998637,1803.9753367998637,1803.9753367998637,1803.9753367998637,59,20,42,54,20,85,1.0,0.6972302999347448,1804.6894446997903,1806.6848668996245,,,,,,,,,121,f,21,2022-12-11_17h47.56.387,RL,2022.2.4,60.07604423436596,
1,80,0,80,0,,,,,,,,,,None,1806.6848668996245,1806.6848668996245,1806.6848668996245,1806.6848668996245,1806.6848668996245,1806.6848668996245,r,0.5029947999864817,1807.2186040999368,1807.2186040999368,1807.2186040999368,1807.2186040999368,1807.2186040999368,1807.2186040999368,1807.5163499996997,1807.5163499996997,1809.1950202998705,1809.1950202998705,1809.1950202998705,1809.1950202998705,1809.1950202998705,1809.1950202998705,1809.1950202998705,1809.1950202998705,1809.1950202998705,1809.1950202998705,1809.1950202998705,1809.1950202998705,1809.1950202998705,1809.1950202998705,1809.1950202998705,1809.1950202998705,1809.1950202998705,1811.7041469998658,1811.7041469998658,1811.7041469998658,1811.7041469998658,1811.7041469998658,58,9,42,59,58,79,3.0,1.312871600035578,1813.033468300011,1814.9292888999917,,,,,,,,,121,f,21,2022-12-11_17h47.56.387,RL,2022.2.4,60.07604423436596,
1,81,0,81,0,,,,,,,,,,None,1814.9292888999917,1814.9292888999917,1814.9292888999917,1814.9292888999917,1814.9292888999917,1814.9292888999917,i,0.45884900027886033,1815.413272399921,1815.413272399921,1815.413272399921,1815.413272399921,1815.413272399921,1815.413272399921,1815.7104417998344,1815.7104417998344,1816.6907818997279,1816.6907818997279,1816.7076260000467,1816.7076260000467,1816.7076260000467,1816.7076260000467,1816.7076260000467,1816.7076260000467,1816.7076260000467,1816.7076260000467,1816.7076260000467,1816.7076260000467,1816.7076260000467,1816.7076260000467,1816.7076260000467,1816.7076260000467,1816.7076260000467,1819.2166188000701,1819.2166188000701,1819.2166188000701,1819.2166188000701,1819.2166188000701,59,8,35,54,35,85,2.0,1.030000100377947,1820.2638029996306,1821.8765479000285,,,,,,,,,121,f,21,2022-12-11_17h47.56.387,RL,2022.2.4,60.07604423436596,
1,82,0,82,0,,,,,,,,,,None,1821.8765479000285,1821.8765479000285,1821.8765479000285,1821.8765479000285,1821.8765479000285,1821.8765479000285,j,0.4277657996863127,1822.3275957000442,1822.3275957000442,1822.3275957000442,1822.3275957000442,1822.3275957000442,1822.3275957000442,1822.6251607998274,1822.6251607998274,1824.253930799663,1824.253930799663,1824.253930799663,1824.253930799663,1824.253930799663,1824.253930799663,1824.253930799663,1824.253930799663,1824.253930799663,1824.253930799663,1824.253930799663,1824.253930799663,1824.253930799663,1824.253930799663,1824.253930799663,1824.253930799663,1824.253930799663,1826.7628277996555,1826.7628277996555,1826.7628277996555,1826.7628277996555,1826.7628277996555,67,14,36,62,62,40,4.0,2.9911230001598597,1829.7711232998408,1831.3342087999918,,,,,,,,,121,f,21,2022-12-11_17h47.56.387,RL,2022.2.4,60.07604423436596,
1,83,0,83,0,,,,,,,,,,None,1831.3342087999918,1831.3342087999918,1831.3342087999918,1831.3342087999918,1831.3342087999918,1831.3342087999918,i,0.37805479997769,1831.7379159997217,1831.7379159997217,1831.7379159997217,1831.7379159997217,1831.7379159997217,1831.7379159997217,1832.032436300069,1832.032436300069,1833.711259499658,1833.711259499658,1833.7277580997907,1833.7277580997907,1833.7277580997907,1833.7277580997907,1833.7277580997907,1833.7277580997907,1833.7277580997907,1833.7277580997907,1833.7277580997907,1833.7277580997907,1833.7277580997907,1833.7277580997907,1833.7277580997907,1833.7277580997907,1833.7277580997907,1836.2372818998992,1836.2372818998992,1836.2372818998992,1836.2372818998992,1836.2372818998992,50,20,45,59,45,87,2.0,0.7141823000274599,1836.9685041997582,1838.5977012999356,,,,,,,,,121,f,21,2022-12-11_17h47.56.387,RL,2022.2.4,60.07604423436596,
1,84,0,84,0,,,,,,,,,,None,1838.5977012999356,1838.5977012999356,1838.5977012999356,1838.5977012999356,1838.5977012999356,1838.5977012999356,r,0.4902419997379184,1839.115359599702,1839.115359599702,1839.115359599702,1839.115359599702,1839.115359599702,1839.115359599702,1839.4122794996947,1839.4122794996947,1840.260258199647,1840.260258199647,1840.260258199647,1840.260258199647,1840.260258199647,1840.260258199647,1840.260258199647,1840.260258199647,1840.260258199647,1840.260258199647,1840.260258199647,1840.260258199647,1840.260258199647,1840.260258199647,1840.260258199647,1840.260258199647,1840.260258199647,1842.7693464998156,1842.7693464998156,1842.7693464998156,1842.7693464998156,1842.7693464998156,51,21,40,45,51,89,2.0,1.2123416997492313,1843.9993246998638,1845.8111385996453,,,,,,,,,121,f,21,2022-12-11_17h47.56.387,RL,2022.2.4,60.07604423436596,
1,85,0,85,0,,,,,,,,,,None,1845.8111385996453,1845.8111385996453,1845.8111385996453,1845.8111385996453,1845.8111385996453,1845.8111385996453,r,0.4472334999591112,1846.278744699899,1846.278744699899,1846.278744699899,1846.278744699899,1846.278744699899,1846.278744699899,1846.5764162000269,1846.5764162000269,1847.6231314996257,1847.6231314996257,1847.6231314996257,1847.6231314996257,1847.6231314996257,1847.6231314996257,1847.6231314996257,1847.6231314996257,1847.6231314996257,1847.6231314996257,1847.6231314996257,1847.6231314996257,1847.6231314996257,1847.6231314996257,1847.6231314996257,1847.6231314996257,1847.6231314996257,1850.1321896999143,1850.1321896999143,1850.1321896999143,1850.1321896999143,1850.1321896999143,45,31,31,39,45,86,3.0,0.8127060001716018,1850.9635733999312,1852.9586574998684,,,,,,,,,121,f,21,2022-12-11_17h47.56.387,RL,2022.2.4,60.07604423436596,
1,86,0,86,0,,,,,,,,,,None,1852.9586574998684,1852.9586574998684,1852.9586574998684,1852.9586574998684,1852.9586574998684,1852.9586574998684,j,0.41507510002702475,1853.4078275999054,1853.4078275999054,1853.4078275999054,1853.4078275999054,1853.4078275999054,1853.4078275999054,1853.7065926999785,1853.7065926999785,1855.1031009000726,1855.1031009000726,1855.1031009000726,1855.1031009000726,1855.1031009000726,1855.1031009000726,1855.1031009000726,1855.1031009000726,1855.1031009000726,1855.1031009000726,1855.1031009000726,1855.1031009000726,1855.1031009000726,1855.1031009000726,1855.1031009000726,1855.1031009000726,1855.1031009000726,1857.6120833000168,1857.6120833000168,1857.6120833000168,1857.6120833000168,1857.6120833000168,59,18,40,38,38,79,2.0,0.946815200150013,1858.5757919000462,1860.2551468000747,,,,,,,,,121,f,21,2022-12-11_17h47.56.387,RL,2022.2.4,60.07604423436596,
1,87,0,87,0,,,,,,,,,,None,1860.2551468000747,1860.2551468000747,1860.2551468000747,1860.2551468000747,1860.2551468000747,1860.2551468000747,i,0.5745517001487315,1860.8591581997462,1860.8591581997462,1860.8591581997462,1860.8591581997462,1860.8591581997462,1860.8591581997462,1861.1534635997377,1861.1534635997377,1863.081426799763,1863.081426799763,1863.0976820997894,1863.0976820997894,1863.0976820997894,1863.0976820997894,1863.0976820997894,1863.0976820997894,1863.0976820997894,1863.0976820997894,1863.0976820997894,1863.0976820997894,1863.0976820997894,1863.0976820997894,1863.0976820997894,1863.0976820997894,1863.0976820997894,1865.6068525998853,1865.6068525998853,1865.6068525998853,1865.6068525998853,1865.6068525998853,50,34,32,40,32,75,2.0,1.112421500030905,1866.7369932997972,1868.7320474996231,,,,,,,,,121,f,21,2022-12-11_17h47.56.387,RL,2022.2.4,60.07604423436596,
1,88,0,88,0,,,,,,,,,,None,1868.7320474996231,1868.7320474996231,1868.7320474996231,1868.7320474996231,1868.7320474996231,1868.7320474996231,f,0.38234200002625585,1869.1506241997704,1869.1506241997704,1869.1506241997704,1869.1506241997704,1869.1506241997704,1869.1506241997704,1869.4474088000134,1869.4474088000134,1871.4253284996375,1871.4253284996375,1871.4253284996375,1871.4253284996375,1871.4253284996375,1871.4253284996375,1871.4253284996375,1871.4253284996375,1871.4253284996375,1871.4253284996375,1871.4253284996375,1871.4253284996375,1871.4253284996375,1871.4253284996375,1871.4253284996375,1871.4253284996375,1871.4253284996375,1873.9344768999144,1873.9344768999144,1873.9344768999144,1873.9344768999144,1873.9344768999144,56,20,39,37,20,71,2.0,0.6135224001482129,1874.5655269999988,1876.2617411999963,,,,,,,,,121,f,21,2022-12-11_17h47.56.387,RL,2022.2.4,60.07604423436596,
1,89,0,89,0,,,,,,,,,,None,1876.2617411999963,1876.2617411999963,1876.2617411999963,1876.2617411999963,1876.2617411999963,1876.2617411999963,r,0.4795056995935738,1876.762817400042,1876.762817400042,1876.762817400042,1876.762817400042,1876.762817400042,1876.762817400042,1877.0595929999836,1877.0595929999836,1878.4058253997937,1878.4058253997937,1878.4058253997937,1878.4058253997937,1878.4058253997937,1878.4058253997937,1878.4058253997937,1878.4058253997937,1878.4058253997937,1878.4058253997937,1878.4058253997937,1878.4058253997937,1878.4058253997937,1878.4058253997937,1878.4058253997937,1878.4058253997937,1878.4058253997937,1880.915335800033,1880.915335800033,1880.915335800033,1880.915335800033,1880.915335800033,60,31,31,41,60,56,5.0,0.9804302998818457,1881.9126214999706,1883.6913339998573,,,,,,,,,121,f,21,2022-12-11_17h47.56.387,RL,2022.2.4,60.07604423436596,
1,90,0,90,0,,,,,,,,,,None,1883.6913339998573,1883.6913339998573,1883.6913339998573,1883.6913339998573,1883.6913339998573,1883.6913339998573,j,0.39499800000339746,1884.1081290999427,1884.1081290999427,1884.1081290999427,1884.1081290999427,1884.1081290999427,1884.1081290999427,1884.4065876998939,1884.4065876998939,1886.2012322996743,1886.2012322996743,1886.2012322996743,1886.2012322996743,1886.2012322996743,1886.2012322996743,1886.2012322996743,1886.2012322996743,1886.2012322996743,1886.2012322996743,1886.2012322996743,1886.2012322996743,1886.2012322996743,1886.2012322996743,1886.2012322996743,1886.2012322996743,1886.2012322996743,1888.7107229996473,1888.7107229996473,1888.7107229996473,1888.7107229996473,1888.7107229996473,55,20,29,42,42,65,2.0,0.7797794002108276,1889.507923499681,1891.4034996000119,,,,,,,,,121,f,21,2022-12-11_17h47.56.387,RL,2022.2.4,60.07604423436596,
1,91,0,91,0,,,,,,,,,,None,1891.4034996000119,1891.4034996000119,1891.4034996000119,1891.4034996000119,1891.4034996000119,1891.4034996000119,i,0.5179208000190556,1891.9525561998598,1891.9525561998598,1891.9525561998598,1891.9525561998598,1891.9525561998598,1891.9525561998598,1892.2519744997844,1892.2519744997844,1893.7808765997179,1893.7808765997179,1893.7808765997179,1893.7808765997179,1893.7808765997179,1893.7808765997179,1893.7808765997179,1893.7808765997179,1893.7808765997179,1893.7808765997179,1893.7808765997179,1893.7808765997179,1893.7808765997179,1893.7808765997179,1893.7808765997179,1893.7808765997179,1893.7808765997179,1896.289698800072,1896.289698800072,1896.289698800072,1896.289698800072,1896.289698800072,55,17,31,44,31,34,3.0,1.047275499906391,1897.3532731998712,1899.282073199749,,,,,,,,,121,f,21,2022-12-11_17h47.56.387,RL,2022.2.4,60.07604423436596,
1,92,0,92,0,,,,,,,,,,None,1899.282073199749,1899.282073199749,1899.282073199749,1899.282073199749,1899.282073199749,1899.282073199749,r,0.47400839999318123,1899.7812927998602,1899.7812927998602,1899.7812927998602,1899.7812927998602,1899.7812927998602,1899.7812927998602,1900.0801475998014,1900.0801475998014,1901.942072799895,1901.942072799895,1901.942072799895,1901.942072799895,1901.942072799895,1901.942072799895,1901.942072799895,1901.942072799895,1901.942072799895,1901.942072799895,1901.942072799895,1901.942072799895,1901.942072799895,1901.942072799895,1901.942072799895,1901.942072799895,1901.942072799895,1904.4505370999686,1904.4505370999686,1904.4505370999686,1904.4505370999686,1904.4505370999686,59,19,32,37,59,69,2.0,1.3129541999660432,1905.7810104996897,1907.775696999859,,,,,,,,,121,f,21,2022-12-11_17h47.56.387,RL,2022.2.4,60.07604423436596,
1,93,0,93,0,,,,,,,,,,None,1907.775696999859,1907.775696999859,1907.775696999859,1907.775696999859,1907.775696999859,1907.775696999859,i,0.4001237996853888,1908.2101269997656,1908.2101269997656,1908.2101269997656,1908.2101269997656,1908.2101269997656,1908.2101269997656,1908.507470099721,1908.507470099721,1909.7536991997622,1909.7536991997622,1909.7536991997622,1909.7536991997622,1909.7536991997622,1909.7536991997622,1909.7536991997622,1909.7536991997622,1909.7536991997622,1909.7536991997622,1909.7536991997622,1909.7536991997622,1909.7536991997622,1909.7536991997622,1909.7536991997622,1909.7536991997622,1909.7536991997622,1912.263148699887,1912.263148699887,1912.263148699887,1912.263148699887,1912.263148699887,58,12,23,38,23,66,2.0,0.8794950000010431,1913.1606988999993,1914.8731303997338,,,,,,,,,121,f,21,2022-12-11_17h47.56.387,RL,2022.2.4,60.07604423436596,
1,94,0,94,0,,,,,,,,,,None,1914.8731303997338,1914.8731303997338,1914.8731303997338,1914.8731303997338,1914.8731303997338,1914.8731303997338,j,0.48880889965221286,1915.3913103998639,1915.3913103998639,1915.3913103998639,1915.3913103998639,1915.3913103998639,1915.3913103998639,1915.6877008997835,1915.6877008997835,1917.499693099875,1917.499693099875,1917.499693099875,1917.499693099875,1917.499693099875,1917.499693099875,1917.499693099875,1917.499693099875,1917.499693099875,1917.499693099875,1917.499693099875,1917.499693099875,1917.499693099875,1917.499693099875,1917.499693099875,1917.499693099875,1917.499693099875,1920.0088204997592,1920.0088204997592,1920.0088204997592,1920.0088204997592,1920.0088204997592,64,15,25,46,46,61,2.0,1.6946383998729289,1921.7207084996626,1923.3001872999594,,,,,,,,,121,f,21,2022-12-11_17h47.56.387,RL,2022.2.4,60.07604423436596,
1,95,0,95,0,,,,,,,,,,None,1923.3001872999594,1923.3001872999594,1923.3001872999594,1923.3001872999594,1923.3001872999594,1923.3001872999594,f,0.6703218999318779,1924.0026189000346,1924.0026189000346,1924.0026189000346,1924.0026189000346,1924.0026189000346,1924.0026189000346,1924.2976615997031,1924.2976615997031,1926.0927530997433,1926.0927530997433,1926.0927530997433,1926.0927530997433,1926.0927530997433,1926.0927530997433,1926.0927530997433,1926.0927530997433,1926.0927530997433,1926.0927530997433,1926.0927530997433,1926.0927530997433,1926.0927530997433,1926.0927530997433,1926.0927530997433,1926.0927530997433,1926.0927530997433,1928.6014787000604,1928.6014787000604,1928.6014787000604,1928.6014787000604,1928.6014787000604,70,18,32,44,18,73,1.0,1.1458037998527288,1929.7654156996869,1931.3117473996244,,,,,,,,,121,f,21,2022-12-11_17h47.56.387,RL,2022.2.4,60.07604423436596,
1,96,0,96,0,,,,,,,,,,None,1931.3117473996244,1931.3117473996244,1931.3117473996244,1931.3117473996244,1931.3117473996244,1931.3117473996244,r,0.6942568998783827,1932.0298285996541,1932.0298285996541,1932.0298285996541,1932.0298285996541,1932.0298285996541,1932.0298285996541,1932.325891299639,1932.325891299639,1933.5222872998565,1933.5222872998565,1933.5390379000455,1933.5390379000455,1933.5390379000455,1933.5390379000455,1933.5390379000455,1933.5390379000455,1933.5390379000455,1933.5390379000455,1933.5390379000455,1933.5390379000455,1933.5390379000455,1933.5390379000455,1933.5390379000455,1933.5390379000455,1933.5390379000455,1936.048095499631,1936.048095499631,1936.048095499631,1936.048095499631,1936.048095499631,65,27,33,46,65,74,4.0,2.7246324997395277,1938.7907113996334,1940.702594799921,,,,,,,,,121,f,21,2022-12-11_17h47.56.387,RL,2022.2.4,60.07604423436596,
1,97,0,97,0,,,,,,,,,,None,1940.702594799921,1940.702594799921,1940.702594799921,1940.702594799921,1940.702594799921,1940.702594799921,i,0.2615729998797178,1940.9882409996353,1940.9882409996353,1940.9882409996353,1940.9882409996353,1940.9882409996353,1940.9882409996353,1941.284711000044,1941.284711000044,1942.1153734996915,1942.1153734996915,1942.1153734996915,1942.1153734996915,1942.1153734996915,1942.1153734996915,1942.1153734996915,1942.1153734996915,1942.1153734996915,1942.1153734996915,1942.1153734996915,1942.1153734996915,1942.1153734996915,1942.1153734996915,1942.1153734996915,1942.1153734996915,1942.1153734996915,1944.6247179997154,1944.6247179997154,1944.6247179997154,1944.6247179997154,1944.6247179997154,65,20,32,52,32,65,3.0,0.9619193002581596,1945.60529639991,1947.4173849998042,,,,,,,,,121,f,21,2022-12-11_17h47.56.387,RL,2022.2.4,60.07604423436596,
1,98,0,98,0,,,,,,,,,,None,1947.4173849998042,1947.4173849998042,1947.4173849998042,1947.4173849998042,1947.4173849998042,1947.4173849998042,j,0.42313170013949275,1947.8688933998346,1947.8688933998346,1947.8688933998346,1947.8688933998346,1947.8688933998346,1947.8688933998346,1948.1658247997984,1948.1658247997984,1950.0437580998987,1950.0437580998987,1950.0437580998987,1950.0437580998987,1950.0437580998987,1950.0437580998987,1950.0437580998987,1950.0437580998987,1950.0437580998987,1950.0437580998987,1950.0437580998987,1950.0437580998987,1950.0437580998987,1950.0437580998987,1950.0437580998987,1950.0437580998987,1950.0437580998987,1952.5532348998822,1952.5532348998822,1952.5532348998822,1952.5532348998822,1952.5532348998822,68,26,36,53,53,61,3.0,0.3980513997375965,1952.9687566999346,1954.5977773997001,,,,,,,,,121,f,21,2022-12-11_17h47.56.387,RL,2022.2.4,60.07604423436596,
1,99,0,99,0,,,,,,,,,,None,1954.5977773997001,1954.5977773997001,1954.5977773997001,1954.5977773997001,1954.5977773997001,1954.5977773997001,r,0.6877083000726998,1955.31486449996,1955.31486449996,1955.31486449996,1955.31486449996,1955.31486449996,1955.31486449996,1955.6119254999794,1955.6119254999794,1957.241320699919,1957.241320699919,1957.241320699919,1957.241320699919,1957.241320699919,1957.241320699919,1957.241320699919,1957.241320699919,1957.241320699919,1957.241320699919,1957.241320699919,1957.241320699919,1957.241320699919,1957.241320699919,1957.241320699919,1957.241320699919,1957.241320699919,1959.7499775998294,1959.7499775998294,1959.7499775998294,1959.7499775998294,1959.7499775998294,62,17,38,55,62,66,3.0,2.7413563998416066,1962.5089388997294,1964.0889424998313,,,,,,,,,121,f,21,2022-12-11_17h47.56.387,RL,2022.2.4,60.07604423436596,
1,100,0,100,0,,,,,,,,,,None,1964.0889424998313,1964.0889424998313,1964.0889424998313,1964.0889424998313,1964.0889424998313,1964.0889424998313,i,0.505717399995774,1964.6210173997097,1964.6210173997097,1964.6210173997097,1964.6210173997097,1964.6210173997097,1964.6210173997097,1964.9199460996315,1964.9199460996315,1966.6153092999011,1966.6153092999011,1966.6153092999011,1966.6153092999011,1966.6153092999011,1966.6153092999011,1966.6153092999011,1966.6153092999011,1966.6153092999011,1966.6153092999011,1966.6153092999011,1966.6153092999011,1966.6153092999011,1966.6153092999011,1966.6153092999011,1966.6153092999011,1966.6153092999011,1969.1247202996165,1969.1247202996165,1969.1247202996165,1969.1247202996165,1969.1247202996165,64,14,34,37,34,57,2.0,1.3453560001216829,1970.48735009972,1972.250033899676,,,,,,,,,121,f,21,2022-12-11_17h47.56.387,RL,2022.2.4,60.07604423436596,
1,101,0,101,0,,,,,,,,,,None,1972.250033899676,1972.250033899676,1972.250033899676,1972.250033899676,1972.250033899676,1972.250033899676,j,0.47807860001921654,1972.7493936000392,1972.7493936000392,1972.7493936000392,1972.7493936000392,1972.7493936000392,1972.7493936000392,1973.0478228996508,1973.0478228996508,1973.8787610996515,1973.8787610996515,1973.8787610996515,1973.8787610996515,1973.8787610996515,1973.8787610996515,1973.8787610996515,1973.8787610996515,1973.8787610996515,1973.8787610996515,1973.8787610996515,1973.8787610996515,1973.8787610996515,1973.8787610996515,1973.8787610996515,1973.8787610996515,1973.8787610996515,1976.3878927999176,1976.3878927999176,1976.3878927999176,1976.3878927999176,1976.3878927999176,63,27,37,43,43,55,3.0,2.476011000107974,1978.8811294999905,1980.7435582997277,,,,,,,,,121,f,21,2022-12-11_17h47.56.387,RL,2022.2.4,60.07604423436596,
1,102,0,102,0,,,,,,,,,,None,1980.7435582997277,1980.7435582997277,1980.7435582997277,1980.7435582997277,1980.7435582997277,1980.7435582997277,f,0.38347649993374944,1981.1610363996588,1981.1610363996588,1981.1610363996588,1981.1610363996588,1981.1610363996588,1981.1610363996588,1981.4581529996358,1981.4581529996358,1982.8875175998546,1982.8875175998546,1982.8875175998546,1982.8875175998546,1982.8875175998546,1982.8875175998546,1982.8875175998546,1982.8875175998546,1982.8875175998546,1982.8875175998546,1982.8875175998546,1982.8875175998546,1982.8875175998546,1982.8875175998546,1982.8875175998546,1982.8875175998546,1982.8875175998546,1985.3970458996482,1985.3970458996482,1985.3970458996482,1985.3970458996482,1985.3970458996482,60,21,41,46,21,63,1.0,1.281171299982816,1986.6929828999564,1988.5384873999283,,,,,,,,,121,f,21,2022-12-11_17h47.56.387,RL,2022.2.4,60.07604423436596,
1,103,0,103,0,,,,,,,,,,None,1988.5384873999283,1988.5384873999283,1988.5384873999283,1988.5384873999283,1988.5384873999283,1988.5384873999283,i,0.38827510038390756,1988.9560352996923,1988.9560352996923,1988.9560352996923,1988.9560352996923,1988.9560352996923,1988.9560352996923,1989.2534447996877,1989.2534447996877,1990.3509506997652,1990.3509506997652,1990.3509506997652,1990.3509506997652,1990.3509506997652,1990.3509506997652,1990.3509506997652,1990.3509506997652,1990.3509506997652,1990.3509506997652,1990.3509506997652,1990.3509506997652,1990.3509506997652,1990.3509506997652,1990.3509506997652,1990.3509506997652,1990.3509506997652,1992.8596969000064,1992.8596969000064,1992.8596969000064,1992.8596969000064,1992.8596969000064,55,21,36,48,36,56,3.0,1.2123938002623618,1994.0897669997066,1995.8519004997797,,,,,,,,,121,f,21,2022-12-11_17h47.56.387,RL,2022.2.4,60.07604423436596,
1,104,0,104,0,,,,,,,,,,None,1995.8519004997797,1995.8519004997797,1995.8519004997797,1995.8519004997797,1995.8519004997797,1995.8519004997797,f,0.4805944999679923,1996.355751699768,1996.355751699768,1996.355751699768,1996.355751699768,1996.355751699768,1996.355751699768,1996.6500905998982,1996.6500905998982,1998.295767399948,1998.295767399948,1998.295767399948,1998.295767399948,1998.295767399948,1998.295767399948,1998.295767399948,1998.295767399948,1998.295767399948,1998.295767399948,1998.295767399948,1998.295767399948,1998.295767399948,1998.295767399948,1998.295767399948,1998.295767399948,1998.295767399948,2000.8050088998862,2000.8050088998862,2000.8050088998862,2000.8050088998862,2000.8050088998862,46,20,29,54,20,69,2.0,3.0242322999984026,2003.8463608999737,2005.492394299712,,,,,,,,,121,f,21,2022-12-11_17h47.56.387,RL,2022.2.4,60.07604423436596,
1,105,0,105,0,,,,,,,,,,None,2005.492394299712,2005.492394299712,2005.492394299712,2005.492394299712,2005.492394299712,2005.492394299712,f,0.4676315998658538,2005.9951963997446,2005.9951963997446,2005.9951963997446,2005.9951963997446,2005.9951963997446,2005.9951963997446,2006.2903732997365,2006.2903732997365,2008.2187779997475,2008.2187779997475,2008.2187779997475,2008.2187779997475,2008.2187779997475,2008.2187779997475,2008.2187779997475,2008.2187779997475,2008.2187779997475,2008.2187779997475,2008.2187779997475,2008.2187779997475,2008.2187779997475,2008.2187779997475,2008.2187779997475,2008.2187779997475,2008.2187779997475,2010.7276854999363,2010.7276854999363,2010.7276854999363,2010.7276854999363,2010.7276854999363,52,28,31,56,28,39,3.0,0.7970902998931706,2011.5418679998256,2013.5208040997386,,,,,,,,,121,f,21,2022-12-11_17h47.56.387,RL,2022.2.4,60.07604423436596,
1,106,0,106,0,,,,,,,,,,None,2013.5208040997386,2013.5208040997386,2013.5208040997386,2013.5208040997386,2013.5208040997386,2013.5208040997386,i,0.48949140030890703,2014.0381869999692,2014.0381869999692,2014.0381869999692,2014.0381869999692,2014.0381869999692,2014.0381869999692,2014.3355067996308,2014.3355067996308,2015.8475531996228,2015.8475531996228,2015.8475531996228,2015.8475531996228,2015.8475531996228,2015.8475531996228,2015.8475531996228,2015.8475531996228,2015.8475531996228,2015.8475531996228,2015.8475531996228,2015.8475531996228,2015.8475531996228,2015.8475531996228,2015.8475531996228,2015.8475531996228,2015.8475531996228,2018.3565992000513,2018.3565992000513,2018.3565992000513,2018.3565992000513,2018.3565992000513,56,26,20,45,20,50,2.0,1.4446110003627837,2019.8194182999432,2021.7646594997495,,,,,,,,,121,f,21,2022-12-11_17h47.56.387,RL,2022.2.4,60.07604423436596,
1,107,0,107,0,,,,,,,,,,None,2021.7646594997495,2021.7646594997495,2021.7646594997495,2021.7646594997495,2021.7646594997495,2021.7646594997495,j,0.49567849980667233,2022.282628200017,2022.282628200017,2022.282628200017,2022.282628200017,2022.282628200017,2022.282628200017,2022.57986349985,2022.57986349985,2024.3415660997853,2024.3415660997853,2024.3415660997853,2024.3415660997853,2024.3415660997853,2024.3415660997853,2024.3415660997853,2024.3415660997853,2024.3415660997853,2024.3415660997853,2024.3415660997853,2024.3415660997853,2024.3415660997853,2024.3415660997853,2024.3415660997853,2024.3415660997853,2024.3415660997853,2026.850629199762,2026.850629199762,2026.850629199762,2026.850629199762,2026.850629199762,51,28,22,46,46,66,3.0,1.8772932002320886,2028.7452463000081,2030.2580796997063,,,,,,,,,121,f,21,2022-12-11_17h47.56.387,RL,2022.2.4,60.07604423436596,
1,108,0,108,0,,,,,,,,,,None,2030.2580796997063,2030.2580796997063,2030.2580796997063,2030.2580796997063,2030.2580796997063,2030.2580796997063,f,0.7260364997200668,2031.007691099774,2031.007691099774,2031.007691099774,2031.007691099774,2031.007691099774,2031.007691099774,2031.3057633996941,2031.3057633996941,2032.6188261997886,2032.6188261997886,2032.6188261997886,2032.6188261997886,2032.6188261997886,2032.6188261997886,2032.6188261997886,2032.6188261997886,2032.6188261997886,2032.6188261997886,2032.6188261997886,2032.6188261997886,2032.6188261997886,2032.6188261997886,2032.6188261997886,2032.6188261997886,2032.6188261997886,2035.1276495000347,2035.1276495000347,2035.1276495000347,2035.1276495000347,2035.1276495000347,49,27,23,49,27,59,2.0,1.9436685997061431,2037.0887223999016,2038.967962199822,,,,,,,,,121,f,21,2022-12-11_17h47.56.387,RL,2022.2.4,60.07604423436596,
1,109,0,109,0,,,,,,,,,,None,2038.967962199822,2038.967962199822,2038.967962199822,2038.967962199822,2038.967962199822,2038.967962199822,r,0.405396300368011,2039.4044341999106,2039.4044341999106,2039.4044341999106,2039.4044341999106,2039.4044341999106,2039.4044341999106,2039.6995158996433,2039.6995158996433,2040.9957773997448,2040.9957773997448,2041.0128293996677,2041.0128293996677,2041.0128293996677,2041.0128293996677,2041.0128293996677,2041.0128293996677,2041.0128293996677,2041.0128293996677,2041.0128293996677,2041.0128293996677,2041.0128293996677,2041.0128293996677,2041.0128293996677,2041.0128293996677,2041.0128293996677,2043.5213505998254,2043.5213505998254,2043.5213505998254,2043.5213505998254,2043.5213505998254,50,35,25,50,50,52,4.0,0.8808018998242915,2044.41902379971,2046.26460330002,,,,,,,,,121,f,21,2022-12-11_17h47.56.387,RL,2022.2.4,60.07604423436596,
1,110,0,110,0,,,,,,,,,,None,2046.26460330002,2046.26460330002,2046.26460330002,2046.26460330002,2046.26460330002,2046.26460330002,i,0.3299727002158761,2046.6148107000627,2046.6148107000627,2046.6148107000627,2046.6148107000627,2046.6148107000627,2046.6148107000627,2046.9130859998986,2046.9130859998986,2048.0267932997085,2048.0267932997085,2048.0267932997085,2048.0267932997085,2048.0267932997085,2048.0267932997085,2048.0267932997085,2048.0267932997085,2048.0267932997085,2048.0267932997085,2048.0267932997085,2048.0267932997085,2048.0267932997085,2048.0267932997085,2048.0267932997085,2048.0267932997085,2048.0267932997085,2050.535627400037,2050.535627400037,2050.535627400037,2050.535627400037,2050.535627400037,50,37,17,42,17,49,1.0,0.8141756998375058,2051.366613099817,2053.328646400012,,,,,,,,,121,f,21,2022-12-11_17h47.56.387,RL,2022.2.4,60.07604423436596,
1,111,0,111,0,,,,,,,,,,None,2053.328646400012,2053.328646400012,2053.328646400012,2053.328646400012,2053.328646400012,2053.328646400012,j,0.023107999935746193,2053.3801858997904,2053.3801858997904,2053.3801858997904,2053.3801858997904,2053.3801858997904,2053.3801858997904,2053.677944999654,2053.677944999654,2054.8079291996546,2054.8079291996546,2054.8248450998217,2054.8248450998217,2054.8248450998217,2054.8248450998217,2054.8248450998217,2054.8248450998217,2054.8248450998217,2054.8248450998217,2054.8248450998217,2054.8248450998217,2054.8248450998217,2054.8248450998217,2054.8248450998217,2054.8248450998217,2054.8248450998217,2057.333782899659,2057.333782899659,2057.333782899659,2057.333782899659,2057.333782899659,46,34,28,40,40,41,4.0,0.9131120997481048,2058.264511999674,2059.9770869999193,,,,,,,,,121,f,21,2022-12-11_17h47.56.387,RL,2022.2.4,60.07604423436596,
1,112,0,112,0,,,,,,,,,,None,2059.9770869999193,2059.9770869999193,2059.9770869999193,2059.9770869999193,2059.9770869999193,2059.9770869999193,f,0.42071039974689484,2060.4307617000304,2060.4307617000304,2060.4307617000304,2060.4307617000304,2060.4307617000304,2060.4307617000304,2060.725379699841,2060.725379699841,2062.2880571996793,2062.2880571996793,2062.3042311999016,2062.3042311999016,2062.3042311999016,2062.3042311999016,2062.3042311999016,2062.3042311999016,2062.3042311999016,2062.3042311999016,2062.3042311999016,2062.3042311999016,2062.3042311999016,2062.3042311999016,2062.3042311999016,2062.3042311999016,2062.3042311999016,2064.813635800034,2064.813635800034,2064.813635800034,2064.813635800034,2064.813635800034,44,43,32,46,43,44,4.0,1.794315000064671,2066.6252898997627,2068.48750429973,,,,,,,,,121,f,21,2022-12-11_17h47.56.387,RL,2022.2.4,60.07604423436596,
