bandit,trials.thisRepN,trials.thisTrialN,trials.thisN,trials.thisIndex,instru_img1.started,instru_img1.stopped,instru_resp.keys,instru_resp.rt,instru_resp.started,instru_resp.stopped,instru_img2.started,instru_img2.stopped,instru_resp2.keys,instru_resp2.rt,instru_resp2.started,instru_resp2.stopped,fixbefore_2.started,fixbefore_2.stopped,rest_image.started,rest_image.stopped,rest_response.keys,rest_response.started,rest_response.stopped,red.started,red.stopped,green.started,green.stopped,yellow.started,yellow.stopped,blue.started,blue.stopped,choose_bandit.keys,choose_bandit.rt,choose_bandit.started,choose_bandit.stopped,Fixation.started,Fixation.stopped,black.started,black.stopped,red_2.started,red_2.stopped,green_2.started,green_2.stopped,yellow_2.started,yellow_2.stopped,blue_2.started,blue_2.stopped,fixation_2.started,fixation_2.stopped,docs.started,docs.stopped,image_2.started,image_2.stopped,black_com.started,black_com.stopped,reward_sub.started,reward_sub.stopped,palyerb.started,palyerb.stopped,reward__sub.started,reward__sub.stopped,compare.started,compare.stopped,red_compare.started,red_compare.stopped,green_com.started,green_com.stopped,yellow_com.started,yellow_com.stopped,blue_com.started,blue_com.stopped,rewardyellow,rewardred,rewardblue,rewardgreen,subchoose,playerb,image_3.started,image_3.stopped,slider.response,slider.rt,slider.started,slider.stopped,text.started,text.stopped,image_4.started,image_4.stopped,image_5.started,image_5.stopped,bigx.started,bigx.stopped,intertrialfix.started,intertrialfix.stopped,rest_response.rt,image.started,image.stopped,key_resp.keys,key_resp.started,key_resp.stopped,participant,Gender,Age,date,expName,psychopyVersion,frameRate,
,,,,,985.6877572000958,None,space,40.07451130007394,985.6877572000958,None,,,,,,,,,,,,,,,,,,,,,,,,,,,,,,,,,,,,,,,,,,,,,,,,,,,,,,,,,,,,,,,,,,,,,,,,,,,,,,,,,,,,,,,,,,122,f,26,2022_Dec_11_1747,RL,2021.2.3,59.99026957402073,
,,,,,,,,,,,1025.7780780000612,None,space,41.68790060002357,1025.7780780000612,None,,,,,,,,,,,,,,,,,,,,,,,,,,,,,,,,,,,,,,,,,,,,,,,,,,,,,,,,,,,,,,,,,,,,,,,,,,,,,,,,,,,,122,f,26,2022_Dec_11_1747,RL,2021.2.3,59.99026957402073,
1,0,0,0,0,,,,,,,,,,,,,1067.5001632000785,None,None,None,None,None,None,1068.5205731999595,None,1068.5205731999595,None,1068.5205731999595,None,1068.5205731999595,None,i,0.5926345000043511,1068.5205731999595,None,1068.5205731999595,None,1069.1705887999851,None,1069.1705887999851,None,1069.1705887999851,None,1069.1705887999851,None,1069.1705887999851,None,1069.1705887999851,None,1069.4566470000427,1071.224429700058,1069.4566470000427,1071.224429700058,1071.2687973999418,None,1071.2687973999418,None,1071.2687973999418,None,1071.2687973999418,None,1071.2687973999418,None,1071.2687973999418,None,1071.2687973999418,None,1071.2687973999418,None,1071.2687973999418,None,58,43,40,49,40,61,1073.8021821000148,None,4.0,4.285634099971503,1073.8021821000148,None,1073.8021821000148,None,1073.8021821000148,None,1073.8021821000148,None,None,None,1078.1182544999756,None,,,,,,,122,f,26,2022_Dec_11_1747,RL,2021.2.3,59.99026957402073,
1,1,0,1,0,,,,,,,,,,,,,,,None,None,None,None,None,1079.900016099913,None,1079.900016099913,None,1079.900016099913,None,1079.900016099913,None,f,0.5233338999096304,1079.900016099913,None,1079.900016099913,None,1080.470064100111,None,1080.470064100111,None,1080.470064100111,None,1080.470064100111,None,1080.470064100111,None,1080.470064100111,None,1080.7647013000678,None,1080.7647013000678,None,1082.5003744999412,None,1082.5003744999412,None,1082.5003744999412,None,1082.5003744999412,None,1082.5003744999412,None,1082.5003744999412,None,1082.5003744999412,None,1082.5003744999412,None,1082.5003744999412,None,54,44,38,47,44,24,1085.0179856000468,None,5.0,2.0849549998529255,1085.0179856000468,None,1085.0179856000468,None,1085.0179856000468,None,1085.0179856000468,None,None,None,1087.1185246000532,None,,,,,,,122,f,26,2022_Dec_11_1747,RL,2021.2.3,59.99026957402073,
1,2,0,2,0,,,,,,,,,,,,,,,None,None,None,None,None,1088.7893417000305,None,1088.7893417000305,None,1088.7893417000305,None,1088.7893417000305,None,r,0.43410419998690486,1088.7893417000305,None,1088.7893417000305,None,1089.2775922000874,None,1089.2775922000874,None,1089.2775922000874,None,1089.2775922000874,None,1089.2775922000874,None,1089.2775922000874,None,1089.553902799962,1091.5217051999643,1089.553902799962,1091.5217051999643,1091.572254100116,None,1091.572254100116,None,1091.572254100116,None,1091.572254100116,None,1091.572254100116,None,1091.572254100116,None,1091.572254100116,None,1091.572254100116,None,1091.572254100116,None,57,39,40,50,57,51,1094.0833163000643,None,5.0,1.6265664999373257,1094.0833163000643,None,1094.0833163000643,None,1094.0833163000643,None,1094.0833163000643,None,None,None,1095.7359070999082,None,,,,,,,122,f,26,2022_Dec_11_1747,RL,2021.2.3,59.99026957402073,
1,3,0,3,0,,,,,,,,,,,,,,,None,None,None,None,None,1097.7123227000702,None,1097.7123227000702,None,1097.7123227000702,None,1097.7123227000702,None,i,0.47095460002310574,1097.7123227000702,None,1097.7123227000702,None,1098.2337845000438,None,1098.2337845000438,None,1098.2337845000438,None,1098.2337845000438,None,1098.2337845000438,None,1098.2337845000438,None,1098.5101215001196,1100.228057899978,1098.5101215001196,1100.228057899978,1100.261718899943,None,1100.261718899943,None,1100.261718899943,None,1100.261718899943,None,1100.261718899943,None,1100.261718899943,None,1100.261718899943,None,1100.261718899943,None,1100.261718899943,None,57,47,40,40,40,43,1102.7740652000066,None,4.0,2.3217253999318928,1102.7740652000066,None,1102.7740652000066,None,1102.7740652000066,None,1102.7740652000066,None,None,None,1105.1141856999602,None,,,,,,,122,f,26,2022_Dec_11_1747,RL,2021.2.3,59.99026957402073,
1,4,0,4,0,,,,,,,,,,,,,,,None,None,None,None,None,1106.8198959000874,None,1106.8198959000874,None,1106.8198959000874,None,1106.8198959000874,None,j,0.47361059999093413,1106.8198959000874,None,1106.8198959000874,None,1107.3379152000416,None,1107.3379152000416,None,1107.3379152000416,None,1107.3379152000416,None,1107.3379152000416,None,1107.3379152000416,None,1107.6331625999883,None,1107.6331625999883,None,1108.9302582000382,None,1108.9302582000382,None,1108.9302582000382,None,1108.9302582000382,None,1108.9302582000382,None,1108.9302582000382,None,1108.9302582000382,None,1108.9302582000382,None,1108.9302582000382,None,62,42,36,45,45,53,1111.4484357000329,None,4.0,1.956260999897495,1111.4484357000329,None,1111.4484357000329,None,1111.4484357000329,None,1111.4484357000329,None,None,None,1113.419882300077,None,,,,,,,122,f,26,2022_Dec_11_1747,RL,2021.2.3,59.99026957402073,
1,5,0,5,0,,,,,,,,,,,,,,,None,None,None,None,None,1115.0908780000173,None,1115.0908780000173,None,1115.0908780000173,None,1115.0908780000173,None,r,0.3223422998562455,1115.0908780000173,None,1115.0908780000173,None,1115.4592486999463,None,1115.4592486999463,None,1115.4592486999463,None,1115.4592486999463,None,1115.4592486999463,None,1115.4592486999463,None,1115.7553220998961,None,1115.7553220998961,None,1117.47121410002,None,1117.47121410002,None,1117.47121410002,None,1117.47121410002,None,1117.47121410002,None,1117.47121410002,None,1117.47121410002,None,1117.47121410002,None,1117.47121410002,None,54,40,50,39,54,55,1119.9975393000059,None,4.0,3.1855480999220163,1119.9975393000059,None,1119.9975393000059,None,1119.9975393000059,None,1119.9975393000059,None,None,None,1123.1937363001052,None,,,,,,,122,f,26,2022_Dec_11_1747,RL,2021.2.3,59.99026957402073,
1,6,0,6,0,,,,,,,,,,,,,,,None,None,None,None,None,1125.0145928000566,None,1125.0145928000566,None,1125.0145928000566,None,1125.0145928000566,None,f,0.39913700008764863,1125.0145928000566,None,1125.0145928000566,None,1125.469163700007,None,1125.469163700007,None,1125.469163700007,None,1125.469163700007,None,1125.469163700007,None,1125.469163700007,None,1125.7457308000885,1126.6127824999858,1125.7457308000885,1126.6127824999858,1126.646097100107,None,1126.646097100107,None,1126.646097100107,None,1126.646097100107,None,1126.646097100107,None,1126.646097100107,None,1126.646097100107,None,1126.646097100107,None,1126.646097100107,None,51,39,39,49,39,53,1129.1672771000303,None,3.0,1.9357129000127316,1129.1672771000303,None,1129.1672771000303,None,1129.1672771000303,None,1129.1672771000303,None,None,None,1131.1172199998982,None,,,,,,,122,f,26,2022_Dec_11_1747,RL,2021.2.3,59.99026957402073,
1,7,0,7,0,,,,,,,,,,,,,,,None,None,None,None,None,1132.6203395000193,None,1132.6203395000193,None,1132.6203395000193,None,1132.6203395000193,None,i,0.7231922999490052,1132.6203395000193,None,1132.6203395000193,None,1133.3899962999858,None,1133.3899962999858,None,1133.3899962999858,None,1133.3899962999858,None,1133.3899962999858,None,1133.3899962999858,None,1133.6848373000976,None,1133.6848373000976,None,1135.1214147999417,None,1135.1214147999417,None,1135.1214147999417,None,1135.1214147999417,None,1135.1214147999417,None,1135.1214147999417,None,1135.1214147999417,None,1135.1214147999417,None,1135.1214147999417,None,60,44,42,47,42,58,1137.6334828999825,None,4.0,2.3729622999671847,1137.6334828999825,None,1137.6334828999825,None,1137.6334828999825,None,1137.6334828999825,None,None,None,1140.0268802999053,None,,,,,,,122,f,26,2022_Dec_11_1747,RL,2021.2.3,59.99026957402073,
1,8,0,8,0,,,,,,,,,,,,,,,None,None,None,None,None,1142.010015600128,None,1142.010015600128,None,1142.010015600128,None,1142.010015600128,None,f,0.9937559999525547,1142.010015600128,None,1142.010015600128,None,1143.0462118999567,None,1143.0462118999567,None,1143.0462118999567,None,1143.0462118999567,None,1143.0462118999567,None,1143.0462118999567,None,1143.341199199902,None,1143.341199199902,None,1144.8065965001006,None,1144.8065965001006,None,1144.8065965001006,None,1144.8065965001006,None,1144.8065965001006,None,1144.8065965001006,None,1144.8065965001006,None,1144.8065965001006,None,1144.8065965001006,None,57,39,34,45,39,47,1147.3241143999621,None,3.0,1.9883097000420094,1147.3241143999621,None,1147.3241143999621,None,1147.3241143999621,None,1147.3241143999621,None,None,None,1149.328171200119,None,,,,,,,122,f,26,2022_Dec_11_1747,RL,2021.2.3,59.99026957402073,
1,9,0,9,0,,,,,,,,,,,,,,,None,None,None,None,None,1151.0155875000637,None,1151.0155875000637,None,1151.0155875000637,None,1151.0155875000637,None,f,1.4493660000152886,1151.0155875000637,None,1151.0155875000637,None,1152.5049403000157,None,1152.5049403000157,None,1152.5049403000157,None,1152.5049403000157,None,1152.5049403000157,None,1152.5049403000157,None,1152.7975173001178,None,1152.7975173001178,None,1153.9459583999123,None,1153.9459583999123,None,1153.9459583999123,None,1153.9459583999123,None,1153.9459583999123,None,1153.9459583999123,None,1153.9459583999123,None,1153.9459583999123,None,1153.9459583999123,None,57,40,39,40,40,66,1156.4682984000538,None,3.0,2.0859492998570204,1156.4682984000538,None,1156.4682984000538,None,1156.4682984000538,None,1156.4682984000538,None,None,None,1158.5680893999524,None,,,,,,,122,f,26,2022_Dec_11_1747,RL,2021.2.3,59.99026957402073,
1,10,0,10,0,,,,,,,,,,,,,,,None,None,None,None,None,1160.4389693001285,None,1160.4389693001285,None,1160.4389693001285,None,1160.4389693001285,None,None,,1160.4389693001285,None,1160.4389693001285,None,None,None,None,None,None,None,None,None,None,None,None,None,None,None,None,None,None,None,None,None,None,None,None,None,None,None,None,None,None,None,None,None,None,None,65,40,34,44,0,**,None,None,None,None,None,None,None,None,None,None,None,None,1162.0009789001197,None,1166.5068268999457,None,,,,,,,122,f,26,2022_Dec_11_1747,RL,2021.2.3,59.99026957402073,
1,11,0,11,0,,,,,,,,,,,,,,,None,None,None,None,None,1168.0942875999026,None,1168.0942875999026,None,1168.0942875999026,None,1168.0942875999026,None,r,0.5603660000488162,1168.0942875999026,None,1168.0942875999026,None,1168.6971700000577,None,1168.6971700000577,None,1168.6971700000577,None,1168.6971700000577,None,1168.6971700000577,None,1168.6971700000577,None,1168.9923247999977,None,1168.9923247999977,None,1170.1563200999517,None,1170.1563200999517,None,1170.1563200999517,None,1170.1563200999517,None,1170.1563200999517,None,1170.1563200999517,None,1170.1563200999517,None,1170.1563200999517,None,1170.1563200999517,None,65,38,34,37,65,59,1172.6743888000492,None,3.0,1.9877035999670625,1172.6743888000492,None,1172.6743888000492,None,1172.6743888000492,None,1172.6743888000492,None,None,None,1174.6790605001152,None,,,,,,,122,f,26,2022_Dec_11_1747,RL,2021.2.3,59.99026957402073,
1,12,0,12,0,,,,,,,,,,,,,,,None,None,None,None,None,1176.2334050999489,None,1176.2334050999489,None,1176.2334050999489,None,1176.2334050999489,None,f,0.501252599991858,1176.2334050999489,None,1176.2334050999489,None,1176.786115600029,None,1176.786115600029,None,1176.786115600029,None,1176.786115600029,None,1176.786115600029,None,1176.786115600029,None,1177.081188299926,None,1177.081188299926,None,1178.9619895000942,None,1178.9619895000942,None,1178.9619895000942,None,1178.9619895000942,None,1178.9619895000942,None,1178.9619895000942,None,1178.9619895000942,None,1178.9619895000942,None,1178.9619895000942,None,68,46,30,32,46,58,1181.4806912001222,None,4.0,2.2066832000855356,1181.4806912001222,None,1181.4806912001222,None,1181.4806912001222,None,1181.4806912001222,None,None,None,1183.7017099999357,None,,,,,,,122,f,26,2022_Dec_11_1747,RL,2021.2.3,59.99026957402073,
1,13,0,13,0,,,,,,,,,,,,,,,None,None,None,None,None,1185.5233998000622,None,1185.5233998000622,None,1185.5233998000622,None,1185.5233998000622,None,r,0.4617155999876559,1185.5233998000622,None,1185.5233998000622,None,1186.0290304999799,None,1186.0290304999799,None,1186.0290304999799,None,1186.0290304999799,None,1186.0290304999799,None,1186.0290304999799,None,1186.3209164000582,1188.238851699978,1186.3209164000582,1188.238851699978,1188.2710218001157,None,1188.2710218001157,None,1188.2710218001157,None,1188.2710218001157,None,1188.2710218001157,None,1188.2710218001157,None,1188.2710218001157,None,1188.2710218001157,None,1188.2710218001157,None,62,35,37,44,62,42,1190.784573999932,None,5.0,1.7090137999039143,1190.784573999932,None,1190.784573999932,None,1190.784573999932,None,1190.784573999932,None,None,None,1192.5164359000046,None,,,,,,,122,f,26,2022_Dec_11_1747,RL,2021.2.3,59.99026957402073,
1,14,0,14,0,,,,,,,,,,,,,,,None,None,None,None,None,1194.362950900104,None,1194.362950900104,None,1194.362950900104,None,1194.362950900104,None,r,0.3720433001872152,1194.362950900104,None,1194.362950900104,None,1194.7841270000208,None,1194.7841270000208,None,1194.7841270000208,None,1194.7841270000208,None,1194.7841270000208,None,1194.7841270000208,None,1195.0770189999603,None,1195.0770189999603,None,1196.6408732999116,None,1196.6408732999116,None,1196.6408732999116,None,1196.6408732999116,None,1196.6408732999116,None,1196.6408732999116,None,1196.6408732999116,None,1196.6408732999116,None,1196.6408732999116,None,69,52,37,44,69,37,1199.159022100037,None,5.0,0.907276000129059,1199.159022100037,None,1199.159022100037,None,1199.159022100037,None,1199.159022100037,None,None,None,1200.0820071001071,None,,,,,,,122,f,26,2022_Dec_11_1747,RL,2021.2.3,59.99026957402073,
1,15,0,15,0,,,,,,,,,,,,,,,None,None,None,None,None,1201.917919700034,None,1201.917919700034,None,1201.917919700034,None,1201.917919700034,None,r,0.47712389985099435,1201.917919700034,None,1201.917919700034,None,1202.4368996000849,None,1202.4368996000849,None,1202.4368996000849,None,1202.4368996000849,None,1202.4368996000849,None,1202.4368996000849,None,1202.7323898000177,None,1202.7323898000177,None,1204.5119344000705,None,1204.5119344000705,None,1204.5119344000705,None,1204.5119344000705,None,1204.5119344000705,None,1204.5119344000705,None,1204.5119344000705,None,1204.5119344000705,None,1204.5119344000705,None,62,45,35,43,62,45,1207.0353705000598,None,4.0,2.1027991001028568,1207.0353705000598,None,1207.0353705000598,None,1207.0353705000598,None,1207.0353705000598,None,None,None,1209.153159199981,None,,,,,,,122,f,26,2022_Dec_11_1747,RL,2021.2.3,59.99026957402073,
1,16,0,16,0,,,,,,,,,,,,,,,None,None,None,None,None,1211.04149949993,None,1211.04149949993,None,1211.04149949993,None,1211.04149949993,None,r,0.4336089000571519,1211.04149949993,None,1211.04149949993,None,1211.5282986001112,None,1211.5282986001112,None,1211.5282986001112,None,1211.5282986001112,None,1211.5282986001112,None,1211.5282986001112,None,1211.8219294999726,None,1211.8219294999726,None,1213.660209099995,None,1213.660209099995,None,1213.660209099995,None,1213.660209099995,None,1213.660209099995,None,1213.660209099995,None,1213.660209099995,None,1213.660209099995,None,1213.660209099995,None,62,38,25,37,62,50,1216.1727636998985,None,4.0,1.2376147999893874,1216.1727636998985,None,1216.1727636998985,None,1216.1727636998985,None,1216.1727636998985,None,None,None,1217.4253734000959,None,,,,,,,122,f,26,2022_Dec_11_1747,RL,2021.2.3,59.99026957402073,
1,17,0,17,0,,,,,,,,,,,,,,,None,None,None,None,None,1218.9798008999787,None,1218.9798008999787,None,1218.9798008999787,None,1218.9798008999787,None,r,0.5852091000415385,1218.9798008999787,None,1218.9798008999787,None,1219.616427199915,None,1219.616427199915,None,1219.616427199915,None,1219.616427199915,None,1219.616427199915,None,1219.616427199915,None,1219.9109247999731,None,1219.9109247999731,None,1221.9088973999023,None,1221.9088973999023,None,1221.9088973999023,None,1221.9088973999023,None,1221.9088973999023,None,1221.9088973999023,None,1221.9088973999023,None,1221.9088973999023,None,1221.9088973999023,None,67,42,34,30,67,55,1224.4253114000894,None,5.0,0.9231428999919444,1224.4253114000894,None,1224.4253114000894,None,1224.4253114000894,None,1224.4253114000894,None,None,None,1225.3685083999299,None,,,,,,,122,f,26,2022_Dec_11_1747,RL,2021.2.3,59.99026957402073,
1,18,0,18,0,,,,,,,,,,,,,,,None,None,None,None,None,1226.9513993000146,None,1226.9513993000146,None,1226.9513993000146,None,1226.9513993000146,None,r,0.6237977999262512,1226.9513993000146,None,1226.9513993000146,None,1227.6219860001002,None,1227.6219860001002,None,1227.6219860001002,None,1227.6219860001002,None,1227.6219860001002,None,1227.6219860001002,None,1227.9165036000777,1229.1838682999369,1227.9165036000777,1229.1838682999369,1229.2167178001255,None,1229.2167178001255,None,1229.2167178001255,None,1229.2167178001255,None,1229.2167178001255,None,1229.2167178001255,None,1229.2167178001255,None,1229.2167178001255,None,1229.2167178001255,None,62,49,23,36,62,38,1231.7374746999703,None,5.0,2.030148899881169,1231.7374746999703,None,1231.7374746999703,None,1231.7374746999703,None,1231.7374746999703,None,None,None,1233.7868904999923,None,,,,,,,122,f,26,2022_Dec_11_1747,RL,2021.2.3,59.99026957402073,
1,19,0,19,0,,,,,,,,,,,,,,,None,None,None,None,None,1235.5243252001237,None,1235.5243252001237,None,1235.5243252001237,None,1235.5243252001237,None,r,0.3308635000139475,1235.5243252001237,None,1235.5243252001237,None,1235.8950161999092,None,1235.8950161999092,None,1235.8950161999092,None,1235.8950161999092,None,1235.8950161999092,None,1235.8950161999092,None,1236.1721087999176,1237.8231872001197,1236.1721087999176,1237.8231872001197,1237.8551564000081,None,1237.8551564000081,None,1237.8551564000081,None,1237.8551564000081,None,1237.8551564000081,None,1237.8551564000081,None,1237.8551564000081,None,1237.8551564000081,None,1237.8551564000081,None,67,50,17,30,67,68,1240.3712112000212,None,4.0,1.3891372999642044,1240.3712112000212,None,1240.3712112000212,None,1240.3712112000212,None,1240.3712112000212,None,None,None,1241.7755575000774,None,,,,,,,122,f,26,2022_Dec_11_1747,RL,2021.2.3,59.99026957402073,
1,20,0,20,0,,,,,,,,,,,,,,,None,None,None,None,None,1243.6954882999416,None,1243.6954882999416,None,1243.6954882999416,None,1243.6954882999416,None,f,0.3499046000652015,1243.6954882999416,None,1243.6954882999416,None,1244.0976307000965,None,1244.0976307000965,None,1244.0976307000965,None,1244.0976307000965,None,1244.0976307000965,None,1244.0976307000965,None,1244.3945621999446,1245.7454679000657,1244.3945621999446,1245.7454679000657,1245.7787146999035,None,1245.7787146999035,None,1245.7787146999035,None,1245.7787146999035,None,1245.7787146999035,None,1245.7787146999035,None,1245.7787146999035,None,1245.7787146999035,None,1245.7787146999035,None,68,50,16,43,50,66,1248.294208599953,None,4.0,2.1876157000660896,1248.294208599953,None,1248.294208599953,None,1248.294208599953,None,1248.294208599953,None,None,None,1250.499006099999,None,,,,,,,122,f,26,2022_Dec_11_1747,RL,2021.2.3,59.99026957402073,
1,21,0,21,0,,,,,,,,,,,,,,,None,None,None,None,None,1252.2529369001277,None,1252.2529369001277,None,1252.2529369001277,None,1252.2529369001277,None,j,0.33259639982134104,1252.2529369001277,None,1252.2529369001277,None,1252.6470029000193,None,1252.6470029000193,None,1252.6470029000193,None,1252.6470029000193,None,1252.6470029000193,None,1252.6470029000193,None,1252.9338066999335,1254.117770700017,1252.9338066999335,1254.117770700017,1254.1478115001228,None,1254.1478115001228,None,1254.1478115001228,None,1254.1478115001228,None,1254.1478115001228,None,1254.1478115001228,None,1254.1478115001228,None,1254.1478115001228,None,1254.1478115001228,None,70,51,24,34,34,71,1256.6663937000558,None,3.0,2.4902577998582274,1256.6663937000558,None,1256.6663937000558,None,1256.6663937000558,None,1256.6663937000558,None,None,None,1259.1806807001121,None,,,,,,,122,f,26,2022_Dec_11_1747,RL,2021.2.3,59.99026957402073,
1,22,0,22,0,,,,,,,,,,,,,,,None,None,None,None,None,1260.7250914000906,None,1260.7250914000906,None,1260.7250914000906,None,1260.7250914000906,None,i,0.36030369997024536,1260.7250914000906,None,1260.7250914000906,None,1261.127480499912,None,1261.127480499912,None,1261.127480499912,None,1261.127480499912,None,1261.127480499912,None,1261.127480499912,None,1261.423047499964,None,1261.423047499964,None,1262.7026597999502,None,1262.7026597999502,None,1262.7026597999502,None,1262.7026597999502,None,1262.7026597999502,None,1262.7026597999502,None,1262.7026597999502,None,1262.7026597999502,None,1262.7026597999502,None,65,49,33,36,33,62,1265.2283590999432,None,3.0,1.2653413999360055,1265.2283590999432,None,1265.2283590999432,None,1265.2283590999432,None,1265.2283590999432,None,None,None,1266.5093916999176,None,,,,,,,122,f,26,2022_Dec_11_1747,RL,2021.2.3,59.99026957402073,
1,23,0,23,0,,,,,,,,,,,,,,,None,None,None,None,None,1268.1307836000342,None,1268.1307836000342,None,1268.1307836000342,None,1268.1307836000342,None,r,0.304557700175792,1268.1307836000342,None,1268.1307836000342,None,1268.4821993999649,None,1268.4821993999649,None,1268.4821993999649,None,1268.4821993999649,None,1268.4821993999649,None,1268.4821993999649,None,1268.7781706000678,1270.0788141000085,1268.7781706000678,1270.0788141000085,1270.1098468999844,None,1270.1098468999844,None,1270.1098468999844,None,1270.1098468999844,None,1270.1098468999844,None,1270.1098468999844,None,1270.1098468999844,None,1270.1098468999844,None,1270.1098468999844,None,70,45,32,25,70,62,1272.626718699932,None,4.0,1.0560582999605685,1272.626718699932,None,1272.626718699932,None,1272.626718699932,None,1272.626718699932,None,None,None,1273.6976699999068,None,,,,,,,122,f,26,2022_Dec_11_1747,RL,2021.2.3,59.99026957402073,
1,24,0,24,0,,,,,,,,,,,,,,,None,None,None,None,None,1275.2524292999879,None,1275.2524292999879,None,1275.2524292999879,None,1275.2524292999879,None,r,0.2728537998627871,1275.2524292999879,None,1275.2524292999879,None,1275.5706249000505,None,1275.5706249000505,None,1275.5706249000505,None,1275.5706249000505,None,1275.5706249000505,None,1275.5706249000505,None,1275.866287899902,None,1275.866287899902,None,1277.1972215001006,None,1277.1972215001006,None,1277.1972215001006,None,1277.1972215001006,None,1277.1972215001006,None,1277.1972215001006,None,1277.1972215001006,None,1277.1972215001006,None,1277.1972215001006,None,57,43,32,29,57,49,1279.7152668999042,None,5.0,1.7399157998152077,1279.7152668999042,None,1279.7152668999042,None,1279.7152668999042,None,1279.7152668999042,None,None,None,1281.4697911001276,None,,,,,,,122,f,26,2022_Dec_11_1747,RL,2021.2.3,59.99026957402073,
1,25,0,25,0,,,,,,,,,,,,,,,None,None,None,None,None,1283.1578635999467,None,1283.1578635999467,None,1283.1578635999467,None,1283.1578635999467,None,r,0.2876019000541419,1283.1578635999467,None,1283.1578635999467,None,1283.4946228999179,None,1283.4946228999179,None,1283.4946228999179,None,1283.4946228999179,None,1283.4946228999179,None,1283.4946228999179,None,1283.7718879999593,1285.022491000127,1283.7718879999593,1285.022491000127,1285.0552397998981,None,1285.0552397998981,None,1285.0552397998981,None,1285.0552397998981,None,1285.0552397998981,None,1285.0552397998981,None,1285.0552397998981,None,1285.0552397998981,None,1285.0552397998981,None,60,53,28,33,60,62,1287.578119700076,None,3.0,1.0483562999870628,1287.578119700076,None,1287.578119700076,None,1287.578119700076,None,1287.578119700076,None,None,None,1288.6466061000247,None,,,,,,,122,f,26,2022_Dec_11_1747,RL,2021.2.3,59.99026957402073,
1,26,0,26,0,,,,,,,,,,,,,,,None,None,None,None,None,1290.5789353,None,1290.5789353,None,1290.5789353,None,1290.5789353,None,r,1.2066919000353664,1290.5789353,None,1290.5789353,None,1291.8321579000913,None,1291.8321579000913,None,1291.8321579000913,None,1291.8321579000913,None,1291.8321579000913,None,1291.8321579000913,None,1292.1276116999798,1293.4617544999346,1292.1276116999798,1293.4617544999346,1293.4950178000145,None,1293.4950178000145,None,1293.4950178000145,None,1293.4950178000145,None,1293.4950178000145,None,1293.4950178000145,None,1293.4950178000145,None,1293.4950178000145,None,1293.4950178000145,None,62,51,34,37,62,50,1296.0099065001123,None,5.0,1.1894095002207905,1296.0099065001123,None,1296.0099065001123,None,1296.0099065001123,None,1296.0099065001123,None,None,None,1297.214066799963,None,,,,,,,122,f,26,2022_Dec_11_1747,RL,2021.2.3,59.99026957402073,
1,27,0,27,0,,,,,,,,,,,,,,,None,None,None,None,None,1299.1351105000358,None,1299.1351105000358,None,1299.1351105000358,None,1299.1351105000358,None,r,0.3605269999243319,1299.1351105000358,None,1299.1351105000358,None,1299.5365790999494,None,1299.5365790999494,None,1299.5365790999494,None,1299.5365790999494,None,1299.5365790999494,None,1299.5365790999494,None,1299.8330049999058,1300.666773099918,1299.8330049999058,1300.666773099918,1300.7004241000395,None,1300.7004241000395,None,1300.7004241000395,None,1300.7004241000395,None,1300.7004241000395,None,1300.7004241000395,None,1300.7004241000395,None,1300.7004241000395,None,1300.7004241000395,None,59,46,34,51,59,43,1303.219493099954,None,5.0,1.6849908002186567,1303.219493099954,None,1303.219493099954,None,1303.219493099954,None,1303.219493099954,None,None,None,1304.9193780000787,None,,,,,,,122,f,26,2022_Dec_11_1747,RL,2021.2.3,59.99026957402073,
1,28,0,28,0,,,,,,,,,,,,,,,None,None,None,None,None,1306.5236392999068,None,1306.5236392999068,None,1306.5236392999068,None,1306.5236392999068,None,r,0.712034499971196,1306.5236392999068,None,1306.5236392999068,None,1307.27495849994,None,1307.27495849994,None,1307.27495849994,None,1307.27495849994,None,1307.27495849994,None,1307.27495849994,None,1307.571686899988,1309.5062307000626,1307.571686899988,1309.5062307000626,1309.5363394999877,None,1309.5363394999877,None,1309.5363394999877,None,1309.5363394999877,None,1309.5363394999877,None,1309.5363394999877,None,1309.5363394999877,None,1309.5363394999877,None,1309.5363394999877,None,66,53,27,42,66,65,1312.053100500023,None,5.0,0.7047566999681294,1312.053100500023,None,1312.053100500023,None,1312.053100500023,None,1312.053100500023,None,None,None,1312.7746621000115,None,,,,,,,122,f,26,2022_Dec_11_1747,RL,2021.2.3,59.99026957402073,
1,29,0,29,0,,,,,,,,,,,,,,,None,None,None,None,None,1314.4456444000825,None,1314.4456444000825,None,1314.4456444000825,None,1314.4456444000825,None,r,0.3600379000417888,1314.4456444000825,None,1314.4456444000825,None,1314.8515463999938,None,1314.8515463999938,None,1314.8515463999938,None,1314.8515463999938,None,1314.8515463999938,None,1314.8515463999938,None,1315.1435569000896,1316.3443195999134,1315.1435569000896,1316.3443195999134,1316.376443499932,None,1316.376443499932,None,1316.376443499932,None,1316.376443499932,None,1316.376443499932,None,1316.376443499932,None,1316.376443499932,None,1316.376443499932,None,1316.376443499932,None,56,44,23,32,56,74,1318.8900786999147,None,3.0,1.3574669999070466,1318.8900786999147,None,1318.8900786999147,None,1318.8900786999147,None,1318.8900786999147,None,None,None,1320.2632744999137,None,,,,,,,122,f,26,2022_Dec_11_1747,RL,2021.2.3,59.99026957402073,
1,30,0,30,0,,,,,,,,,,,,,,,None,None,None,None,None,1322.1345027999487,None,1322.1345027999487,None,1322.1345027999487,None,1322.1345027999487,None,r,0.320990800159052,1322.1345027999487,None,1322.1345027999487,None,1322.5053169999737,None,1322.5053169999737,None,1322.5053169999737,None,1322.5053169999737,None,1322.5053169999737,None,1322.5053169999737,None,1322.7826759999152,1324.049744799966,1322.7826759999152,1324.049744799966,1324.0976386999246,None,1324.0976386999246,None,1324.0976386999246,None,1324.0976386999246,None,1324.0976386999246,None,1324.0976386999246,None,1324.0976386999246,None,1324.0976386999246,None,1324.0976386999246,None,49,52,34,38,49,75,1326.6178212999366,None,3.0,1.536064499989152,1326.6178212999366,None,1326.6178212999366,None,1326.6178212999366,None,1326.6178212999366,None,None,None,1328.168836100027,None,,,,,,,122,f,26,2022_Dec_11_1747,RL,2021.2.3,59.99026957402073,
1,31,0,31,0,,,,,,,,,,,,,,,None,None,None,None,None,1329.9569369999226,None,1329.9569369999226,None,1329.9569369999226,None,1329.9569369999226,None,f,0.38951339991763234,1329.9569369999226,None,1329.9569369999226,None,1330.3982726999093,None,1330.3982726999093,None,1330.3982726999093,None,1330.3982726999093,None,1330.3982726999093,None,1330.3982726999093,None,1330.6880731999408,None,1330.6880731999408,None,1332.1761793000624,None,1332.1761793000624,None,1332.1761793000624,None,1332.1761793000624,None,1332.1761793000624,None,1332.1761793000624,None,1332.1761793000624,None,1332.1761793000624,None,1332.1761793000624,None,48,51,30,38,51,57,1334.6905223000795,None,3.0,1.2355476000811905,1334.6905223000795,None,1334.6905223000795,None,1334.6905223000795,None,1334.6905223000795,None,None,None,1335.9409630000591,None,,,,,,,122,f,26,2022_Dec_11_1747,RL,2021.2.3,59.99026957402073,
1,32,0,32,0,,,,,,,,,,,,,,,None,None,None,None,None,1337.8618874000385,None,1337.8618874000385,None,1337.8618874000385,None,1337.8618874000385,None,r,0.32523309998214245,1337.8618874000385,None,1337.8618874000385,None,1338.231400199933,None,1338.231400199933,None,1338.231400199933,None,1338.231400199933,None,1338.231400199933,None,1338.231400199933,None,1338.5263279001229,None,1338.5263279001229,None,1340.3595905001275,None,1340.3595905001275,None,1340.3595905001275,None,1340.3595905001275,None,1340.3595905001275,None,1340.3595905001275,None,1340.3595905001275,None,1340.3595905001275,None,1340.3595905001275,None,51,57,37,40,51,67,1342.8772531999275,None,3.0,1.5711595001630485,1342.8772531999275,None,1342.8772531999275,None,1342.8772531999275,None,1342.8772531999275,None,None,None,1344.4636677000672,None,,,,,,,122,f,26,2022_Dec_11_1747,RL,2021.2.3,59.99026957402073,
1,33,0,33,0,,,,,,,,,,,,,,,None,None,None,None,None,1346.000848900061,None,1346.000848900061,None,1346.000848900061,None,1346.000848900061,None,i,0.3659131000749767,1346.000848900061,None,1346.000848900061,None,1346.4195652001072,None,1346.4195652001072,None,1346.4195652001072,None,1346.4195652001072,None,1346.4195652001072,None,1346.4195652001072,None,1346.7157459999435,None,1346.7157459999435,None,1348.04997120006,None,1348.04997120006,None,1348.04997120006,None,1348.04997120006,None,1348.04997120006,None,1348.04997120006,None,1348.04997120006,None,1348.04997120006,None,1348.04997120006,None,38,58,38,31,38,53,1350.572521599941,None,3.0,1.7842188000213355,1350.572521599941,None,1350.572521599941,None,1350.572521599941,None,1350.572521599941,None,None,None,1352.374348500045,None,,,,,,,122,f,26,2022_Dec_11_1747,RL,2021.2.3,59.99026957402073,
1,34,0,34,0,,,,,,,,,,,,,,,None,None,None,None,None,1353.9733200999908,None,1353.9733200999908,None,1353.9733200999908,None,1353.9733200999908,None,j,0.3033284000121057,1353.9733200999908,None,1353.9733200999908,None,1354.3280700999312,None,1354.3280700999312,None,1354.3280700999312,None,1354.3280700999312,None,1354.3280700999312,None,1354.3280700999312,None,1354.6043567000888,1356.0384436000604,1354.6043567000888,1356.0384436000604,1356.0929990001023,None,1356.0929990001023,None,1356.0929990001023,None,1356.0929990001023,None,1356.0929990001023,None,1356.0929990001023,None,1356.0929990001023,None,1356.0929990001023,None,1356.0929990001023,None,49,54,29,36,36,75,1358.618538199924,None,2.0,1.1055570000316948,1358.618538199924,None,1358.618538199924,None,1358.618538199924,None,1358.618538199924,None,None,None,1359.741192500107,None,,,,,,,122,f,26,2022_Dec_11_1747,RL,2021.2.3,59.99026957402073,
1,35,0,35,0,,,,,,,,,,,,,,,None,None,None,None,None,1361.5288092999253,None,1361.5288092999253,None,1361.5288092999253,None,1361.5288092999253,None,f,0.32796699996106327,1361.5288092999253,None,1361.5288092999253,None,1361.898414999945,None,1361.898414999945,None,1361.898414999945,None,1361.898414999945,None,1361.898414999945,None,1361.898414999945,None,1362.192776599899,None,1362.192776599899,None,1363.3264713000972,None,1363.3264713000972,None,1363.3264713000972,None,1363.3264713000972,None,1363.3264713000972,None,1363.3264713000972,None,1363.3264713000972,None,1363.3264713000972,None,1363.3264713000972,None,53,50,38,34,50,50,1365.842413400067,None,3.0,1.2538995000068098,1365.842413400067,None,1365.842413400067,None,1365.842413400067,None,1365.842413400067,None,None,None,1367.1122755000833,None,,,,,,,122,f,26,2022_Dec_11_1747,RL,2021.2.3,59.99026957402073,
1,36,0,36,0,,,,,,,,,,,,,,,None,None,None,None,None,1368.633029700024,None,1368.633029700024,None,1368.633029700024,None,1368.633029700024,None,r,0.273873999947682,1368.633029700024,None,1368.633029700024,None,1368.953447200125,None,1368.953447200125,None,1368.953447200125,None,1368.953447200125,None,1368.953447200125,None,1368.953447200125,None,1369.2478416999802,None,1369.2478416999802,None,1370.762654799968,None,1370.762654799968,None,1370.762654799968,None,1370.762654799968,None,1370.762654799968,None,1370.762654799968,None,1370.762654799968,None,1370.762654799968,None,1370.762654799968,None,54,52,40,34,54,57,1373.280686300015,None,4.0,2.488676100037992,1373.280686300015,None,1373.280686300015,None,1373.280686300015,None,1373.280686300015,None,None,None,1375.78540110006,None,,,,,,,122,f,26,2022_Dec_11_1747,RL,2021.2.3,59.99026957402073,
1,37,0,37,0,,,,,,,,,,,,,,,None,None,None,None,None,1377.4554276999552,None,1377.4554276999552,None,1377.4554276999552,None,1377.4554276999552,None,r,0.3215577001683414,1377.4554276999552,None,1377.4554276999552,None,1377.8263922999613,None,1377.8263922999613,None,1377.8263922999613,None,1377.8263922999613,None,1377.8263922999613,None,1377.8263922999613,None,1378.1039418999571,1379.0210204999894,1378.1039418999571,1379.0210204999894,1379.0698404998984,None,1379.0698404998984,None,1379.0698404998984,None,1379.0698404998984,None,1379.0698404998984,None,1379.0698404998984,None,1379.0698404998984,None,1379.0698404998984,None,1379.0698404998984,None,46,47,30,40,46,78,1381.586210400099,None,3.0,1.1694569000974298,1381.586210400099,None,1381.586210400099,None,1381.586210400099,None,1381.586210400099,None,None,None,1382.7746618001256,None,,,,,,,122,f,26,2022_Dec_11_1747,RL,2021.2.3,59.99026957402073,
1,38,0,38,0,,,,,,,,,,,,,,,None,None,None,None,None,1384.3111000999343,None,1384.3111000999343,None,1384.3111000999343,None,1384.3111000999343,None,f,0.3858767000492662,1384.3111000999343,None,1384.3111000999343,None,1384.746748100035,None,1384.746748100035,None,1384.746748100035,None,1384.746748100035,None,1384.746748100035,None,1384.746748100035,None,1385.0419455999509,None,1385.0419455999509,None,1385.9256653001066,None,1385.9256653001066,None,1385.9256653001066,None,1385.9256653001066,None,1385.9256653001066,None,1385.9256653001066,None,1385.9256653001066,None,1385.9256653001066,None,1385.9256653001066,None,51,52,44,37,52,74,1388.4424928000662,None,3.0,1.0887560001574457,1388.4424928000662,None,1388.4424928000662,None,1388.4424928000662,None,1388.4424928000662,None,None,None,1389.5546351000667,None,,,,,,,122,f,26,2022_Dec_11_1747,RL,2021.2.3,59.99026957402073,
1,39,0,39,0,,,,,,,,,,,,,,,None,None,None,None,None,1391.532022499945,None,1391.532022499945,None,1391.532022499945,None,1391.532022499945,None,r,0.44512049993500113,1391.532022499945,None,1391.532022499945,None,1392.0205504000187,None,1392.0205504000187,None,1392.0205504000187,None,1392.0205504000187,None,1392.0205504000187,None,1392.0205504000187,None,1392.3136132000946,1394.2149855999742,1392.3136132000946,1394.2149855999742,1394.2463762999978,None,1394.2463762999978,None,1394.2463762999978,None,1394.2463762999978,None,1394.2463762999978,None,1394.2463762999978,None,1394.2463762999978,None,1394.2463762999978,None,1394.2463762999978,None,39,52,40,42,39,83,1396.7629543000367,None,2.0,1.7897402001544833,1396.7629543000367,None,1396.7629543000367,None,1396.7629543000367,None,1396.7629543000367,None,None,None,1398.5732350999024,None,,,,,,,122,f,26,2022_Dec_11_1747,RL,2021.2.3,59.99026957402073,
1,40,0,40,0,,,,,,,,,,,,,,,None,None,None,None,None,1400.2551983001176,None,1400.2551983001176,None,1400.2551983001176,None,1400.2551983001176,None,r,0.3216488000471145,1400.2551983001176,None,1400.2551983001176,None,1400.6256693999749,None,1400.6256693999749,None,1400.6256693999749,None,1400.6256693999749,None,1400.6256693999749,None,1400.6256693999749,None,1400.919747200096,None,1400.919747200096,None,1402.615749000106,None,1402.615749000106,None,1402.615749000106,None,1402.615749000106,None,1402.615749000106,None,1402.615749000106,None,1402.615749000106,None,1402.615749000106,None,1402.615749000106,None,44,51,43,40,44,84,1405.1365696000867,None,2.0,1.28711670008488,1405.1365696000867,None,1405.1365696000867,None,1405.1365696000867,None,1405.1365696000867,None,None,None,1406.4396591999102,None,,,,,,,122,f,26,2022_Dec_11_1747,RL,2021.2.3,59.99026957402073,
1,41,0,41,0,,,,,,,,,,,,,,,None,None,None,None,None,1408.311072600074,None,1408.311072600074,None,1408.311072600074,None,1408.311072600074,None,i,0.41652489989064634,1408.311072600074,None,1408.311072600074,None,1408.7794492000248,None,1408.7794492000248,None,1408.7794492000248,None,1408.7794492000248,None,1408.7794492000248,None,1408.7794492000248,None,1409.0753327999264,None,1409.0753327999264,None,1410.3591241000686,None,1410.3591241000686,None,1410.3591241000686,None,1410.3591241000686,None,1410.3591241000686,None,1410.3591241000686,None,1410.3591241000686,None,1410.3591241000686,None,1410.3591241000686,None,47,46,33,30,33,81,1412.8790078000166,None,2.0,1.7192252001259476,1412.8790078000166,None,1412.8790078000166,None,1412.8790078000166,None,1412.8790078000166,None,None,None,1414.6153609999456,None,,,,,,,122,f,26,2022_Dec_11_1747,RL,2021.2.3,59.99026957402073,
1,42,0,42,0,,,,,,,,,,,,,,,None,None,None,None,None,1416.1326462000143,None,1416.1326462000143,None,1416.1326462000143,None,1416.1326462000143,None,j,0.5544519999530166,1416.1326462000143,None,1416.1326462000143,None,1416.7315267000813,None,1416.7315267000813,None,1416.7315267000813,None,1416.7315267000813,None,1416.7315267000813,None,1416.7315267000813,None,1417.03085380001,None,1417.03085380001,None,1417.9779431000352,None,1417.9779431000352,None,1417.9779431000352,None,1417.9779431000352,None,1417.9779431000352,None,1417.9779431000352,None,1417.9779431000352,None,1417.9779431000352,None,1417.9779431000352,None,48,51,33,42,42,68,1420.4991051999386,None,2.0,1.3330246999394149,1420.4991051999386,None,1420.4991051999386,None,1420.4991051999386,None,1420.4991051999386,None,None,None,1421.8514042000752,None,,,,,,,122,f,26,2022_Dec_11_1747,RL,2021.2.3,59.99026957402073,
1,43,0,43,0,,,,,,,,,,,,,,,None,None,None,None,None,1423.3708780000452,None,1423.3708780000452,None,1423.3708780000452,None,1423.3708780000452,None,f,0.33648320008069277,1423.3708780000452,None,1423.3708780000452,None,1423.757118599955,None,1423.757118599955,None,1423.757118599955,None,1423.757118599955,None,1423.757118599955,None,1423.757118599955,None,1424.0524031000677,None,1424.0524031000677,None,1425.4579459999222,None,1425.4579459999222,None,1425.4579459999222,None,1425.4579459999222,None,1425.4579459999222,None,1425.4579459999222,None,1425.4579459999222,None,1425.4579459999222,None,1425.4579459999222,None,58,46,45,46,46,64,1427.982762400061,None,2.0,0.9410441000945866,1427.982762400061,None,1427.982762400061,None,1427.982762400061,None,1427.982762400061,None,None,None,1428.941093100002,None,,,,,,,122,f,26,2022_Dec_11_1747,RL,2021.2.3,59.99026957402073,
1,44,0,44,0,,,,,,,,,,,,,,,None,None,None,None,None,1430.8596671998966,None,1430.8596671998966,None,1430.8596671998966,None,1430.8596671998966,None,r,0.2873027001041919,1430.8596671998966,None,1430.8596671998966,None,1431.196628200123,None,1431.196628200123,None,1431.196628200123,None,1431.196628200123,None,1431.196628200123,None,1431.196628200123,None,1431.4742594000418,1433.0418859999627,1431.4742594000418,1433.0418859999627,1433.0729859999847,None,1433.0729859999847,None,1433.0729859999847,None,1433.0729859999847,None,1433.0729859999847,None,1433.0729859999847,None,1433.0729859999847,None,1433.0729859999847,None,1433.0729859999847,None,56,50,32,38,56,67,1435.5891037001275,None,3.0,1.2727990001440048,1435.5891037001275,None,1435.5891037001275,None,1435.5891037001275,None,1435.5891037001275,None,None,None,1436.877711799927,None,,,,,,,122,f,26,2022_Dec_11_1747,RL,2021.2.3,59.99026957402073,
1,45,0,45,0,,,,,,,,,,,,,,,None,None,None,None,None,1438.8825636999682,None,1438.8825636999682,None,1438.8825636999682,None,1438.8825636999682,None,r,0.3246583000291139,1438.8825636999682,None,1438.8825636999682,None,1439.2512968000956,None,1439.2512968000956,None,1439.2512968000956,None,1439.2512968000956,None,1439.2512968000956,None,1439.2512968000956,None,1439.5464214999229,1440.4803506999742,1439.5464214999229,1440.4803506999742,1440.512364800088,None,1440.512364800088,None,1440.512364800088,None,1440.512364800088,None,1440.512364800088,None,1440.512364800088,None,1440.512364800088,None,1440.512364800088,None,1440.512364800088,None,56,45,36,42,56,77,1443.0312920999713,None,3.0,1.0532496001105756,1443.0312920999713,None,1443.0312920999713,None,1443.0312920999713,None,1443.0312920999713,None,None,None,1444.103292600019,None,,,,,,,122,f,26,2022_Dec_11_1747,RL,2021.2.3,59.99026957402073,
1,46,0,46,0,,,,,,,,,,,,,,,None,None,None,None,None,1445.6703425000887,None,1445.6703425000887,None,1445.6703425000887,None,1445.6703425000887,None,r,0.5468870000913739,1445.6703425000887,None,1445.6703425000887,None,1446.257522100117,None,1446.257522100117,None,1446.257522100117,None,1446.257522100117,None,1446.257522100117,None,1446.257522100117,None,1446.5513969000895,None,1446.5513969000895,None,1447.4160867999308,None,1447.4160867999308,None,1447.4160867999308,None,1447.4160867999308,None,1447.4160867999308,None,1447.4160867999308,None,1447.4160867999308,None,1447.4160867999308,None,1447.4160867999308,None,56,58,39,44,56,62,1449.9362059000414,None,3.0,0.9841483000200242,1449.9362059000414,None,1449.9362059000414,None,1449.9362059000414,None,1449.9362059000414,None,None,None,1450.940933499951,None,,,,,,,122,f,26,2022_Dec_11_1747,RL,2021.2.3,59.99026957402073,
1,47,0,47,0,,,,,,,,,,,,,,,None,None,None,None,None,1452.8080037999898,None,1452.8080037999898,None,1452.8080037999898,None,1452.8080037999898,None,r,0.3491228998173028,1452.8080037999898,None,1452.8080037999898,None,1453.1927441000007,None,1453.1927441000007,None,1453.1927441000007,None,1453.1927441000007,None,1453.1927441000007,None,1453.1927441000007,None,1453.489604700124,None,1453.489604700124,None,1454.9366695999634,None,1454.9366695999634,None,1454.9366695999634,None,1454.9366695999634,None,1454.9366695999634,None,1454.9366695999634,None,1454.9366695999634,None,1454.9366695999634,None,1454.9366695999634,None,51,59,31,51,51,65,1457.4537015999667,None,2.0,0.7751502001192421,1457.4537015999667,None,1457.4537015999667,None,1457.4537015999667,None,1457.4537015999667,None,None,None,1458.2474847000558,None,,,,,,,122,f,26,2022_Dec_11_1747,RL,2021.2.3,59.99026957402073,
1,48,0,48,0,,,,,,,,,,,,,,,None,None,None,None,None,1460.180764599936,None,1460.180764599936,None,1460.180764599936,None,1460.180764599936,None,r,0.31676870002411306,1460.180764599936,None,1460.180764599936,None,1460.552754299948,None,1460.552754299948,None,1460.552754299948,None,1460.552754299948,None,1460.552754299948,None,1460.552754299948,None,1460.8446917999536,None,1460.8446917999536,None,1461.948404399911,None,1461.948404399911,None,1461.948404399911,None,1461.948404399911,None,1461.948404399911,None,1461.948404399911,None,1461.948404399911,None,1461.948404399911,None,1461.948404399911,None,48,55,33,53,48,61,1464.4609882000368,None,2.0,0.9888961999677122,1464.4609882000368,None,1464.4609882000368,None,1464.4609882000368,None,1464.4609882000368,None,None,None,1465.4655563998967,None,,,,,,,122,f,26,2022_Dec_11_1747,RL,2021.2.3,59.99026957402073,
1,49,0,49,0,,,,,,,,,,,,,,,None,None,None,None,None,1467.0021168999374,None,1467.0021168999374,None,1467.0021168999374,None,1467.0021168999374,None,j,0.3955878000706434,1467.0021168999374,None,1467.0021168999374,None,1467.4410087000579,None,1467.4410087000579,None,1467.4410087000579,None,1467.4410087000579,None,1467.4410087000579,None,1467.4410087000579,None,1467.7326964999083,1468.649776400067,1467.7326964999083,1468.649776400067,1468.6830013999715,None,1468.6830013999715,None,1468.6830013999715,None,1468.6830013999715,None,1468.6830013999715,None,1468.6830013999715,None,1468.6830013999715,None,1468.6830013999715,None,1468.6830013999715,None,61,53,33,44,44,73,1471.2001352000516,None,2.0,1.7544437001924962,1471.2001352000516,None,1471.2001352000516,None,1471.2001352000516,None,1471.2001352000516,None,None,None,1472.969083199976,None,,,,,,,122,f,26,2022_Dec_11_1747,RL,2021.2.3,59.99026957402073,
1,50,0,50,0,,,,,,,,,,,,,,,None,None,None,None,None,1474.740094400011,None,1474.740094400011,None,1474.740094400011,None,1474.740094400011,None,i,0.31719639990478754,1474.740094400011,None,1474.740094400011,None,1475.1084736001212,None,1475.1084736001212,None,1475.1084736001212,None,1475.1084736001212,None,1475.1084736001212,None,1475.1084736001212,None,1475.405300399987,None,1475.405300399987,None,1477.135995700024,None,1477.135995700024,None,1477.135995700024,None,1477.135995700024,None,1477.135995700024,None,1477.135995700024,None,1477.135995700024,None,1477.135995700024,None,1477.135995700024,None,59,68,37,61,37,65,1479.6555459999945,None,2.0,0.9704227999318391,1479.6555459999945,None,1479.6555459999945,None,1479.6555459999945,None,1479.6555459999945,None,None,None,1480.6507552999537,None,,,,,,,122,f,26,2022_Dec_11_1747,RL,2021.2.3,59.99026957402073,
1,51,0,51,0,,,,,,,,,,,,,,,None,None,None,None,None,1482.3291722000577,None,1482.3291722000577,None,1482.3291722000577,None,1482.3291722000577,None,f,0.7394518998917192,1482.3291722000577,None,1482.3291722000577,None,1483.1157450000755,None,1483.1157450000755,None,1483.1157450000755,None,1483.1157450000755,None,1483.1157450000755,None,1483.1157450000755,None,1483.410179400118,None,1483.410179400118,None,1484.9484123999719,None,1484.9484123999719,None,1484.9484123999719,None,1484.9484123999719,None,1484.9484123999719,None,1484.9484123999719,None,1484.9484123999719,None,1484.9484123999719,None,1484.9484123999719,None,54,48,33,51,48,64,1487.4759287999477,None,2.0,0.8540470998268574,1487.4759287999477,None,1487.4759287999477,None,1487.4759287999477,None,1487.4759287999477,None,None,None,1488.3465199999046,None,,,,,,,122,f,26,2022_Dec_11_1747,RL,2021.2.3,59.99026957402073,
1,52,0,52,0,,,,,,,,,,,,,,,None,None,None,None,None,1490.3510640000459,None,1490.3510640000459,None,1490.3510640000459,None,1490.3510640000459,None,r,0.45752150006592274,1490.3510640000459,None,1490.3510640000459,None,1490.852401799988,None,1490.852401799988,None,1490.852401799988,None,1490.852401799988,None,1490.852401799988,None,1490.852401799988,None,1491.148974499898,1492.9334623999894,1491.148974499898,1492.9334623999894,1492.965227900073,None,1492.965227900073,None,1492.965227900073,None,1492.965227900073,None,1492.965227900073,None,1492.965227900073,None,1492.965227900073,None,1492.965227900073,None,1492.965227900073,None,56,42,36,47,56,65,1495.4824365999084,None,3.0,1.0225342998746783,1495.4824365999084,None,1495.4824365999084,None,1495.4824365999084,None,1495.4824365999084,None,None,None,1496.5270603999961,None,,,,,,,122,f,26,2022_Dec_11_1747,RL,2021.2.3,59.99026957402073,
1,53,0,53,0,,,,,,,,,,,,,,,None,None,None,None,None,1498.4901203999761,None,1498.4901203999761,None,1498.4901203999761,None,1498.4901203999761,None,r,0.4085057999473065,1498.4901203999761,None,1498.4901203999761,None,1498.9410657999106,None,1498.9410657999106,None,1498.9410657999106,None,1498.9410657999106,None,1498.9410657999106,None,1498.9410657999106,None,1499.237994800089,1500.2050753000658,1499.237994800089,1500.2050753000658,1500.2863382999785,None,1500.2863382999785,None,1500.2863382999785,None,1500.2863382999785,None,1500.2863382999785,None,1500.2863382999785,None,1500.2863382999785,None,1500.2863382999785,None,1500.2863382999785,None,40,50,36,51,40,70,1502.8134316001087,None,2.0,0.9451492000371218,1502.8134316001087,None,1502.8134316001087,None,1502.8134316001087,None,1502.8134316001087,None,None,None,1503.7764393000398,None,,,,,,,122,f,26,2022_Dec_11_1747,RL,2021.2.3,59.99026957402073,
1,54,0,54,0,,,,,,,,,,,,,,,None,None,None,None,None,1505.6623615999706,None,1505.6623615999706,None,1505.6623615999706,None,1505.6623615999706,None,r,0.46654969989322126,1505.6623615999706,None,1505.6623615999706,None,1506.1798183000647,None,1506.1798183000647,None,1506.1798183000647,None,1506.1798183000647,None,1506.1798183000647,None,1506.1798183000647,None,1506.4762552001048,1508.0939176999964,1506.4762552001048,1508.0939176999964,1508.1253833000083,None,1508.1253833000083,None,1508.1253833000083,None,1508.1253833000083,None,1508.1253833000083,None,1508.1253833000083,None,1508.1253833000083,None,1508.1253833000083,None,1508.1253833000083,None,51,36,38,41,51,65,1510.6426357999444,None,2.0,2.07232049992308,1510.6426357999444,None,1510.6426357999444,None,1510.6426357999444,None,1510.6426357999444,None,None,None,1512.7302304999903,None,,,,,,,122,f,26,2022_Dec_11_1747,RL,2021.2.3,59.99026957402073,
1,55,0,55,0,,,,,,,,,,,,,,,None,None,None,None,None,1514.652747800108,None,1514.652747800108,None,1514.652747800108,None,1514.652747800108,None,r,0.4358061000239104,1514.652747800108,None,1514.652747800108,None,1515.1376756001264,None,1515.1376756001264,None,1515.1376756001264,None,1515.1376756001264,None,1515.1376756001264,None,1515.1376756001264,None,1515.4323994999286,None,1515.4323994999286,None,1516.2782817999832,None,1516.2782817999832,None,1516.2782817999832,None,1516.2782817999832,None,1516.2782817999832,None,1516.2782817999832,None,1516.2782817999832,None,1516.2782817999832,None,1516.2782817999832,None,48,39,41,49,48,73,1518.796106300084,None,2.0,1.5249286000616848,1518.796106300084,None,1518.796106300084,None,1518.796106300084,None,1518.796106300084,None,None,None,1520.3383689001203,None,,,,,,,122,f,26,2022_Dec_11_1747,RL,2021.2.3,59.99026957402073,
1,56,0,56,0,,,,,,,,,,,,,,,None,None,None,None,None,1522.306684399955,None,1522.306684399955,None,1522.306684399955,None,1522.306684399955,None,r,0.8924507000483572,1522.306684399955,None,1522.306684399955,None,1523.2419700999744,None,1523.2419700999744,None,1523.2419700999744,None,1523.2419700999744,None,1523.2419700999744,None,1523.2419700999744,None,1523.5380645999685,None,1523.5380645999685,None,1525.3039381001145,None,1525.3039381001145,None,1525.3039381001145,None,1525.3039381001145,None,1525.3039381001145,None,1525.3039381001145,None,1525.3039381001145,None,1525.3039381001145,None,1525.3039381001145,None,57,42,40,64,57,74,1527.819980399916,None,3.0,1.1894559999927878,1527.819980399916,None,1527.819980399916,None,1527.819980399916,None,1527.819980399916,None,None,None,1529.029398499988,None,,,,,,,122,f,26,2022_Dec_11_1747,RL,2021.2.3,59.99026957402073,
1,57,0,57,0,,,,,,,,,,,,,,,None,None,None,None,None,1530.828709699912,None,1530.828709699912,None,1530.828709699912,None,1530.828709699912,None,r,0.540137100033462,1530.828709699912,None,1530.828709699912,None,1531.412544199964,None,1531.412544199964,None,1531.412544199964,None,1531.412544199964,None,1531.412544199964,None,1531.412544199964,None,1531.7104299999774,None,1531.7104299999774,None,1532.7919368001167,None,1532.7919368001167,None,1532.7919368001167,None,1532.7919368001167,None,1532.7919368001167,None,1532.7919368001167,None,1532.7919368001167,None,1532.7919368001167,None,1532.7919368001167,None,65,46,38,46,65,65,1535.3165462999605,None,3.0,0.6161758000962436,1535.3165462999605,None,1535.3165462999605,None,1535.3165462999605,None,1535.3165462999605,None,None,None,1535.9462127999868,None,,,,,,,122,f,26,2022_Dec_11_1747,RL,2021.2.3,59.99026957402073,
1,58,0,58,0,,,,,,,,,,,,,,,None,None,None,None,None,1537.9006896000355,None,1537.9006896000355,None,1537.9006896000355,None,1537.9006896000355,None,r,0.43802279978990555,1537.9006896000355,None,1537.9006896000355,None,1538.3876577999908,None,1538.3876577999908,None,1538.3876577999908,None,1538.3876577999908,None,1538.3876577999908,None,1538.3876577999908,None,1538.6819780999795,None,1538.6819780999795,None,1539.8334794000257,None,1539.8334794000257,None,1539.8334794000257,None,1539.8334794000257,None,1539.8334794000257,None,1539.8334794000257,None,1539.8334794000257,None,1539.8334794000257,None,1539.8334794000257,None,58,45,35,47,58,58,1542.3477970000822,None,3.0,1.3549864999949932,1542.3477970000822,None,1542.3477970000822,None,1542.3477970000822,None,1542.3477970000822,None,None,None,1543.7184949000366,None,,,,,,,122,f,26,2022_Dec_11_1747,RL,2021.2.3,59.99026957402073,
1,59,0,59,0,,,,,,,,,,,,,,,None,None,None,None,None,1545.7063569000456,None,1545.7063569000456,None,1545.7063569000456,None,1545.7063569000456,None,r,0.5625396000687033,1545.7063569000456,None,1545.7063569000456,None,1546.313330099918,None,1546.313330099918,None,1546.313330099918,None,1546.313330099918,None,1546.313330099918,None,1546.313330099918,None,1546.6039428000804,1548.588680600049,1546.6039428000804,1548.588680600049,1548.624388600001,None,1548.624388600001,None,1548.624388600001,None,1548.624388600001,None,1548.624388600001,None,1548.624388600001,None,1548.624388600001,None,1548.624388600001,None,1548.624388600001,None,58,49,41,42,58,58,1551.1394571999554,None,4.0,1.9514259002171457,1551.1394571999554,None,1551.1394571999554,None,1551.1394571999554,None,1551.1394571999554,None,None,None,1553.1078916001134,None,,,,,,,122,f,26,2022_Dec_11_1747,RL,2021.2.3,59.99026957402073,
1,60,0,60,0,,,,,,,,,,,,,,,None,None,None,None,None,1554.7961560999975,None,1554.7961560999975,None,1554.7961560999975,None,1554.7961560999975,None,r,0.34284089994616807,1554.7961560999975,None,1554.7961560999975,None,1555.1831819999497,None,1555.1831819999497,None,1555.1831819999497,None,1555.1831819999497,None,1555.1831819999497,None,1555.1831819999497,None,1555.476801800076,1556.7777168001048,1555.476801800076,1556.7777168001048,1556.8079105999786,None,1556.8079105999786,None,1556.8079105999786,None,1556.8079105999786,None,1556.8079105999786,None,1556.8079105999786,None,1556.8079105999786,None,1556.8079105999786,None,1556.8079105999786,None,61,48,30,45,61,67,1559.325589200016,None,4.0,1.2561413999646902,1559.325589200016,None,1559.325589200016,None,1559.325589200016,None,1559.325589200016,None,None,None,1560.5967097999528,None,,,,,,,122,f,26,2022_Dec_11_1747,RL,2021.2.3,59.99026957402073,
1,61,0,61,0,,,,,,,,,,,,,,,None,None,None,None,None,1562.5185958000366,None,1562.5185958000366,None,1562.5185958000366,None,1562.5185958000366,None,r,0.3806435000151396,1562.5185958000366,None,1562.5185958000366,None,1562.9394555001054,None,1562.9394555001054,None,1562.9394555001054,None,1562.9394555001054,None,1562.9394555001054,None,1562.9394555001054,None,1563.2321476999205,1565.2001370999496,1563.2321476999205,1565.2001370999496,1565.2322504001204,None,1565.2322504001204,None,1565.2322504001204,None,1565.2322504001204,None,1565.2322504001204,None,1565.2322504001204,None,1565.2322504001204,None,1565.2322504001204,None,1565.2322504001204,None,60,51,35,49,60,42,1567.7468006999698,None,4.0,1.35661490005441,1567.7468006999698,None,1567.7468006999698,None,1567.7468006999698,None,1567.7468006999698,None,None,None,1569.1190158999525,None,,,,,,,122,f,26,2022_Dec_11_1747,RL,2021.2.3,59.99026957402073,
1,62,0,62,0,,,,,,,,,,,,,,,None,None,None,None,None,1570.9575903001241,None,1570.9575903001241,None,1570.9575903001241,None,1570.9575903001241,None,r,0.4115967000834644,1570.9575903001241,None,1570.9575903001241,None,1571.4091322999448,None,1571.4091322999448,None,1571.4091322999448,None,1571.4091322999448,None,1571.4091322999448,None,1571.4091322999448,None,1571.7049849999603,None,1571.7049849999603,None,1573.4035332000349,None,1573.4035332000349,None,1573.4035332000349,None,1573.4035332000349,None,1573.4035332000349,None,1573.4035332000349,None,1573.4035332000349,None,1573.4035332000349,None,1573.4035332000349,None,50,35,28,45,50,60,1575.9218520000577,None,3.0,1.138560000108555,1575.9218520000577,None,1575.9218520000577,None,1575.9218520000577,None,1575.9218520000577,None,None,None,1577.0756922999863,None,,,,,,,122,f,26,2022_Dec_11_1747,RL,2021.2.3,59.99026957402073,
1,63,0,63,0,,,,,,,,,,,,,,,None,None,None,None,None,1578.7460322999395,None,1578.7460322999395,None,1578.7460322999395,None,1578.7460322999395,None,r,0.543161400128156,1578.7460322999395,None,1578.7460322999395,None,1579.3326089999173,None,1579.3326089999173,None,1579.3326089999173,None,1579.3326089999173,None,1579.3326089999173,None,1579.3326089999173,None,1579.6102140001021,1581.1945690999273,1579.6102140001021,1581.1945690999273,1581.225259100087,None,1581.225259100087,None,1581.225259100087,None,1581.225259100087,None,1581.225259100087,None,1581.225259100087,None,1581.225259100087,None,1581.225259100087,None,1581.225259100087,None,57,43,33,42,57,49,1583.7427664001007,None,4.0,2.040335200028494,1583.7427664001007,None,1583.7427664001007,None,1583.7427664001007,None,1583.7427664001007,None,None,None,1585.797992900014,None,,,,,,,122,f,26,2022_Dec_11_1747,RL,2021.2.3,59.99026957402073,
1,64,0,64,0,,,,,,,,,,,,,,,None,None,None,None,None,1587.3350458000787,None,1587.3350458000787,None,1587.3350458000787,None,1587.3350458000787,None,r,0.42444309988059103,1587.3350458000787,None,1587.3350458000787,None,1587.8039144000504,None,1587.8039144000504,None,1587.8039144000504,None,1587.8039144000504,None,1587.8039144000504,None,1587.8039144000504,None,1588.0994494000915,None,1588.0994494000915,None,1589.1293746000156,None,1589.1293746000156,None,1589.1293746000156,None,1589.1293746000156,None,1589.1293746000156,None,1589.1293746000156,None,1589.1293746000156,None,1589.1293746000156,None,1589.1293746000156,None,55,39,32,46,55,51,1591.6474190999288,None,4.0,0.7705739999655634,1591.6474190999288,None,1591.6474190999288,None,1591.6474190999288,None,1591.6474190999288,None,None,None,1592.4351917000022,None,,,,,,,122,f,26,2022_Dec_11_1747,RL,2021.2.3,59.99026957402073,
1,65,0,65,0,,,,,,,,,,,,,,,None,None,None,None,None,1593.9565220999066,None,1593.9565220999066,None,1593.9565220999066,None,1593.9565220999066,None,r,0.4526033999864012,1593.9565220999066,None,1593.9565220999066,None,1594.4589810001198,None,1594.4589810001198,None,1594.4589810001198,None,1594.4589810001198,None,1594.4589810001198,None,1594.4589810001198,None,1594.7540335000958,None,1594.7540335000958,None,1596.5366678000428,None,1596.5366678000428,None,1596.5366678000428,None,1596.5366678000428,None,1596.5366678000428,None,1596.5366678000428,None,1596.5366678000428,None,1596.5366678000428,None,1596.5366678000428,None,50,40,33,40,50,44,1599.0534824000206,None,4.0,1.6233886000700295,1599.0534824000206,None,1599.0534824000206,None,1599.0534824000206,None,1599.0534824000206,None,None,None,1600.6912314000074,None,,,,,,,122,f,26,2022_Dec_11_1747,RL,2021.2.3,59.99026957402073,
1,66,0,66,0,,,,,,,,,,,,,,,None,None,None,None,None,1602.4457445999142,None,1602.4457445999142,None,1602.4457445999142,None,1602.4457445999142,None,r,0.5534684997983277,1602.4457445999142,None,1602.4457445999142,None,1603.0538522000425,None,1603.0538522000425,None,1603.0538522000425,None,1603.0538522000425,None,1603.0538522000425,None,1603.0538522000425,None,1603.3434564000927,1605.1444351000246,1603.3434564000927,1605.1444351000246,1605.1774699001107,None,1605.1774699001107,None,1605.1774699001107,None,1605.1774699001107,None,1605.1774699001107,None,1605.1774699001107,None,1605.1774699001107,None,1605.1774699001107,None,1605.1774699001107,None,43,39,39,40,43,55,1607.6996019000653,None,3.0,2.2658333000727,1607.6996019000653,None,1607.6996019000653,None,1607.6996019000653,None,1607.6996019000653,None,None,None,1609.9814247000031,None,,,,,,,122,f,26,2022_Dec_11_1747,RL,2021.2.3,59.99026957402073,
1,67,0,67,0,,,,,,,,,,,,,,,None,None,None,None,None,1611.769888299983,None,1611.769888299983,None,1611.769888299983,None,1611.769888299983,None,r,0.5491447001695633,1611.769888299983,None,1611.769888299983,None,1612.3710030000657,None,1612.3710030000657,None,1612.3710030000657,None,1612.3710030000657,None,1612.3710030000657,None,1612.3710030000657,None,1612.6667158000637,1613.767116199946,1612.6667158000637,1613.767116199946,1613.7971540999133,None,1613.7971540999133,None,1613.7971540999133,None,1613.7971540999133,None,1613.7971540999133,None,1613.7971540999133,None,1613.7971540999133,None,1613.7971540999133,None,1613.7971540999133,None,42,40,33,50,42,56,1616.3191861999221,None,3.0,1.5857258001342416,1616.3191861999221,None,1616.3191861999221,None,1616.3191861999221,None,1616.3191861999221,None,None,None,1617.921203300124,None,,,,,,,122,f,26,2022_Dec_11_1747,RL,2021.2.3,59.99026957402073,
1,68,0,68,0,,,,,,,,,,,,,,,None,None,None,None,None,1619.758091500029,None,1619.758091500029,None,1619.758091500029,None,1619.758091500029,None,r,0.6813266000244766,1619.758091500029,None,1619.758091500029,None,1620.4949131999165,None,1620.4949131999165,None,1620.4949131999165,None,1620.4949131999165,None,1620.4949131999165,None,1620.4949131999165,None,1620.789145299932,None,1620.789145299932,None,1622.5367044000886,None,1622.5367044000886,None,1622.5367044000886,None,1622.5367044000886,None,1622.5367044000886,None,1622.5367044000886,None,1622.5367044000886,None,1622.5367044000886,None,1622.5367044000886,None,51,36,27,44,51,59,1625.0546834999695,None,3.0,1.3726633999031037,1625.0546834999695,None,1625.0546834999695,None,1625.0546834999695,None,1625.0546834999695,None,None,None,1626.442221699981,None,,,,,,,122,f,26,2022_Dec_11_1747,RL,2021.2.3,59.99026957402073,
1,69,0,69,0,,,,,,,,,,,,,,,None,None,None,None,None,1627.9963112000842,None,1627.9963112000842,None,1627.9963112000842,None,1627.9963112000842,None,r,0.8431508999783546,1627.9963112000842,None,1627.9963112000842,None,1628.8826683999505,None,1628.8826683999505,None,1628.8826683999505,None,1628.8826683999505,None,1628.8826683999505,None,1628.8826683999505,None,1629.1779646999203,1631.012470799964,1629.1779646999203,1631.012470799964,1631.044375800062,None,1631.044375800062,None,1631.044375800062,None,1631.044375800062,None,1631.044375800062,None,1631.044375800062,None,1631.044375800062,None,1631.044375800062,None,1631.044375800062,None,55,44,33,51,55,77,1633.5621678000316,None,3.0,1.2532384998630732,1633.5621678000316,None,1633.5621678000316,None,1633.5621678000316,None,1633.5621678000316,None,None,None,1634.8375228000805,None,,,,,,,122,f,26,2022_Dec_11_1747,RL,2021.2.3,59.99026957402073,
1,70,0,70,0,,,,,,,,,,,,,,,None,None,None,None,None,1636.8022483999375,None,1636.8022483999375,None,1636.8022483999375,None,1636.8022483999375,None,r,0.9370036001782864,1636.8022483999375,None,1636.8022483999375,None,1637.7895601000637,None,1637.7895601000637,None,1637.7895601000637,None,1637.7895601000637,None,1637.7895601000637,None,1637.7895601000637,None,1638.084263900062,1639.1013039001264,1638.084263900062,1639.1013039001264,1639.131494600093,None,1639.131494600093,None,1639.131494600093,None,1639.131494600093,None,1639.131494600093,None,1639.131494600093,None,1639.131494600093,None,1639.131494600093,None,1639.131494600093,None,48,38,30,59,48,68,1641.6485222999472,None,3.0,2.1056908001191914,1641.6485222999472,None,1641.6485222999472,None,1641.6485222999472,None,1641.6485222999472,None,None,None,1643.770983699942,None,,,,,,,122,f,26,2022_Dec_11_1747,RL,2021.2.3,59.99026957402073,
1,71,0,71,0,,,,,,,,,,,,,,,None,None,None,None,None,1645.7428208000492,None,1645.7428208000492,None,1645.7428208000492,None,1645.7428208000492,None,r,0.44803790003061295,1645.7428208000492,None,1645.7428208000492,None,1646.227281200001,None,1646.227281200001,None,1646.227281200001,None,1646.227281200001,None,1646.227281200001,None,1646.227281200001,None,1646.5233082999475,None,1646.5233082999475,None,1647.6894900000188,None,1647.6894900000188,None,1647.6894900000188,None,1647.6894900000188,None,1647.6894900000188,None,1647.6894900000188,None,1647.6894900000188,None,1647.6894900000188,None,1647.6894900000188,None,52,31,26,67,52,54,1650.2037645999808,None,3.0,1.3419554000720382,1650.2037645999808,None,1650.2037645999808,None,1650.2037645999808,None,1650.2037645999808,None,None,None,1651.5602188999765,None,,,,,,,122,f,26,2022_Dec_11_1747,RL,2021.2.3,59.99026957402073,
1,72,0,72,0,,,,,,,,,,,,,,,None,None,None,None,None,1653.5305685000494,None,1653.5305685000494,None,1653.5305685000494,None,1653.5305685000494,None,f,0.5600648999679834,1653.5305685000494,None,1653.5305685000494,None,1654.1358545999974,None,1654.1358545999974,None,1654.1358545999974,None,1654.1358545999974,None,1654.1358545999974,None,1654.1358545999974,None,1654.4119764000643,1656.096464900067,1654.4119764000643,1656.096464900067,1656.1457217000425,None,1656.1457217000425,None,1656.1457217000425,None,1656.1457217000425,None,1656.1457217000425,None,1656.1457217000425,None,1656.1457217000425,None,1656.1457217000425,None,1656.1457217000425,None,51,37,33,60,37,77,1658.660599200055,None,3.0,1.6233526999130845,1658.660599200055,None,1658.660599200055,None,1658.660599200055,None,1658.660599200055,None,None,None,1660.3039514999837,None,,,,,,,122,f,26,2022_Dec_11_1747,RL,2021.2.3,59.99026957402073,
1,73,0,73,0,,,,,,,,,,,,,,,None,None,None,None,None,1662.0186407999136,None,1662.0186407999136,None,1662.0186407999136,None,1662.0186407999136,None,r,0.5919372998178005,1662.0186407999136,None,1662.0186407999136,None,1662.6579086000565,None,1662.6579086000565,None,1662.6579086000565,None,1662.6579086000565,None,1662.6579086000565,None,1662.6579086000565,None,1662.9513928999659,1664.0352803999558,1662.9513928999659,1664.0352803999558,1664.068351099966,None,1664.068351099966,None,1664.068351099966,None,1664.068351099966,None,1664.068351099966,None,1664.068351099966,None,1664.068351099966,None,1664.068351099966,None,1664.068351099966,None,53,37,37,54,53,69,1666.584605500102,None,2.0,2.35433919983916,1666.584605500102,None,1666.584605500102,None,1666.584605500102,None,1666.584605500102,None,None,None,1668.9550137000624,None,,,,,,,122,f,26,2022_Dec_11_1747,RL,2021.2.3,59.99026957402073,
1,74,0,74,0,,,,,,,,,,,,,,,None,None,None,None,None,1670.5763642000966,None,1670.5763642000966,None,1670.5763642000966,None,1670.5763642000966,None,r,0.7244707001373172,1670.5763642000966,None,1670.5763642000966,None,1671.3467665999196,None,1671.3467665999196,None,1671.3467665999196,None,1671.3467665999196,None,1671.3467665999196,None,1671.3467665999196,None,1671.6407423999626,1673.2917168000713,1671.6407423999626,1673.2917168000713,1673.3232784001157,None,1673.3232784001157,None,1673.3232784001157,None,1673.3232784001157,None,1673.3232784001157,None,1673.3232784001157,None,1673.3232784001157,None,1673.3232784001157,None,1673.3232784001157,None,59,50,26,56,59,69,1675.838445100002,None,3.0,3.989466300001368,1675.838445100002,None,1675.838445100002,None,1675.838445100002,None,1675.838445100002,None,None,None,1679.845884700073,None,,,,,,,122,f,26,2022_Dec_11_1747,RL,2021.2.3,59.99026957402073,
1,75,0,75,0,,,,,,,,,,,,,,,1681.7975999999326,None,q,1681.7975999999326,None,1744.0937228000257,None,1744.0937228000257,None,1744.0937228000257,None,1744.0937228000257,None,r,1.0063831999432296,1744.0937228000257,None,1744.0937228000257,None,1745.1466467999853,None,1745.1466467999853,None,1745.1466467999853,None,1745.1466467999853,None,1745.1466467999853,None,1745.1466467999853,None,1745.441860999912,None,1745.441860999912,None,1747.2729859000538,None,1747.2729859000538,None,1747.2729859000538,None,1747.2729859000538,None,1747.2729859000538,None,1747.2729859000538,None,1747.2729859000538,None,1747.2729859000538,None,1747.2729859000538,None,46,43,28,63,46,66,1749.791282699909,None,3.0,1.0368474000133574,1749.791282699909,None,1749.791282699909,None,1749.791282699909,None,1749.791282699909,None,None,None,1750.8518395000137,None,62.2657210000325,,,,,,122,f,26,2022_Dec_11_1747,RL,2021.2.3,59.99026957402073,
1,76,0,76,0,,,,,,,,,,,,,,,None,None,None,None,None,1752.4832480999175,None,1752.4832480999175,None,1752.4832480999175,None,1752.4832480999175,None,i,0.4071984998881817,1752.4832480999175,None,1752.4832480999175,None,1752.938140100101,None,1752.938140100101,None,1752.938140100101,None,1752.938140100101,None,1752.938140100101,None,1752.938140100101,None,1753.2305912999436,1754.3312643999234,1753.2305912999436,1754.3312643999234,1754.362239799928,None,1754.362239799928,None,1754.362239799928,None,1754.362239799928,None,1754.362239799928,None,1754.362239799928,None,1754.362239799928,None,1754.362239799928,None,1754.362239799928,None,57,40,37,53,37,48,1756.8823422000278,None,3.0,0.570120699936524,1756.8823422000278,None,1756.8823422000278,None,1756.8823422000278,None,1756.8823422000278,None,None,None,1757.466395800002,None,,,,,,,122,f,26,2022_Dec_11_1747,RL,2021.2.3,59.99026957402073,
1,77,0,77,0,,,,,,,,,,,,,,,None,None,None,None,None,1759.3544568999205,None,1759.3544568999205,None,1759.3544568999205,None,1759.3544568999205,None,j,0.32575160008855164,1759.3544568999205,None,1759.3544568999205,None,1759.7233378000092,None,1759.7233378000092,None,1759.7233378000092,None,1759.7233378000092,None,1759.7233378000092,None,1759.7233378000092,None,1760.018700500019,None,1760.018700500019,None,1761.1825663000345,None,1761.1825663000345,None,1761.1825663000345,None,1761.1825663000345,None,1761.1825663000345,None,1761.1825663000345,None,1761.1825663000345,None,1761.1825663000345,None,1761.1825663000345,None,51,42,35,62,62,54,1763.7026909000706,None,4.0,1.168503399938345,1763.7026909000706,None,1763.7026909000706,None,1763.7026909000706,None,1763.7026909000706,None,None,None,1764.888164400123,None,,,,,,,122,f,26,2022_Dec_11_1747,RL,2021.2.3,59.99026957402073,
1,78,0,78,0,,,,,,,,,,,,,,,None,None,None,None,None,1766.5429223000538,None,1766.5429223000538,None,1766.5429223000538,None,1766.5429223000538,None,j,0.35759279993362725,1766.5429223000538,None,1766.5429223000538,None,1766.946586499922,None,1766.946586499922,None,1766.946586499922,None,1766.946586499922,None,1766.946586499922,None,1766.946586499922,None,1767.2403027000837,1769.0247794000898,1767.2403027000837,1769.0247794000898,1769.0545401999261,None,1769.0545401999261,None,1769.0545401999261,None,1769.0545401999261,None,1769.0545401999261,None,1769.0545401999261,None,1769.0545401999261,None,1769.0545401999261,None,1769.0545401999261,None,55,39,30,54,54,69,1771.5730487999972,None,3.0,1.7718744999729097,1771.5730487999972,None,1771.5730487999972,None,1771.5730487999972,None,1771.5730487999972,None,None,None,1773.361510900082,None,,,,,,,122,f,26,2022_Dec_11_1747,RL,2021.2.3,59.99026957402073,
1,79,0,79,0,,,,,,,,,,,,,,,None,None,None,None,None,1775.198620900046,None,1775.198620900046,None,1775.198620900046,None,1775.198620900046,None,f,0.47143759997561574,1775.198620900046,None,1775.198620900046,None,1775.7193565999623,None,1775.7193565999623,None,1775.7193565999623,None,1775.7193565999623,None,1775.7193565999623,None,1775.7193565999623,None,1776.0131608000956,None,1776.0131608000956,None,1777.4143139000516,None,1777.4143139000516,None,1777.4143139000516,None,1777.4143139000516,None,1777.4143139000516,None,1777.4143139000516,None,1777.4143139000516,None,1777.4143139000516,None,1777.4143139000516,None,59,51,27,44,51,63,1779.9325099000707,None,3.0,1.15281379991211,1779.9325099000707,None,1779.9325099000707,None,1779.9325099000707,None,1779.9325099000707,None,None,None,1781.0997285000049,None,,,,,,,122,f,26,2022_Dec_11_1747,RL,2021.2.3,59.99026957402073,
1,80,0,80,0,,,,,,,,,,,,,,,None,None,None,None,None,1782.8877113999333,None,1782.8877113999333,None,1782.8877113999333,None,1782.8877113999333,None,j,0.3227548999711871,1782.8877113999333,None,1782.8877113999333,None,1783.2589702999685,None,1783.2589702999685,None,1783.2589702999685,None,1783.2589702999685,None,1783.2589702999685,None,1783.2589702999685,None,1783.5352157999296,1785.4196504000574,1783.5352157999296,1785.4196504000574,1785.4506192000117,None,1785.4506192000117,None,1785.4506192000117,None,1785.4506192000117,None,1785.4506192000117,None,1785.4506192000117,None,1785.4506192000117,None,1785.4506192000117,None,1785.4506192000117,None,56,53,26,59,59,65,1787.9663486001082,None,4.0,0.6584658001083881,1787.9663486001082,None,1787.9663486001082,None,1787.9663486001082,None,1787.9663486001082,None,None,None,1788.6384286999237,None,,,,,,,122,f,26,2022_Dec_11_1747,RL,2021.2.3,59.99026957402073,
1,81,0,81,0,,,,,,,,,,,,,,,None,None,None,None,None,1790.2256014999002,None,1790.2256014999002,None,1790.2256014999002,None,1790.2256014999002,None,i,0.4046795000322163,1790.2256014999002,None,1790.2256014999002,None,1790.6791185000911,None,1790.6791185000911,None,1790.6791185000911,None,1790.6791185000911,None,1790.6791185000911,None,1790.6791185000911,None,1790.9737239000387,1791.8239213000052,1790.9737239000387,1791.8239213000052,1791.8557406000327,None,1791.8557406000327,None,1791.8557406000327,None,1791.8557406000327,None,1791.8557406000327,None,1791.8557406000327,None,1791.8557406000327,None,1791.8557406000327,None,1791.8557406000327,None,48,37,23,50,23,62,1794.372606500052,None,3.0,2.154393099946901,1794.372606500052,None,1794.372606500052,None,1794.372606500052,None,1794.372606500052,None,None,None,1796.5433479000349,None,,,,,,,122,f,26,2022_Dec_11_1747,RL,2021.2.3,59.99026957402073,
1,82,0,82,0,,,,,,,,,,,,,,,None,None,None,None,None,1798.3650696999393,None,1798.3650696999393,None,1798.3650696999393,None,1798.3650696999393,None,r,0.36565260007046163,1798.3650696999393,None,1798.3650696999393,None,1798.7824570999946,None,1798.7824570999946,None,1798.7824570999946,None,1798.7824570999946,None,1798.7824570999946,None,1798.7824570999946,None,1799.0790134000126,None,1799.0790134000126,None,1800.325743400026,None,1800.325743400026,None,1800.325743400026,None,1800.325743400026,None,1800.325743400026,None,1800.325743400026,None,1800.325743400026,None,1800.325743400026,None,1800.325743400026,None,51,37,34,49,51,58,1802.8438653999474,None,3.0,1.0379264000803232,1802.8438653999474,None,1802.8438653999474,None,1802.8438653999474,None,1802.8438653999474,None,None,None,1803.8985391000751,None,,,,,,,122,f,26,2022_Dec_11_1747,RL,2021.2.3,59.99026957402073,
1,83,0,83,0,,,,,,,,,,,,,,,None,None,None,None,None,1805.58602529997,None,1805.58602529997,None,1805.58602529997,None,1805.58602529997,None,r,0.7644234001636505,1805.58602529997,None,1805.58602529997,None,1806.3907554000616,None,1806.3907554000616,None,1806.3907554000616,None,1806.3907554000616,None,1806.3907554000616,None,1806.3907554000616,None,1806.6846443999093,1808.2854073999915,1806.6846443999093,1808.2854073999915,1808.3188962000422,None,1808.3188962000422,None,1808.3188962000422,None,1808.3188962000422,None,1808.3188962000422,None,1808.3188962000422,None,1808.3188962000422,None,1808.3188962000422,None,1808.3188962000422,None,56,46,32,51,56,59,1810.841922099935,None,3.0,0.9667343001347035,1810.841922099935,None,1810.841922099935,None,1810.841922099935,None,1810.841922099935,None,None,None,1811.821093800012,None,,,,,,,122,f,26,2022_Dec_11_1747,RL,2021.2.3,59.99026957402073,
1,84,0,84,0,,,,,,,,,,,,,,,None,None,None,None,None,1813.3917032000609,None,1813.3917032000609,None,1813.3917032000609,None,1813.3917032000609,None,f,0.2888358000200242,1813.3917032000609,None,1813.3917032000609,None,1813.7302023000084,None,1813.7302023000084,None,1813.7302023000084,None,1813.7302023000084,None,1813.7302023000084,None,1813.7302023000084,None,1814.0231403999496,1815.9905348001048,1814.0231403999496,1815.9905348001048,1816.0231004001107,None,1816.0231004001107,None,1816.0231004001107,None,1816.0231004001107,None,1816.0231004001107,None,1816.0231004001107,None,1816.0231004001107,None,1816.0231004001107,None,1816.0231004001107,None,38,37,35,52,37,59,1818.5390800000168,None,2.0,1.1055789000820369,1818.5390800000168,None,1818.5390800000168,None,1818.5390800000168,None,1818.5390800000168,None,None,None,1819.6597909999546,None,,,,,,,122,f,26,2022_Dec_11_1747,RL,2021.2.3,59.99026957402073,
1,85,0,85,0,,,,,,,,,,,,,,,None,None,None,None,None,1821.4142120000906,None,1821.4142120000906,None,1821.4142120000906,None,1821.4142120000906,None,r,0.2963326000608504,1821.4142120000906,None,1821.4142120000906,None,1821.7556119000074,None,1821.7556119000074,None,1821.7556119000074,None,1821.7556119000074,None,1821.7556119000074,None,1821.7556119000074,None,1822.0452378999908,1824.0462078999262,1822.0452378999908,1824.0462078999262,1824.0768774000462,None,1824.0768774000462,None,1824.0768774000462,None,1824.0768774000462,None,1824.0768774000462,None,1824.0768774000462,None,1824.0768774000462,None,1824.0768774000462,None,1824.0768774000462,None,39,45,31,63,39,58,1826.6003012000583,None,3.0,2.550073100021109,1826.6003012000583,None,1826.6003012000583,None,1826.6003012000583,None,1826.6003012000583,None,None,None,1829.1675040998962,None,,,,,,,122,f,26,2022_Dec_11_1747,RL,2021.2.3,59.99026957402073,
1,86,0,86,0,,,,,,,,,,,,,,,None,None,None,None,None,1830.8707105999347,None,1830.8707105999347,None,1830.8707105999347,None,1830.8707105999347,None,r,0.6698537000920624,1830.8707105999347,None,1830.8707105999347,None,1831.5915634999983,None,1831.5915634999983,None,1831.5915634999983,None,1831.5915634999983,None,1831.5915634999983,None,1831.5915634999983,None,1831.8851074001286,None,1831.8851074001286,None,1833.7240822999738,None,1833.7240822999738,None,1833.7240822999738,None,1833.7240822999738,None,1833.7240822999738,None,1833.7240822999738,None,1833.7240822999738,None,1833.7240822999738,None,1833.7240822999738,None,45,40,36,63,45,49,1836.2496420999523,None,3.0,1.8066014999058098,1836.2496420999523,None,1836.2496420999523,None,1836.2496420999523,None,1836.2496420999523,None,None,None,1838.0725700000767,None,,,,,,,122,f,26,2022_Dec_11_1747,RL,2021.2.3,59.99026957402073,
1,87,0,87,0,,,,,,,,,,,,,,,None,None,None,None,None,1839.8596888000611,None,1839.8596888000611,None,1839.8596888000611,None,1839.8596888000611,None,r,0.6410095999017358,1839.8596888000611,None,1839.8596888000611,None,1840.5466376999393,None,1840.5466376999393,None,1840.5466376999393,None,1840.5466376999393,None,1840.5466376999393,None,1840.5466376999393,None,1840.841503100004,1842.7924347000662,1840.841503100004,1842.7924347000662,1842.8255648999475,None,1842.8255648999475,None,1842.8255648999475,None,1842.8255648999475,None,1842.8255648999475,None,1842.8255648999475,None,1842.8255648999475,None,1842.8255648999475,None,1842.8255648999475,None,43,42,36,65,43,45,1845.3404659999069,None,3.0,1.4534638000186533,1845.3404659999069,None,1845.3404659999069,None,1845.3404659999069,None,1845.3404659999069,None,None,None,1846.8115105999168,None,,,,,,,122,f,26,2022_Dec_11_1747,RL,2021.2.3,59.99026957402073,
1,88,0,88,0,,,,,,,,,,,,,,,None,None,None,None,None,1848.7166611999273,None,1848.7166611999273,None,1848.7166611999273,None,1848.7166611999273,None,r,0.5247816001065075,1848.7166611999273,None,1848.7166611999273,None,1849.2833364000544,None,1849.2833364000544,None,1849.2833364000544,None,1849.2833364000544,None,1849.2833364000544,None,1849.2833364000544,None,1849.5807155999355,1850.431158799911,1849.5807155999355,1850.431158799911,1850.4627078999765,None,1850.4627078999765,None,1850.4627078999765,None,1850.4627078999765,None,1850.4627078999765,None,1850.4627078999765,None,1850.4627078999765,None,1850.4627078999765,None,1850.4627078999765,None,39,41,38,59,39,48,1852.9805274999235,None,2.0,2.1541597999166697,1852.9805274999235,None,1852.9805274999235,None,1852.9805274999235,None,1852.9805274999235,None,None,None,1855.1577216000296,None,,,,,,,122,f,26,2022_Dec_11_1747,RL,2021.2.3,59.99026957402073,
1,89,0,89,0,,,,,,,,,,,,,,,None,None,None,None,None,1856.7217337000184,None,1856.7217337000184,None,1856.7217337000184,None,1856.7217337000184,None,f,0.4289194999728352,1856.7217337000184,None,1856.7217337000184,None,1857.1913990001194,None,1857.1913990001194,None,1857.1913990001194,None,1857.1913990001194,None,1857.1913990001194,None,1857.1913990001194,None,1857.4862593999133,1859.0538006001152,1857.4862593999133,1859.0538006001152,1859.0865198001266,None,1859.0865198001266,None,1859.0865198001266,None,1859.0865198001266,None,1859.0865198001266,None,1859.0865198001266,None,1859.0865198001266,None,1859.0865198001266,None,1859.0865198001266,None,28,34,42,65,34,60,1861.605886900099,None,2.0,1.4509219001047313,1861.605886900099,None,1861.605886900099,None,1861.605886900099,None,1861.605886900099,None,None,None,1863.0728955001105,None,,,,,,,122,f,26,2022_Dec_11_1747,RL,2021.2.3,59.99026957402073,
1,90,0,90,0,,,,,,,,,,,,,,,None,None,None,None,None,1865.044380400097,None,1865.044380400097,None,1865.044380400097,None,1865.044380400097,None,r,0.4566089999862015,1865.044380400097,None,1865.044380400097,None,1865.5470372999553,None,1865.5470372999553,None,1865.5470372999553,None,1865.5470372999553,None,1865.5470372999553,None,1865.5470372999553,None,1865.8419731999747,None,1865.8419731999747,None,1867.0083886000793,None,1867.0083886000793,None,1867.0083886000793,None,1867.0083886000793,None,1867.0083886000793,None,1867.0083886000793,None,1867.0083886000793,None,1867.0083886000793,None,1867.0083886000793,None,43,40,37,68,43,44,1869.5246218000539,None,3.0,1.1379731001798064,1869.5246218000539,None,1869.5246218000539,None,1869.5246218000539,None,1869.5246218000539,None,None,None,1870.6814695000648,None,,,,,,,122,f,26,2022_Dec_11_1747,RL,2021.2.3,59.99026957402073,
1,91,0,91,0,,,,,,,,,,,,,,,None,None,None,None,None,1872.5161961000413,None,1872.5161961000413,None,1872.5161961000413,None,1872.5161961000413,None,r,0.5346578999888152,1872.5161961000413,None,1872.5161961000413,None,1873.1027943000663,None,1873.1027943000663,None,1873.1027943000663,None,1873.1027943000663,None,1873.1027943000663,None,1873.1027943000663,None,1873.3973381000105,None,1873.3973381000105,None,1874.6465016000438,None,1874.6465016000438,None,1874.6465016000438,None,1874.6465016000438,None,1874.6465016000438,None,1874.6465016000438,None,1874.6465016000438,None,1874.6465016000438,None,1874.6465016000438,None,39,34,43,64,39,54,1877.1674742000178,None,2.0,1.1525814000051469,1877.1674742000178,None,1877.1674742000178,None,1877.1674742000178,None,1877.1674742000178,None,None,None,1878.3336607001256,None,,,,,,,122,f,26,2022_Dec_11_1747,RL,2021.2.3,59.99026957402073,
1,92,0,92,0,,,,,,,,,,,,,,,None,None,None,None,None,1880.005100700073,None,1880.005100700073,None,1880.005100700073,None,1880.005100700073,None,r,0.43556330003775656,1880.005100700073,None,1880.005100700073,None,1880.488776500104,None,1880.488776500104,None,1880.488776500104,None,1880.488776500104,None,1880.488776500104,None,1880.488776500104,None,1880.7859626000281,None,1880.7859626000281,None,1882.673925400013,None,1882.673925400013,None,1882.673925400013,None,1882.673925400013,None,1882.673925400013,None,1882.673925400013,None,1882.673925400013,None,1882.673925400013,None,1882.673925400013,None,33,32,46,69,33,53,1885.1851192999166,None,2.0,0.9226478000637144,1885.1851192999166,None,1885.1851192999166,None,1885.1851192999166,None,1885.1851192999166,None,None,None,1886.1222395999357,None,,,,,,,122,f,26,2022_Dec_11_1747,RL,2021.2.3,59.99026957402073,
1,93,0,93,0,,,,,,,,,,,,,,,None,None,None,None,None,1888.0936155000236,None,1888.0936155000236,None,1888.0936155000236,None,1888.0936155000236,None,r,0.5370735998731107,1888.0936155000236,None,1888.0936155000236,None,1888.6809481000528,None,1888.6809481000528,None,1888.6809481000528,None,1888.6809481000528,None,1888.6809481000528,None,1888.6809481000528,None,1888.9580791001208,1890.6759031000547,1888.9580791001208,1890.6759031000547,1890.707189900102,None,1890.707189900102,None,1890.707189900102,None,1890.707189900102,None,1890.707189900102,None,1890.707189900102,None,1890.707189900102,None,1890.707189900102,None,1890.707189900102,None,30,31,49,66,30,52,1893.2227737000212,None,2.0,1.2067670000251383,1893.2227737000212,None,1893.2227737000212,None,1893.2227737000212,None,1893.2227737000212,None,None,None,1894.4537289000582,None,,,,,,,122,f,26,2022_Dec_11_1747,RL,2021.2.3,59.99026957402073,
1,94,0,94,0,,,,,,,,,,,,,,,None,None,None,None,None,1896.132030100096,None,1896.132030100096,None,1896.132030100096,None,1896.132030100096,None,r,1.0899304000195116,1896.132030100096,None,1896.132030100096,None,1897.270013500005,None,1897.270013500005,None,1897.270013500005,None,1897.270013500005,None,1897.270013500005,None,1897.270013500005,None,1897.5640338000376,None,1897.5640338000376,None,1899.0940578000154,None,1899.0940578000154,None,1899.0940578000154,None,1899.0940578000154,None,1899.0940578000154,None,1899.0940578000154,None,1899.0940578000154,None,1899.0940578000154,None,1899.0940578000154,None,24,40,42,62,24,39,1901.611713200109,None,2.0,0.8721288999076933,1901.611713200109,None,1901.611713200109,None,1901.611713200109,None,1901.611713200109,None,None,None,1902.500208399957,None,,,,,,,122,f,26,2022_Dec_11_1747,RL,2021.2.3,59.99026957402073,
1,95,0,95,0,,,,,,,,,,,,,,,None,None,None,None,None,1904.1211691999342,None,1904.1211691999342,None,1904.1211691999342,None,1904.1211691999342,None,j,0.6306414999999106,1904.1211691999342,None,1904.1211691999342,None,1904.7901888999622,None,1904.7901888999622,None,1904.7901888999622,None,1904.7901888999622,None,1904.7901888999622,None,1904.7901888999622,None,1905.086087899981,1906.8036233000457,1905.086087899981,1906.8036233000457,1906.8316234000959,None,1906.8316234000959,None,1906.8316234000959,None,1906.8316234000959,None,1906.8316234000959,None,1906.8316234000959,None,1906.8316234000959,None,1906.8316234000959,None,1906.8316234000959,None,20,38,37,66,66,68,1909.3510978999548,None,3.0,1.205147400032729,1909.3510978999548,None,1909.3510978999548,None,1909.3510978999548,None,1909.3510978999548,None,None,None,1910.5723160000052,None,,,,,,,122,f,26,2022_Dec_11_1747,RL,2021.2.3,59.99026957402073,
1,96,0,96,0,,,,,,,,,,,,,,,None,None,None,None,None,1912.3769320000429,None,1912.3769320000429,None,1912.3769320000429,None,1912.3769320000429,None,i,0.4049112999346107,1912.3769320000429,None,1912.3769320000429,None,1912.8287098000292,None,1912.8287098000292,None,1912.8287098000292,None,1912.8287098000292,None,1912.8287098000292,None,1912.8287098000292,None,1913.1249593000393,1914.79235480004,1913.1249593000393,1914.79235480004,1914.825086900033,None,1914.825086900033,None,1914.825086900033,None,1914.825086900033,None,1914.825086900033,None,1914.825086900033,None,1914.825086900033,None,1914.825086900033,None,1914.825086900033,None,24,31,34,74,34,62,1917.3430147001054,None,2.0,1.4032159999478608,1917.3430147001054,None,1917.3430147001054,None,1917.3430147001054,None,1917.3430147001054,None,None,None,1918.7618354998995,None,,,,,,,122,f,26,2022_Dec_11_1747,RL,2021.2.3,59.99026957402073,
1,97,0,97,0,,,,,,,,,,,,,,,None,None,None,None,None,1920.7162055000663,None,1920.7162055000663,None,1920.7162055000663,None,1920.7162055000663,None,f,0.3060500000137836,1920.7162055000663,None,1920.7162055000663,None,1921.0696298000403,None,1921.0696298000403,None,1921.0696298000403,None,1921.0696298000403,None,1921.0696298000403,None,1921.0696298000403,None,1921.3638118000235,None,1921.3638118000235,None,1922.7613601000048,None,1922.7613601000048,None,1922.7613601000048,None,1922.7613601000048,None,1922.7613601000048,None,1922.7613601000048,None,1922.7613601000048,None,1922.7613601000048,None,1922.7613601000048,None,33,35,45,69,35,52,1925.278580199927,None,2.0,1.2383353000041097,1925.278580199927,None,1925.278580199927,None,1925.278580199927,None,1925.278580199927,None,None,None,1926.5338578999508,None,,,,,,,122,f,26,2022_Dec_11_1747,RL,2021.2.3,59.99026957402073,
1,98,0,98,0,,,,,,,,,,,,,,,None,None,None,None,None,1928.387851699954,None,1928.387851699954,None,1928.387851699954,None,1928.387851699954,None,r,0.5339561000000685,1928.387851699954,None,1928.387851699954,None,1928.969849599991,None,1928.969849599991,None,1928.969849599991,None,1928.969849599991,None,1928.969849599991,None,1928.969849599991,None,1929.2694506000262,None,1929.2694506000262,None,1930.5327562000602,None,1930.5327562000602,None,1930.5327562000602,None,1930.5327562000602,None,1930.5327562000602,None,1930.5327562000602,None,1930.5327562000602,None,1930.5327562000602,None,1930.5327562000602,None,35,43,39,80,35,36,1933.056886299979,None,3.0,1.517701799981296,1933.056886299979,None,1933.056886299979,None,1933.056886299979,None,1933.056886299979,None,None,None,1934.5895831000526,None,,,,,,,122,f,26,2022_Dec_11_1747,RL,2021.2.3,59.99026957402073,
1,99,0,99,0,,,,,,,,,,,,,,,None,None,None,None,None,1936.3268007999286,None,1936.3268007999286,None,1936.3268007999286,None,1936.3268007999286,None,r,0.5755863999947906,1936.3268007999286,None,1936.3268007999286,None,1936.946369000012,None,1936.946369000012,None,1936.946369000012,None,1936.946369000012,None,1936.946369000012,None,1936.946369000012,None,1937.2414716999047,None,1937.2414716999047,None,1938.3885455001146,None,1938.3885455001146,None,1938.3885455001146,None,1938.3885455001146,None,1938.3885455001146,None,1938.3885455001146,None,1938.3885455001146,None,1938.3885455001146,None,1938.3885455001146,None,32,33,43,67,32,70,1940.909078200115,None,2.0,1.7518313999753445,1940.909078200115,None,1940.909078200115,None,1940.909078200115,None,1940.909078200115,None,None,None,1942.6854135999456,None,,,,,,,122,f,26,2022_Dec_11_1747,RL,2021.2.3,59.99026957402073,
1,100,0,100,0,,,,,,,,,,,,,,,None,None,None,None,None,1944.2819920999464,None,1944.2819920999464,None,1944.2819920999464,None,1944.2819920999464,None,f,0.800449299858883,1944.2819920999464,None,1944.2819920999464,None,1945.1353931000922,None,1945.1353931000922,None,1945.1353931000922,None,1945.1353931000922,None,1945.1353931000922,None,1945.1353931000922,None,1945.4304013999645,None,1945.4304013999645,None,1947.2776118000038,None,1947.2776118000038,None,1947.2776118000038,None,1947.2776118000038,None,1947.2776118000038,None,1947.2776118000038,None,1947.2776118000038,None,1947.2776118000038,None,1947.2776118000038,None,27,27,36,75,27,65,1949.8022719,None,2.0,1.351170799927786,1949.8022719,None,1949.8022719,None,1949.8022719,None,1949.8022719,None,None,None,1951.1673608000856,None,,,,,,,122,f,26,2022_Dec_11_1747,RL,2021.2.3,59.99026957402073,
1,101,0,101,0,,,,,,,,,,,,,,,None,None,None,None,None,1953.054026500089,None,1953.054026500089,None,1953.054026500089,None,1953.054026500089,None,i,0.7582385998684913,1953.054026500089,None,1953.054026500089,None,1953.8536759000272,None,1953.8536759000272,None,1953.8536759000272,None,1953.8536759000272,None,1953.8536759000272,None,1953.8536759000272,None,1954.1533246000763,None,1954.1533246000763,None,1955.0341688999906,None,1955.0341688999906,None,1955.0341688999906,None,1955.0341688999906,None,1955.0341688999906,None,1955.0341688999906,None,1955.0341688999906,None,1955.0341688999906,None,1955.0341688999906,None,36,39,44,74,44,58,1957.5567803001031,None,2.0,1.3171721999533474,1957.5567803001031,None,1957.5567803001031,None,1957.5567803001031,None,1957.5567803001031,None,None,None,1958.889659699984,None,,,,,,,122,f,26,2022_Dec_11_1747,RL,2021.2.3,59.99026957402073,
1,102,0,102,0,,,,,,,,,,,,,,,None,None,None,None,None,1960.726828200044,None,1960.726828200044,None,1960.726828200044,None,1960.726828200044,None,j,0.36567709990777075,1960.726828200044,None,1960.726828200044,None,1961.1313920000102,None,1961.1313920000102,None,1961.1313920000102,None,1961.1313920000102,None,1961.1313920000102,None,1961.1313920000102,None,1961.4081393999513,1963.0091826000717,1961.4081393999513,1963.0091826000717,1963.0425474001095,None,1963.0425474001095,None,1963.0425474001095,None,1963.0425474001095,None,1963.0425474001095,None,1963.0425474001095,None,1963.0425474001095,None,1963.0425474001095,None,1963.0425474001095,None,29,34,41,66,66,52,1965.5571006999817,None,3.0,1.2545765999238938,1965.5571006999817,None,1965.5571006999817,None,1965.5571006999817,None,1965.5571006999817,None,None,None,1966.8346732000355,None,,,,,,,122,f,26,2022_Dec_11_1747,RL,2021.2.3,59.99026957402073,
1,103,0,103,0,,,,,,,,,,,,,,,None,None,None,None,None,1968.3996798000298,None,1968.3996798000298,None,1968.3996798000298,None,1968.3996798000298,None,j,0.5629112999886274,1968.3996798000298,None,1968.3996798000298,None,1969.0093384000938,None,1969.0093384000938,None,1969.0093384000938,None,1969.0093384000938,None,1969.0093384000938,None,1969.0093384000938,None,1969.2970320999157,None,1969.2970320999157,None,1970.595387000125,None,1970.595387000125,None,1970.595387000125,None,1970.595387000125,None,1970.595387000125,None,1970.595387000125,None,1970.595387000125,None,1970.595387000125,None,1970.595387000125,None,30,44,33,66,66,59,1973.113560100086,None,3.0,2.28960629994981,1973.113560100086,None,1973.113560100086,None,1973.113560100086,None,1973.113560100086,None,None,None,1975.4255908001214,None,,,,,,,122,f,26,2022_Dec_11_1747,RL,2021.2.3,59.99026957402073,
1,104,0,104,0,,,,,,,,,,,,,,,None,None,None,None,None,1976.971816400066,None,1976.971816400066,None,1976.971816400066,None,1976.971816400066,None,j,0.3106239000335336,1976.971816400066,None,1976.971816400066,None,1977.3247066000476,None,1977.3247066000476,None,1977.3247066000476,None,1977.3247066000476,None,1977.3247066000476,None,1977.3247066000476,None,1977.619518399937,None,1977.619518399937,None,1979.1565010000486,None,1979.1565010000486,None,1979.1565010000486,None,1979.1565010000486,None,1979.1565010000486,None,1979.1565010000486,None,1979.1565010000486,None,1979.1565010000486,None,1979.1565010000486,None,37,38,39,60,60,58,1981.667965099914,None,3.0,1.673438899917528,1981.667965099914,None,1981.667965099914,None,1981.667965099914,None,1981.667965099914,None,None,None,1983.3562423000112,None,,,,,,,122,f,26,2022_Dec_11_1747,RL,2021.2.3,59.99026957402073,
1,105,0,105,0,,,,,,,,,,,,,,,None,None,None,None,None,1985.2110389000736,None,1985.2110389000736,None,1985.2110389000736,None,1985.2110389000736,None,j,0.6819547999184579,1985.2110389000736,None,1985.2110389000736,None,1985.9331994000822,None,1985.9331994000822,None,1985.9331994000822,None,1985.9331994000822,None,1985.9331994000822,None,1985.9331994000822,None,1986.2253670000937,1987.0593540999107,1986.2253670000937,1987.0593540999107,1987.0964295999147,None,1987.0964295999147,None,1987.0964295999147,None,1987.0964295999147,None,1987.0964295999147,None,1987.0964295999147,None,1987.0964295999147,None,1987.0964295999147,None,1987.0964295999147,None,38,36,39,73,73,59,1989.6076233000495,None,3.0,2.1072923000901937,1989.6076233000495,None,1989.6076233000495,None,1989.6076233000495,None,1989.6076233000495,None,None,None,1991.7323869999964,None,,,,,,,122,f,26,2022_Dec_11_1747,RL,2021.2.3,59.99026957402073,
1,106,0,106,0,,,,,,,,,,,,,,,None,None,None,None,None,1993.6347988999914,None,1993.6347988999914,None,1993.6347988999914,None,1993.6347988999914,None,j,0.3778651000466198,1993.6347988999914,None,1993.6347988999914,None,1994.0527365000453,None,1994.0527365000453,None,1994.0527365000453,None,1994.0527365000453,None,1994.0527365000453,None,1994.0527365000453,None,1994.3479108000174,1995.698576600058,1994.3479108000174,1995.698576600058,1995.7335302000865,None,1995.7335302000865,None,1995.7335302000865,None,1995.7335302000865,None,1995.7335302000865,None,1995.7335302000865,None,1995.7335302000865,None,1995.7335302000865,None,1995.7335302000865,None,38,42,27,65,65,64,1998.2481386999134,None,3.0,1.4392246999777853,1998.2481386999134,None,1998.2481386999134,None,1998.2481386999134,None,1998.2481386999134,None,None,None,1999.7013364001177,None,,,,,,,122,f,26,2022_Dec_11_1747,RL,2021.2.3,59.99026957402073,
1,107,0,107,0,,,,,,,,,,,,,,,None,None,None,None,None,2001.238878000062,None,2001.238878000062,None,2001.238878000062,None,2001.238878000062,None,j,0.5034413000103086,2001.238878000062,None,2001.238878000062,None,2001.7904628000688,None,2001.7904628000688,None,2001.7904628000688,None,2001.7904628000688,None,2001.7904628000688,None,2001.7904628000688,None,2002.0864812000655,None,2002.0864812000655,None,2003.78644419997,None,2003.78644419997,None,2003.78644419997,None,2003.78644419997,None,2003.78644419997,None,2003.78644419997,None,2003.78644419997,None,2003.78644419997,None,2003.78644419997,None,41,47,37,63,63,53,2006.300837900024,None,4.0,2.0237722999881953,2006.300837900024,None,2006.300837900024,None,2006.300837900024,None,2006.300837900024,None,None,None,2008.346635099966,None,,,,,,,122,f,26,2022_Dec_11_1747,RL,2021.2.3,59.99026957402073,
1,108,0,108,0,,,,,,,,,,,,,,,None,None,None,None,None,2010.1618695000652,None,2010.1618695000652,None,2010.1618695000652,None,2010.1618695000652,None,j,0.4308710000477731,2010.1618695000652,None,2010.1618695000652,None,2010.6334766999353,None,2010.6334766999353,None,2010.6334766999353,None,2010.6334766999353,None,2010.6334766999353,None,2010.6334766999353,None,2010.9258785001002,2012.5935651999898,2010.9258785001002,2012.5935651999898,2012.6160999001004,None,2012.6160999001004,None,2012.6160999001004,None,2012.6160999001004,None,2012.6160999001004,None,2012.6160999001004,None,2012.6160999001004,None,2012.6160999001004,None,2012.6160999001004,None,37,51,31,60,60,69,2015.141744500026,None,3.0,1.4048165001440793,2015.141744500026,None,2015.141744500026,None,2015.141744500026,None,2015.141744500026,None,None,None,2016.5629783000331,None,,,,,,,122,f,26,2022_Dec_11_1747,RL,2021.2.3,59.99026957402073,
1,109,0,109,0,,,,,,,,,,,,,,,None,None,None,None,None,2018.2505739000626,None,2018.2505739000626,None,2018.2505739000626,None,2018.2505739000626,None,j,0.5120375999249518,2018.2505739000626,None,2018.2505739000626,None,2018.8000914999284,None,2018.8000914999284,None,2018.8000914999284,None,2018.8000914999284,None,2018.8000914999284,None,2018.8000914999284,None,2019.098472099984,2019.9153193999082,2019.098472099984,2019.9153193999082,2019.946938799927,None,2019.946938799927,None,2019.946938799927,None,2019.946938799927,None,2019.946938799927,None,2019.946938799927,None,2019.946938799927,None,2019.946938799927,None,2019.946938799927,None,39,41,35,68,68,37,2022.4640277000144,None,4.0,2.089606499997899,2022.4640277000144,None,2022.4640277000144,None,2022.4640277000144,None,2022.4640277000144,None,None,None,2024.5704765000846,None,,,,,,,122,f,26,2022_Dec_11_1747,RL,2021.2.3,59.99026957402073,
