bandit,trials.thisRepN,trials.thisTrialN,trials.thisN,trials.thisIndex,instru_img1.started,instru_img1.stopped,instru_resp.keys,instru_resp.rt,instru_resp.started,instru_resp.stopped,instru_img2.started,instru_img2.stopped,instru_resp2.keys,instru_resp2.rt,instru_resp2.started,instru_resp2.stopped,fixbefore_2.started,fixbefore_2.stopped,rest_image.started,rest_image.stopped,rest_response.keys,rest_response.started,rest_response.stopped,red.started,red.stopped,green.started,green.stopped,yellow.started,yellow.stopped,blue.started,blue.stopped,choose_bandit.keys,choose_bandit.rt,choose_bandit.started,choose_bandit.stopped,Fixation.started,Fixation.stopped,black.started,black.stopped,red_2.started,red_2.stopped,green_2.started,green_2.stopped,yellow_2.started,yellow_2.stopped,blue_2.started,blue_2.stopped,fixation_2.started,fixation_2.stopped,docs.started,docs.stopped,image_2.started,image_2.stopped,black_com.started,black_com.stopped,reward_sub.started,reward_sub.stopped,palyerb.started,palyerb.stopped,reward__sub.started,reward__sub.stopped,compare.started,compare.stopped,red_compare.started,red_compare.stopped,green_com.started,green_com.stopped,yellow_com.started,yellow_com.stopped,blue_com.started,blue_com.stopped,rewardyellow,rewardred,rewardblue,rewardgreen,subchoose,playerb,image_3.started,image_3.stopped,slider.response,slider.rt,slider.started,slider.stopped,text.started,text.stopped,image_4.started,image_4.stopped,image_5.started,image_5.stopped,bigx.started,bigx.stopped,intertrialfix.started,intertrialfix.stopped,rest_response.rt,image.started,image.stopped,key_resp.keys,key_resp.started,key_resp.stopped,participant,Gender,Age,date,expName,psychopyVersion,frameRate,
,,,,,13.105859100120142,None,space,1.5790715001057833,13.105859100120142,None,,,,,,,,,,,,,,,,,,,,,,,,,,,,,,,,,,,,,,,,,,,,,,,,,,,,,,,,,,,,,,,,,,,,,,,,,,,,,,,,,,,,,,,,,,124,f,1,2022_Dec_12_1029,RL,2021.2.3,59.89193095779098,
,,,,,,,,,,,14.715432800119743,None,space,3.7796670999377966,14.715432800119743,None,,,,,,,,,,,,,,,,,,,,,,,,,,,,,,,,,,,,,,,,,,,,,,,,,,,,,,,,,,,,,,,,,,,,,,,,,,,,,,,,,,,,124,f,1,2022_Dec_12_1029,RL,2021.2.3,59.89193095779098,
1,0,0,0,0,,,,,,,,,,,,,18.527937300037593,None,None,None,None,None,None,19.54870739998296,None,19.54870739998296,None,19.54870739998296,None,19.54870739998296,None,i,0.2964182000141591,19.54870739998296,None,19.54870739998296,None,19.91683300002478,None,19.91683300002478,None,19.91683300002478,None,19.91683300002478,None,19.91683300002478,None,19.91683300002478,None,20.200308399973437,21.751443299930543,20.200308399973437,21.751443299930543,21.791704500094056,None,21.791704500094056,None,21.791704500094056,None,21.791704500094056,None,21.791704500094056,None,21.791704500094056,None,21.791704500094056,None,21.791704500094056,None,21.791704500094056,None,49,55,39,70,39,48,24.325380800059065,None,5.0,3.939028700115159,24.325380800059065,None,24.325380800059065,None,24.325380800059065,None,24.325380800059065,None,None,None,28.30923749995418,None,,,,,,,124,f,1,2022_Dec_12_1029,RL,2021.2.3,59.89193095779098,
1,1,0,1,0,,,,,,,,,,,,,,,None,None,None,None,None,29.99300740007311,None,29.99300740007311,None,29.99300740007311,None,29.99300740007311,None,r,0.8218443999066949,29.99300740007311,None,29.99300740007311,None,30.86273630009964,None,30.86273630009964,None,30.86273630009964,None,30.86273630009964,None,30.86273630009964,None,30.86273630009964,None,31.158017199952155,32.55885119992308,31.158017199952155,32.55885119992308,32.594343800097704,None,32.594343800097704,None,32.594343800097704,None,32.594343800097704,None,32.594343800097704,None,32.594343800097704,None,32.594343800097704,None,32.594343800097704,None,32.594343800097704,None,38,53,44,69,38,59,35.10793170006946,None,6.0,2.5556991999037564,35.10793170006946,None,35.10793170006946,None,35.10793170006946,None,35.10793170006946,None,None,None,37.6823648000136,None,,,,,,,124,f,1,2022_Dec_12_1029,RL,2021.2.3,59.89193095779098,
1,2,0,2,0,,,,,,,,,,,,,,,None,None,None,None,None,39.500307200010866,None,39.500307200010866,None,39.500307200010866,None,39.500307200010866,None,j,1.1157354000024498,39.500307200010866,None,39.500307200010866,None,40.67105420003645,None,40.67105420003645,None,40.67105420003645,None,40.67105420003645,None,40.67105420003645,None,40.67105420003645,None,40.94812489999458,42.03233460010961,40.94812489999458,42.03233460010961,42.06455200002529,None,42.06455200002529,None,42.06455200002529,None,42.06455200002529,None,42.06455200002529,None,42.06455200002529,None,42.06455200002529,None,42.06455200002529,None,42.06455200002529,None,42,49,40,68,68,48,44.584268799982965,None,5.0,1.6537525998428464,44.584268799982965,None,44.584268799982965,None,44.584268799982965,None,44.584268799982965,None,None,None,46.256707600085065,None,,,,,,,124,f,1,2022_Dec_12_1029,RL,2021.2.3,59.89193095779098,
1,3,0,3,0,,,,,,,,,,,,,,,None,None,None,None,None,47.95472609996796,None,47.95472609996796,None,47.95472609996796,None,47.95472609996796,None,f,0.9509472001809627,47.95472609996796,None,47.95472609996796,None,48.96018290007487,None,48.96018290007487,None,48.96018290007487,None,48.96018290007487,None,48.96018290007487,None,48.96018290007487,None,49.237382099963725,50.90480130002834,49.237382099963725,50.90480130002834,50.93950290000066,None,50.93950290000066,None,50.93950290000066,None,50.93950290000066,None,50.93950290000066,None,50.93950290000066,None,50.93950290000066,None,50.93950290000066,None,50.93950290000066,None,50,43,39,75,43,64,53.45258869999088,None,6.0,1.3892136001959443,53.45258869999088,None,53.45258869999088,None,53.45258869999088,None,53.45258869999088,None,None,None,54.8572196001187,None,,,,,,,124,f,1,2022_Dec_12_1029,RL,2021.2.3,59.89193095779098,
1,4,0,4,0,,,,,,,,,,,,,,,None,None,None,None,None,56.579283100087196,None,56.579283100087196,None,56.579283100087196,None,56.579283100087196,None,i,0.6269364000763744,56.579283100087196,None,56.579283100087196,None,57.24951280001551,None,57.24951280001551,None,57.24951280001551,None,57.24951280001551,None,57.24951280001551,None,57.24951280001551,None,57.542984399944544,None,57.542984399944544,None,59.10700590000488,None,59.10700590000488,None,59.10700590000488,None,59.10700590000488,None,59.10700590000488,None,59.10700590000488,None,59.10700590000488,None,59.10700590000488,None,59.10700590000488,None,49,42,48,60,48,56,61.62567689991556,None,4.0,0.9230782000813633,61.62567689991556,None,61.62567689991556,None,61.62567689991556,None,61.62567689991556,None,None,None,62.571539599914104,None,,,,,,,124,f,1,2022_Dec_12_1029,RL,2021.2.3,59.89193095779098,
1,5,0,5,0,,,,,,,,,,,,,,,None,None,None,None,None,64.18413930013776,None,64.18413930013776,None,64.18413930013776,None,64.18413930013776,None,j,1.0519958999939263,64.18413930013776,None,64.18413930013776,None,65.28587829996832,None,65.28587829996832,None,65.28587829996832,None,65.28587829996832,None,65.28587829996832,None,65.28587829996832,None,65.58178890007548,66.88259910000488,65.58178890007548,66.88259910000488,66.91869700001553,None,66.91869700001553,None,66.91869700001553,None,66.91869700001553,None,66.91869700001553,None,66.91869700001553,None,66.91869700001553,None,66.91869700001553,None,66.91869700001553,None,49,42,39,70,70,45,69.43337500002235,None,5.0,1.4033751001115888,69.43337500002235,None,69.43337500002235,None,69.43337500002235,None,69.43337500002235,None,None,None,70.85173629992642,None,,,,,,,124,f,1,2022_Dec_12_1029,RL,2021.2.3,59.89193095779098,
1,6,0,6,0,,,,,,,,,,,,,,,None,None,None,None,None,72.75634760013781,None,72.75634760013781,None,72.75634760013781,None,72.75634760013781,None,j,0.9400679999962449,72.75634760013781,None,72.75634760013781,None,73.74051210004836,None,73.74051210004836,None,73.74051210004836,None,73.74051210004836,None,73.74051210004836,None,73.74051210004836,None,74.03783520008437,None,74.03783520008437,None,75.53308900003321,None,75.53308900003321,None,75.53308900003321,None,75.53308900003321,None,75.53308900003321,None,75.53308900003321,None,75.53308900003321,None,75.53308900003321,None,75.53308900003321,None,46,53,44,72,72,51,78.04288550000638,None,5.0,1.034084500046447,78.04288550000638,None,78.04288550000638,None,78.04288550000638,None,78.04288550000638,None,None,None,79.09097780007869,None,,,,,,,124,f,1,2022_Dec_12_1029,RL,2021.2.3,59.89193095779098,
1,7,0,7,0,,,,,,,,,,,,,,,None,None,None,None,None,80.74572789995,None,80.74572789995,None,80.74572789995,None,80.74572789995,None,j,0.6707210000604391,80.74572789995,None,80.74572789995,None,81.46432980010286,None,81.46432980010286,None,81.46432980010286,None,81.46432980010286,None,81.46432980010286,None,81.46432980010286,None,81.759982699994,None,81.759982699994,None,82.81081719999202,None,82.81081719999202,None,82.81081719999202,None,82.81081719999202,None,82.81081719999202,None,82.81081719999202,None,82.81081719999202,None,82.81081719999202,None,82.81081719999202,None,41,47,44,80,80,55,85.32730040000752,None,4.0,0.954682799987495,85.32730040000752,None,85.32730040000752,None,85.32730040000752,None,85.32730040000752,None,None,None,86.29574139998294,None,,,,,,,124,f,1,2022_Dec_12_1029,RL,2021.2.3,59.89193095779098,
1,8,0,8,0,,,,,,,,,,,,,,,None,None,None,None,None,88.20061519998126,None,88.20061519998126,None,88.20061519998126,None,88.20061519998126,None,f,0.32592299999669194,88.20061519998126,None,88.20061519998126,None,88.56716400012374,None,88.56716400012374,None,88.56716400012374,None,88.56716400012374,None,88.56716400012374,None,88.56716400012374,None,88.864615800092,None,88.864615800092,None,89.86190659995191,None,89.86190659995191,None,89.86190659995191,None,89.86190659995191,None,89.86190659995191,None,89.86190659995191,None,89.86190659995191,None,89.86190659995191,None,89.86190659995191,None,42,44,26,72,44,53,92.38234629994258,None,4.0,1.251994299935177,92.38234629994258,None,92.38234629994258,None,92.38234629994258,None,92.38234629994258,None,None,None,93.65105740004219,None,,,,,,,124,f,1,2022_Dec_12_1029,RL,2021.2.3,59.89193095779098,
1,9,0,9,0,,,,,,,,,,,,,,,None,None,None,None,None,95.47241210006177,None,95.47241210006177,None,95.47241210006177,None,95.47241210006177,None,r,0.6041383999399841,95.47241210006177,None,95.47241210006177,None,96.1257648000028,None,96.1257648000028,None,96.1257648000028,None,96.1257648000028,None,96.1257648000028,None,96.1257648000028,None,96.41989820008166,97.32049770001322,96.41989820008166,97.32049770001322,97.35228589992039,None,97.35228589992039,None,97.35228589992039,None,97.35228589992039,None,97.35228589992039,None,97.35228589992039,None,97.35228589992039,None,97.35228589992039,None,97.35228589992039,None,37,42,39,67,37,47,99.86674940004013,None,3.0,1.3384781000204384,99.86674940004013,None,99.86674940004013,None,99.86674940004013,None,99.86674940004013,None,None,None,101.22260760003701,None,,,,,,,124,f,1,2022_Dec_12_1029,RL,2021.2.3,59.89193095779098,
1,10,0,10,0,,,,,,,,,,,,,,,None,None,None,None,None,102.77680650004186,None,102.77680650004186,None,102.77680650004186,None,102.77680650004186,None,i,0.4196682998444885,102.77680650004186,None,102.77680650004186,None,103.24723990005441,None,103.24723990005441,None,103.24723990005441,None,103.24723990005441,None,103.24723990005441,None,103.24723990005441,None,103.54151199990883,None,103.54151199990883,None,104.48973120003939,None,104.48973120003939,None,104.48973120003939,None,104.48973120003939,None,104.48973120003939,None,104.48973120003939,None,104.48973120003939,None,104.48973120003939,None,104.48973120003939,None,38,42,33,63,33,53,107.00615060003474,None,5.0,0.8057796999346465,107.00615060003474,None,107.00615060003474,None,107.00615060003474,None,107.00615060003474,None,None,None,107.82734640012495,None,,,,,,,124,f,1,2022_Dec_12_1029,RL,2021.2.3,59.89193095779098,
1,11,0,11,0,,,,,,,,,,,,,,,None,None,None,None,None,109.63147290004417,None,109.63147290004417,None,109.63147290004417,None,109.63147290004417,None,j,0.4148361999541521,109.63147290004417,None,109.63147290004417,None,110.08944429992698,None,110.08944429992698,None,110.08944429992698,None,110.08944429992698,None,110.08944429992698,None,110.08944429992698,None,110.3798571000807,None,110.3798571000807,None,112.36011040001176,None,112.36011040001176,None,112.36011040001176,None,112.36011040001176,None,112.36011040001176,None,112.36011040001176,None,112.36011040001176,None,112.36011040001176,None,112.36011040001176,None,34,49,37,67,67,46,114.87777670007199,None,4.0,0.7909858000930399,114.87777670007199,None,114.87777670007199,None,114.87777670007199,None,114.87777670007199,None,None,None,115.68410350009799,None,,,,,,,124,f,1,2022_Dec_12_1029,RL,2021.2.3,59.89193095779098,
1,12,0,12,0,,,,,,,,,,,,,,,None,None,None,None,None,117.48708899994381,None,117.48708899994381,None,117.48708899994381,None,117.48708899994381,None,f,0.6694744999986142,117.48708899994381,None,117.48708899994381,None,118.20731090009212,None,118.20731090009212,None,118.20731090009212,None,118.20731090009212,None,118.20731090009212,None,118.20731090009212,None,118.50192760000937,None,118.50192760000937,None,119.93366149999201,None,119.93366149999201,None,119.93366149999201,None,119.93366149999201,None,119.93366149999201,None,119.93366149999201,None,119.93366149999201,None,119.93366149999201,None,119.93366149999201,None,42,46,32,71,46,44,122.4521689999383,None,4.0,0.9220400000922382,122.4521689999383,None,122.4521689999383,None,122.4521689999383,None,122.4521689999383,None,None,None,123.39889200008474,None,,,,,,,124,f,1,2022_Dec_12_1029,RL,2021.2.3,59.89193095779098,
1,13,0,13,0,,,,,,,,,,,,,,,None,None,None,None,None,125.19242929993197,None,125.19242929993197,None,125.19242929993197,None,125.19242929993197,None,f,0.46430870005860925,125.19242929993197,None,125.19242929993197,None,125.6939493000973,None,125.6939493000973,None,125.6939493000973,None,125.6939493000973,None,125.6939493000973,None,125.6939493000973,None,125.99048059992492,None,125.99048059992492,None,127.85589060001075,None,127.85589060001075,None,127.85589060001075,None,127.85589060001075,None,127.85589060001075,None,127.85589060001075,None,127.85589060001075,None,127.85589060001075,None,127.85589060001075,None,39,45,21,65,45,48,130.37274500005879,None,4.0,0.5894988998770714,130.37274500005879,None,130.37274500005879,None,130.37274500005879,None,130.37274500005879,None,None,None,130.98012159997597,None,,,,,,,124,f,1,2022_Dec_12_1029,RL,2021.2.3,59.89193095779098,
1,14,0,14,0,,,,,,,,,,,,,,,None,None,None,None,None,132.96515420009382,None,132.96515420009382,None,132.96515420009382,None,132.96515420009382,None,f,0.5914582000114024,132.96515420009382,None,132.96515420009382,None,133.60107930004597,None,133.60107930004597,None,133.60107930004597,None,133.60107930004597,None,133.60107930004597,None,133.60107930004597,None,133.89614810002968,None,133.89614810002968,None,135.494404300116,None,135.494404300116,None,135.494404300116,None,135.494404300116,None,135.494404300116,None,135.494404300116,None,135.494404300116,None,135.494404300116,None,135.494404300116,None,27,44,35,70,44,41,138.01265239994973,None,3.0,1.3555004999507219,138.01265239994973,None,138.01265239994973,None,138.01265239994973,None,138.01265239994973,None,None,None,139.38262500008568,None,,,,,,,124,f,1,2022_Dec_12_1029,RL,2021.2.3,59.89193095779098,
1,15,0,15,0,,,,,,,,,,,,,,,None,None,None,None,None,141.15400129999034,None,141.15400129999034,None,141.15400129999034,None,141.15400129999034,None,j,0.8130141000729054,141.15400129999034,None,141.15400129999034,None,142.0072538999375,None,142.0072538999375,None,142.0072538999375,None,142.0072538999375,None,142.0072538999375,None,142.0072538999375,None,142.3019155000802,None,142.3019155000802,None,143.21550279995427,None,143.21550279995427,None,143.21550279995427,None,143.21550279995427,None,143.21550279995427,None,143.21550279995427,None,143.21550279995427,None,143.21550279995427,None,143.21550279995427,None,38,41,34,73,73,53,145.73542889999226,None,2.0,1.0025254001375288,145.73542889999226,None,145.73542889999226,None,145.73542889999226,None,145.73542889999226,None,None,None,146.75451290002093,None,,,,,,,124,f,1,2022_Dec_12_1029,RL,2021.2.3,59.89193095779098,
1,16,0,16,0,,,,,,,,,,,,,,,None,None,None,None,None,148.65886100009084,None,148.65886100009084,None,148.65886100009084,None,148.65886100009084,None,f,0.32784110005013645,148.65886100009084,None,148.65886100009084,None,149.02882790006697,None,149.02882790006697,None,149.02882790006697,None,149.02882790006697,None,149.02882790006697,None,149.02882790006697,None,149.3232907000929,None,149.3232907000929,None,150.7611612000037,None,150.7611612000037,None,150.7611612000037,None,150.7611612000037,None,150.7611612000037,None,150.7611612000037,None,150.7611612000037,None,150.7611612000037,None,150.7611612000037,None,33,39,28,74,39,43,153.2732027999591,None,3.0,0.7206119999755174,153.2732027999591,None,153.2732027999591,None,153.2732027999591,None,153.2732027999591,None,None,None,154.00912149995565,None,,,,,,,124,f,1,2022_Dec_12_1029,RL,2021.2.3,59.89193095779098,
1,17,0,17,0,,,,,,,,,,,,,,,None,None,None,None,None,155.98023049999028,None,155.98023049999028,None,155.98023049999028,None,155.98023049999028,None,r,0.4367082000244409,155.98023049999028,None,155.98023049999028,None,156.46583670005202,None,156.46583670005202,None,156.46583670005202,None,156.46583670005202,None,156.46583670005202,None,156.46583670005202,None,156.761931899935,None,156.761931899935,None,158.34371490008198,None,158.34371490008198,None,158.34371490008198,None,158.34371490008198,None,158.34371490008198,None,158.34371490008198,None,158.34371490008198,None,158.34371490008198,None,158.34371490008198,None,20,40,29,72,20,20,160.86794200004078,None,5.0,0.6328951998148113,160.86794200004078,None,160.86794200004078,None,160.86794200004078,None,160.86794200004078,None,None,None,161.51446330011822,None,,,,,,,124,f,1,2022_Dec_12_1029,RL,2021.2.3,59.89193095779098,
1,18,0,18,0,,,,,,,,,,,,,,,None,None,None,None,None,163.1186351000797,None,163.1186351000797,None,163.1186351000797,None,163.1186351000797,None,i,0.44809720013290644,163.1186351000797,None,163.1186351000797,None,163.605188800022,None,163.605188800022,None,163.605188800022,None,163.605188800022,None,163.605188800022,None,163.605188800022,None,163.9002551001031,None,163.9002551001031,None,165.35148059995845,None,165.35148059995845,None,165.35148059995845,None,165.35148059995845,None,165.35148059995845,None,165.35148059995845,None,165.35148059995845,None,165.35148059995845,None,165.35148059995845,None,23,47,39,71,39,45,167.87185160000809,None,4.0,0.7986137999687344,167.87185160000809,None,167.87185160000809,None,167.87185160000809,None,167.87185160000809,None,None,None,168.68644630000927,None,,,,,,,124,f,1,2022_Dec_12_1029,RL,2021.2.3,59.89193095779098,
1,19,0,19,0,,,,,,,,,,,,,,,None,None,None,None,None,170.54132440011017,None,170.54132440011017,None,170.54132440011017,None,170.54132440011017,None,r,0.315566600067541,170.54132440011017,None,170.54132440011017,None,170.910277799936,None,170.910277799936,None,170.910277799936,None,170.910277799936,None,170.910277799936,None,170.910277799936,None,171.2051401999779,None,171.2051401999779,None,172.20253060013056,None,172.20253060013056,None,172.20253060013056,None,172.20253060013056,None,172.20253060013056,None,172.20253060013056,None,172.20253060013056,None,172.20253060013056,None,172.20253060013056,None,23,39,37,75,23,40,174.7198332999833,None,4.0,1.0565230001229793,174.7198332999833,None,174.7198332999833,None,174.7198332999833,None,174.7198332999833,None,None,None,175.7917464999482,None,,,,,,,124,f,1,2022_Dec_12_1029,RL,2021.2.3,59.89193095779098,
1,20,0,20,0,,,,,,,,,,,,,,,None,None,None,None,None,177.41188320005313,None,177.41188320005313,None,177.41188320005313,None,177.41188320005313,None,f,0.38508039992302656,177.41188320005313,None,177.41188320005313,None,177.852107899962,None,177.852107899962,None,177.852107899962,None,177.852107899962,None,177.852107899962,None,177.852107899962,None,178.14324020012282,179.2605862999335,178.14324020012282,179.2605862999335,179.29087650007568,None,179.29087650007568,None,179.29087650007568,None,179.29087650007568,None,179.29087650007568,None,179.29087650007568,None,179.29087650007568,None,179.29087650007568,None,179.29087650007568,None,31,49,39,60,49,38,181.80743660009466,None,3.0,0.8919087001122534,181.80743660009466,None,181.80743660009466,None,181.80743660009466,None,181.80743660009466,None,None,None,182.71867309999652,None,,,,,,,124,f,1,2022_Dec_12_1029,RL,2021.2.3,59.89193095779098,
1,21,0,21,0,,,,,,,,,,,,,,,None,None,None,None,None,184.58401140011847,None,184.58401140011847,None,184.58401140011847,None,184.58401140011847,None,j,0.8425847999751568,184.58401140011847,None,184.58401140011847,None,185.47012690012343,None,185.47012690012343,None,185.47012690012343,None,185.47012690012343,None,185.47012690012343,None,185.47012690012343,None,185.7651794999838,186.74916530004703,185.7651794999838,186.74916530004703,186.77976649999619,None,186.77976649999619,None,186.77976649999619,None,186.77976649999619,None,186.77976649999619,None,186.77976649999619,None,186.77976649999619,None,186.77976649999619,None,186.77976649999619,None,33,38,44,64,64,39,189.30088409991004,None,4.0,1.8701589999254793,189.30088409991004,None,189.30088409991004,None,189.30088409991004,None,189.30088409991004,None,None,None,191.1850755000487,None,,,,,,,124,f,1,2022_Dec_12_1029,RL,2021.2.3,59.89193095779098,
1,22,0,22,0,,,,,,,,,,,,,,,None,None,None,None,None,193.0231483001262,None,193.0231483001262,None,193.0231483001262,None,193.0231483001262,None,j,0.7537390000652522,193.0231483001262,None,193.0231483001262,None,193.82788680004887,None,193.82788680004887,None,193.82788680004887,None,193.82788680004887,None,193.82788680004887,None,193.82788680004887,None,194.1210402001161,195.43836109992117,194.1210402001161,195.43836109992117,195.47037669993006,None,195.47037669993006,None,195.47037669993006,None,195.47037669993006,None,195.47037669993006,None,195.47037669993006,None,195.47037669993006,None,195.47037669993006,None,195.47037669993006,None,29,37,55,62,62,42,197.99300289992243,None,4.0,1.0518410000950098,197.99300289992243,None,197.99300289992243,None,197.99300289992243,None,197.99300289992243,None,None,None,199.0575397000648,None,,,,,,,124,f,1,2022_Dec_12_1029,RL,2021.2.3,59.89193095779098,
1,23,0,23,0,,,,,,,,,,,,,,,None,None,None,None,None,200.91180610004812,None,200.91180610004812,None,200.91180610004812,None,200.91180610004812,None,f,0.45596910011954606,200.91180610004812,None,200.91180610004812,None,201.41504519991577,None,201.41504519991577,None,201.41504519991577,None,201.41504519991577,None,201.41504519991577,None,201.41504519991577,None,201.70960780000314,203.34397109993733,201.70960780000314,203.34397109993733,203.37449690001085,None,203.37449690001085,None,203.37449690001085,None,203.37449690001085,None,203.37449690001085,None,203.37449690001085,None,203.37449690001085,None,203.37449690001085,None,203.37449690001085,None,34,41,48,62,41,38,205.8930238999892,None,4.0,0.5398908001370728,205.8930238999892,None,205.8930238999892,None,205.8930238999892,None,205.8930238999892,None,None,None,206.44607930001803,None,,,,,,,124,f,1,2022_Dec_12_1029,RL,2021.2.3,59.89193095779098,
1,24,0,24,0,,,,,,,,,,,,,,,None,None,None,None,None,208.03315869998187,None,208.03315869998187,None,208.03315869998187,None,208.03315869998187,None,f,0.654043500078842,208.03315869998187,None,208.03315869998187,None,208.7344366000034,None,208.7344366000034,None,208.7344366000034,None,208.7344366000034,None,208.7344366000034,None,208.7344366000034,None,209.03152179997414,210.7823709999211,209.03152179997414,210.7823709999211,210.8122735999059,None,210.8122735999059,None,210.8122735999059,None,210.8122735999059,None,210.8122735999059,None,210.8122735999059,None,210.8122735999059,None,210.8122735999059,None,210.8122735999059,None,25,43,46,65,43,46,213.33009840012528,None,5.0,1.106385000050068,213.33009840012528,None,213.33009840012528,None,213.33009840012528,None,213.33009840012528,None,None,None,214.45128379995003,None,,,,,,,124,f,1,2022_Dec_12_1029,RL,2021.2.3,59.89193095779098,
1,25,0,25,0,,,,,,,,,,,,,,,None,None,None,None,None,216.0722336000763,None,216.0722336000763,None,216.0722336000763,None,216.0722336000763,None,f,0.825264299986884,216.0722336000763,None,216.0722336000763,None,216.94296930008568,None,216.94296930008568,None,216.94296930008568,None,216.94296930008568,None,216.94296930008568,None,216.94296930008568,None,217.2369967000559,None,217.2369967000559,None,219.23420129995793,None,219.23420129995793,None,219.23420129995793,None,219.23420129995793,None,219.23420129995793,None,219.23420129995793,None,219.23420129995793,None,219.23420129995793,None,219.23420129995793,None,36,48,44,63,48,40,221.75509080011398,None,4.0,0.7866287999786437,221.75509080011398,None,221.75509080011398,None,221.75509080011398,None,221.75509080011398,None,None,None,222.55691689997911,None,,,,,,,124,f,1,2022_Dec_12_1029,RL,2021.2.3,59.89193095779098,
1,26,0,26,0,,,,,,,,,,,,,,,None,None,None,None,None,224.32800480001606,None,224.32800480001606,None,224.32800480001606,None,224.32800480001606,None,f,0.43022360000759363,224.32800480001606,None,224.32800480001606,None,224.79764369991608,None,224.79764369991608,None,224.79764369991608,None,224.79764369991608,None,224.79764369991608,None,224.79764369991608,None,225.09243680001236,None,225.09243680001236,None,226.2885831000749,None,226.2885831000749,None,226.2885831000749,None,226.2885831000749,None,226.2885831000749,None,226.2885831000749,None,226.2885831000749,None,226.2885831000749,None,226.2885831000749,None,31,44,49,68,44,37,228.80472139990889,None,4.0,0.7257304999511689,228.80472139990889,None,228.80472139990889,None,228.80472139990889,None,228.80472139990889,None,None,None,229.54943550005555,None,,,,,,,124,f,1,2022_Dec_12_1029,RL,2021.2.3,59.89193095779098,
1,27,0,27,0,,,,,,,,,,,,,,,None,None,None,None,None,231.46972210006788,None,231.46972210006788,None,231.46972210006788,None,231.46972210006788,None,f,0.5285570998676121,231.46972210006788,None,231.46972210006788,None,232.05454450007528,None,232.05454450007528,None,232.05454450007528,None,232.05454450007528,None,232.05454450007528,None,232.05454450007528,None,232.34745789994486,None,232.34745789994486,None,233.96374329994433,None,233.96374329994433,None,233.96374329994433,None,233.96374329994433,None,233.96374329994433,None,233.96374329994433,None,233.96374329994433,None,233.96374329994433,None,233.96374329994433,None,33,40,43,68,40,43,236.4802900000941,None,4.0,0.45564819988794625,236.4802900000941,None,236.4802900000941,None,236.4802900000941,None,236.4802900000941,None,None,None,236.95222870004363,None,,,,,,,124,f,1,2022_Dec_12_1029,RL,2021.2.3,59.89193095779098,
1,28,0,28,0,,,,,,,,,,,,,,,None,None,None,None,None,238.73791159992106,None,238.73791159992106,None,238.73791159992106,None,238.73791159992106,None,j,0.39004319999367,238.73791159992106,None,238.73791159992106,None,239.1744262999855,None,239.1744262999855,None,239.1744262999855,None,239.1744262999855,None,239.1744262999855,None,239.1744262999855,None,239.46910839993507,None,239.46910839993507,None,240.8574354001321,None,240.8574354001321,None,240.8574354001321,None,240.8574354001321,None,240.8574354001321,None,240.8574354001321,None,240.8574354001321,None,240.8574354001321,None,240.8574354001321,None,38,49,47,71,71,50,243.37071610009298,None,3.0,1.2202679000329226,243.37071610009298,None,243.37071610009298,None,243.37071610009298,None,243.37071610009298,None,None,None,244.60787159996107,None,,,,,,,124,f,1,2022_Dec_12_1029,RL,2021.2.3,59.89193095779098,
1,29,0,29,0,,,,,,,,,,,,,,,None,None,None,None,None,246.42662449995987,None,246.42662449995987,None,246.42662449995987,None,246.42662449995987,None,f,0.5116290000732988,246.42662449995987,None,246.42662449995987,None,246.97945230011828,None,246.97945230011828,None,246.97945230011828,None,246.97945230011828,None,246.97945230011828,None,246.97945230011828,None,247.2745710001327,None,247.2745710001327,None,248.40793290012516,None,248.40793290012516,None,248.40793290012516,None,248.40793290012516,None,248.40793290012516,None,248.40793290012516,None,248.40793290012516,None,248.40793290012516,None,248.40793290012516,None,35,45,56,66,45,39,250.9264048000332,None,4.0,0.8677522002253681,250.9264048000332,None,250.9264048000332,None,250.9264048000332,None,250.9264048000332,None,None,None,251.8107465999201,None,,,,,,,124,f,1,2022_Dec_12_1029,RL,2021.2.3,59.89193095779098,
1,30,0,30,0,,,,,,,,,,,,,,,None,None,None,None,None,253.76487840013579,None,253.76487840013579,None,253.76487840013579,None,253.76487840013579,None,f,0.62350680003874,253.76487840013579,None,253.76487840013579,None,254.43258560006507,None,254.43258560006507,None,254.43258560006507,None,254.43258560006507,None,254.43258560006507,None,254.43258560006507,None,254.7297553999815,None,254.7297553999815,None,256.09414810012095,None,256.09414810012095,None,256.09414810012095,None,256.09414810012095,None,256.09414810012095,None,256.09414810012095,None,256.09414810012095,None,256.09414810012095,None,256.09414810012095,None,32,48,55,67,48,44,258.6142589999363,None,5.0,1.5679965000599623,258.6142589999363,None,258.6142589999363,None,258.6142589999363,None,258.6142589999363,None,None,None,260.1996228999924,None,,,,,,,124,f,1,2022_Dec_12_1029,RL,2021.2.3,59.89193095779098,
1,31,0,31,0,,,,,,,,,,,,,,,None,None,None,None,None,262.0378934000619,None,262.0378934000619,None,262.0378934000619,None,262.0378934000619,None,f,0.7503810001071543,262.0378934000619,None,262.0378934000619,None,262.8407515999861,None,262.8407515999861,None,262.8407515999861,None,262.8407515999861,None,262.8407515999861,None,262.8407515999861,None,263.13552620005794,265.1368790999986,263.13552620005794,265.1368790999986,265.1709618999157,None,265.1709618999157,None,265.1709618999157,None,265.1709618999157,None,265.1709618999157,None,265.1709618999157,None,265.1709618999157,None,265.1709618999157,None,265.1709618999157,None,37,44,59,58,44,46,267.6860895999707,None,5.0,0.6045769001357257,267.6860895999707,None,267.6860895999707,None,267.6860895999707,None,267.6860895999707,None,None,None,268.3055197999347,None,,,,,,,124,f,1,2022_Dec_12_1029,RL,2021.2.3,59.89193095779098,
1,32,0,32,0,,,,,,,,,,,,,,,None,None,None,None,None,270.14284450002015,None,270.14284450002015,None,270.14284450002015,None,270.14284450002015,None,f,0.3852213998325169,270.14284450002015,None,270.14284450002015,None,270.5785296999384,None,270.5785296999384,None,270.5785296999384,None,270.5785296999384,None,270.5785296999384,None,270.5785296999384,None,270.87437560013495,272.3583857999183,270.87437560013495,272.3583857999183,272.39069569995627,None,272.39069569995627,None,272.39069569995627,None,272.39069569995627,None,272.39069569995627,None,272.39069569995627,None,272.39069569995627,None,272.39069569995627,None,272.39069569995627,None,25,44,52,70,44,49,274.9054930000566,None,5.0,0.6542495999019593,274.9054930000566,None,274.9054930000566,None,274.9054930000566,None,274.9054930000566,None,None,None,275.57731560012326,None,,,,,,,124,f,1,2022_Dec_12_1029,RL,2021.2.3,59.89193095779098,
1,33,0,33,0,,,,,,,,,,,,,,,None,None,None,None,None,277.3307278000284,None,277.3307278000284,None,277.3307278000284,None,277.3307278000284,None,f,0.3979283000808209,277.3307278000284,None,277.3307278000284,None,277.76903510000557,None,277.76903510000557,None,277.76903510000557,None,277.76903510000557,None,277.76903510000557,None,277.76903510000557,None,278.06250640004873,None,278.06250640004873,None,279.88478050008416,None,279.88478050008416,None,279.88478050008416,None,279.88478050008416,None,279.88478050008416,None,279.88478050008416,None,279.88478050008416,None,279.88478050008416,None,279.88478050008416,None,41,45,41,56,45,49,282.4127623999957,None,6.0,0.43737930012866855,282.4127623999957,None,282.4127623999957,None,282.4127623999957,None,282.4127623999957,None,None,None,282.8654291999992,None,,,,,,,124,f,1,2022_Dec_12_1029,RL,2021.2.3,59.89193095779098,
1,34,0,34,0,,,,,,,,,,,,,,,None,None,None,None,None,284.83704630006105,None,284.83704630006105,None,284.83704630006105,None,284.83704630006105,None,f,0.45159050007350743,284.83704630006105,None,284.83704630006105,None,285.3395457000006,None,285.3395457000006,None,285.3395457000006,None,285.3395457000006,None,285.3395457000006,None,285.3395457000006,None,285.6344902999699,287.28545289998874,285.6344902999699,287.28545289998874,287.317360999994,None,287.317360999994,None,287.317360999994,None,287.317360999994,None,287.317360999994,None,287.317360999994,None,287.317360999994,None,287.317360999994,None,287.317360999994,None,40,46,45,50,46,47,289.83648149995133,None,6.0,0.6143823999445885,289.83648149995133,None,289.83648149995133,None,289.83648149995133,None,289.83648149995133,None,None,None,290.475051100133,None,,,,,,,124,f,1,2022_Dec_12_1029,RL,2021.2.3,59.89193095779098,
1,35,0,35,0,,,,,,,,,,,,,,,None,None,None,None,None,292.3255811999552,None,292.3255811999552,None,292.3255811999552,None,292.3255811999552,None,f,0.31294240010902286,292.3255811999552,None,292.3255811999552,None,292.6780113000423,None,292.6780113000423,None,292.6780113000423,None,292.6780113000423,None,292.6780113000423,None,292.6780113000423,None,292.9727253001183,294.6405841000378,292.9727253001183,294.6405841000378,294.67100200010464,None,294.67100200010464,None,294.67100200010464,None,294.67100200010464,None,294.67100200010464,None,294.67100200010464,None,294.67100200010464,None,294.67100200010464,None,294.67100200010464,None,43,48,53,60,48,45,297.1881860999856,None,5.0,0.488874799804762,297.1881860999856,None,297.1881860999856,None,297.1881860999856,None,297.1881860999856,None,None,None,297.70046230009757,None,,,,,,,124,f,1,2022_Dec_12_1029,RL,2021.2.3,59.89193095779098,
1,36,0,36,0,,,,,,,,,,,,,,,None,None,None,None,None,299.44679359998554,None,299.44679359998554,None,299.44679359998554,None,299.44679359998554,None,f,0.4320201000664383,299.44679359998554,None,299.44679359998554,None,299.9164398999419,None,299.9164398999419,None,299.9164398999419,None,299.9164398999419,None,299.9164398999419,None,299.9164398999419,None,300.2112243999727,None,300.2112243999727,None,301.49241419998,None,301.49241419998,None,301.49241419998,None,301.49241419998,None,301.49241419998,None,301.49241419998,None,301.49241419998,None,301.49241419998,None,301.49241419998,None,32,44,52,45,44,42,304.0116588999517,None,5.0,0.5886693999636918,304.0116588999517,None,304.0116588999517,None,304.0116588999517,None,304.0116588999517,None,None,None,304.62250420008786,None,,,,,,,124,f,1,2022_Dec_12_1029,RL,2021.2.3,59.89193095779098,
1,37,0,37,0,,,,,,,,,,,,,,,None,None,None,None,None,306.23521320009604,None,306.23521320009604,None,306.23521320009604,None,306.23521320009604,None,j,0.5833786998409778,306.23521320009604,None,306.23521320009604,None,306.87110759993084,None,306.87110759993084,None,306.87110759993084,None,306.87110759993084,None,306.87110759993084,None,306.87110759993084,None,307.1659864000976,None,307.1659864000976,None,308.762355200015,None,308.762355200015,None,308.762355200015,None,308.762355200015,None,308.762355200015,None,308.762355200015,None,308.762355200015,None,308.762355200015,None,308.762355200015,None,33,47,60,50,50,28,311.28170059993863,None,5.0,0.7888509999029338,311.28170059993863,None,311.28170059993863,None,311.28170059993863,None,311.28170059993863,None,None,None,312.0859481000807,None,,,,,,,124,f,1,2022_Dec_12_1029,RL,2021.2.3,59.89193095779098,
1,38,0,38,0,,,,,,,,,,,,,,,None,None,None,None,None,313.62344190012664,None,313.62344190012664,None,313.62344190012664,None,313.62344190012664,None,f,0.5352658999618143,313.62344190012664,None,313.62344190012664,None,314.2105167999398,None,314.2105167999398,None,314.2105167999398,None,314.2105167999398,None,314.2105167999398,None,314.2105167999398,None,314.5044956000056,None,314.5044956000056,None,315.6525538000278,None,315.6525538000278,None,315.6525538000278,None,315.6525538000278,None,315.6525538000278,None,315.6525538000278,None,315.6525538000278,None,315.6525538000278,None,315.6525538000278,None,36,44,52,49,44,37,318.17097289999947,None,5.0,0.6050998000428081,318.17097289999947,None,318.17097289999947,None,318.17097289999947,None,318.17097289999947,None,None,None,318.790150300134,None,,,,,,,124,f,1,2022_Dec_12_1029,RL,2021.2.3,59.89193095779098,
1,39,0,39,0,,,,,,,,,,,,,,,None,None,None,None,None,320.52818710007705,None,320.52818710007705,None,320.52818710007705,None,320.52818710007705,None,f,0.3405886001419276,320.52818710007705,None,320.52818710007705,None,320.9178009000607,None,320.9178009000607,None,320.9178009000607,None,320.9178009000607,None,320.9178009000607,None,320.9178009000607,None,321.2091777001042,None,321.2091777001042,None,322.8078878999222,None,322.8078878999222,None,322.8078878999222,None,322.8078878999222,None,322.8078878999222,None,322.8078878999222,None,322.8078878999222,None,322.8078878999222,None,322.8078878999222,None,49,44,63,42,44,48,325.3286216999404,None,5.0,0.5190583998337388,325.3286216999404,None,325.3286216999404,None,325.3286216999404,None,325.3286216999404,None,None,None,325.86798530002125,None,,,,,,,124,f,1,2022_Dec_12_1029,RL,2021.2.3,59.89193095779098,
1,40,0,40,0,,,,,,,,,,,,,,,None,None,None,None,None,327.7165467001032,None,327.7165467001032,None,327.7165467001032,None,327.7165467001032,None,f,0.43219079985283315,327.7165467001032,None,327.7165467001032,None,328.2023674999364,None,328.2023674999364,None,328.2023674999364,None,328.2023674999364,None,328.2023674999364,None,328.2023674999364,None,328.4977917999495,None,328.4977917999495,None,330.431837500073,None,330.431837500073,None,330.431837500073,None,330.431837500073,None,330.431837500073,None,330.431837500073,None,330.431837500073,None,330.431837500073,None,330.431837500073,None,39,52,54,45,52,54,332.9601950000506,None,5.0,0.44756060000509024,332.9601950000506,None,332.9601950000506,None,332.9601950000506,None,332.9601950000506,None,None,None,333.42305410001427,None,,,,,,,124,f,1,2022_Dec_12_1029,RL,2021.2.3,59.89193095779098,
1,41,0,41,0,,,,,,,,,,,,,,,None,None,None,None,None,335.12283529993147,None,335.12283529993147,None,335.12283529993147,None,335.12283529993147,None,f,0.34603790007531643,335.12283529993147,None,335.12283529993147,None,335.50449090008624,None,335.50449090008624,None,335.50449090008624,None,335.50449090008624,None,335.50449090008624,None,335.50449090008624,None,335.80273430002853,None,335.80273430002853,None,337.66653269995004,None,337.66653269995004,None,337.66653269995004,None,337.66653269995004,None,337.66653269995004,None,337.66653269995004,None,337.66653269995004,None,337.66653269995004,None,337.66653269995004,None,36,37,57,45,37,21,340.18524449993856,None,4.0,1.0236027999781072,340.18524449993856,None,340.18524449993856,None,340.18524449993856,None,340.18524449993856,None,None,None,341.2271855000872,None,,,,,,,124,f,1,2022_Dec_12_1029,RL,2021.2.3,59.89193095779098,
1,42,0,42,0,,,,,,,,,,,,,,,None,None,None,None,None,342.79334069998004,None,342.79334069998004,None,342.79334069998004,None,342.79334069998004,None,f,0.4156299999449402,342.79334069998004,None,342.79334069998004,None,343.26298690005206,None,343.26298690005206,None,343.26298690005206,None,343.26298690005206,None,343.26298690005206,None,343.26298690005206,None,343.5579302001279,None,343.5579302001279,None,344.528928300133,None,344.528928300133,None,344.528928300133,None,344.528928300133,None,344.528928300133,None,344.528928300133,None,344.528928300133,None,344.528928300133,None,344.528928300133,None,36,43,57,44,43,48,347.0401514999103,None,5.0,0.7052841000258923,347.0401514999103,None,347.0401514999103,None,347.0401514999103,None,347.0401514999103,None,None,None,347.76997769996524,None,,,,,,,124,f,1,2022_Dec_12_1029,RL,2021.2.3,59.89193095779098,
1,43,0,43,0,,,,,,,,,,,,,,,None,None,None,None,None,349.3814906999469,None,349.3814906999469,None,349.3814906999469,None,349.3814906999469,None,f,0.3273078000638634,349.3814906999469,None,349.3814906999469,None,349.7522098000627,None,349.7522098000627,None,349.7522098000627,None,349.7522098000627,None,349.7522098000627,None,349.7522098000627,None,350.0460129000712,351.4131279999856,350.0460129000712,351.4131279999856,351.45015859999694,None,351.45015859999694,None,351.45015859999694,None,351.45015859999694,None,351.45015859999694,None,351.45015859999694,None,351.45015859999694,None,351.45015859999694,None,351.45015859999694,None,31,38,56,45,38,52,353.96429769997485,None,4.0,1.1368295000866055,353.96429769997485,None,353.96429769997485,None,353.96429769997485,None,353.96429769997485,None,None,None,355.1171741001308,None,,,,,,,124,f,1,2022_Dec_12_1029,RL,2021.2.3,59.89193095779098,
1,44,0,44,0,,,,,,,,,,,,,,,None,None,None,None,None,357.05313779995777,None,357.05313779995777,None,357.05313779995777,None,357.05313779995777,None,j,0.9357817000709474,357.05313779995777,None,357.05313779995777,None,358.0429424000904,None,358.0429424000904,None,358.0429424000904,None,358.0429424000904,None,358.0429424000904,None,358.0429424000904,None,358.33481919998303,359.28537810011767,358.33481919998303,359.28537810011767,359.3168850999791,None,359.3168850999791,None,359.3168850999791,None,359.3168850999791,None,359.3168850999791,None,359.3168850999791,None,359.3168850999791,None,359.3168850999791,None,359.3168850999791,None,35,47,56,40,40,49,361.8373378999531,None,6.0,0.851724199950695,361.8373378999531,None,361.8373378999531,None,361.8373378999531,None,361.8373378999531,None,None,None,362.70401280000806,None,,,,,,,124,f,1,2022_Dec_12_1029,RL,2021.2.3,59.89193095779098,
1,45,0,45,0,,,,,,,,,,,,,,,None,None,None,None,None,364.6754697000142,None,364.6754697000142,None,364.6754697000142,None,364.6754697000142,None,r,0.6834398000501096,364.6754697000142,None,364.6754697000142,None,365.4167533,None,365.4167533,None,365.4167533,None,365.4167533,None,365.4167533,None,365.4167533,None,365.7065568000544,366.90726409992203,365.7065568000544,366.90726409992203,366.93777900002897,None,366.93777900002897,None,366.93777900002897,None,366.93777900002897,None,366.93777900002897,None,366.93777900002897,None,366.93777900002897,None,366.93777900002897,None,366.93777900002897,None,31,47,41,37,31,41,369.4536890001036,None,6.0,1.0399548998102546,369.4536890001036,None,369.4536890001036,None,369.4536890001036,None,369.4536890001036,None,None,None,370.5094749000855,None,,,,,,,124,f,1,2022_Dec_12_1029,RL,2021.2.3,59.89193095779098,
1,46,0,46,0,,,,,,,,,,,,,,,None,None,None,None,None,372.2473305000458,None,372.2473305000458,None,372.2473305000458,None,372.2473305000458,None,i,0.33182080020196736,372.2473305000458,None,372.2473305000458,None,372.6172877000645,None,372.6172877000645,None,372.6172877000645,None,372.6172877000645,None,372.6172877000645,None,372.6172877000645,None,372.9115421001334,374.3458241999615,372.9115421001334,374.3458241999615,374.37884250003844,None,374.37884250003844,None,374.37884250003844,None,374.37884250003844,None,374.37884250003844,None,374.37884250003844,None,374.37884250003844,None,374.37884250003844,None,374.37884250003844,None,33,48,51,45,51,32,376.8981713000685,None,5.0,1.6852502000983804,376.8981713000685,None,376.8981713000685,None,376.8981713000685,None,376.8981713000685,None,None,None,378.5982540999539,None,,,,,,,124,f,1,2022_Dec_12_1029,RL,2021.2.3,59.89193095779098,
1,47,0,47,0,,,,,,,,,,,,,,,None,None,None,None,None,380.60317740007304,None,380.60317740007304,None,380.60317740007304,None,380.60317740007304,None,j,0.5560747999697924,380.60317740007304,None,380.60317740007304,None,381.2108614000026,None,381.2108614000026,None,381.2108614000026,None,381.2108614000026,None,381.2108614000026,None,381.2108614000026,None,381.5007503000088,382.33468770002946,381.5007503000088,382.33468770002946,382.3636837999802,None,382.3636837999802,None,382.3636837999802,None,382.3636837999802,None,382.3636837999802,None,382.3636837999802,None,382.3636837999802,None,382.3636837999802,None,382.3636837999802,None,25,51,48,37,37,57,384.8861974000465,None,5.0,1.1697390999179333,384.8861974000465,None,384.8861974000465,None,384.8861974000465,None,384.8861974000465,None,None,None,386.0702335999813,None,,,,,,,124,f,1,2022_Dec_12_1029,RL,2021.2.3,59.89193095779098,
1,48,0,48,0,,,,,,,,,,,,,,,None,None,None,None,None,387.6582263999153,None,387.6582263999153,None,387.6582263999153,None,387.6582263999153,None,i,0.3407435000408441,387.6582263999153,None,387.6582263999153,None,388.04642000002787,None,388.04642000002787,None,388.04642000002787,None,388.04642000002787,None,388.04642000002787,None,388.04642000002787,None,388.3390422000084,None,388.3390422000084,None,389.8050327000674,None,389.8050327000674,None,389.8050327000674,None,389.8050327000674,None,389.8050327000674,None,389.8050327000674,None,389.8050327000674,None,389.8050327000674,None,389.8050327000674,None,34,47,48,44,48,31,392.3204280999489,None,5.0,1.0537183999549598,392.3204280999489,None,392.3204280999489,None,392.3204280999489,None,392.3204280999489,None,None,None,393.39216640009545,None,,,,,,,124,f,1,2022_Dec_12_1029,RL,2021.2.3,59.89193095779098,
1,49,0,49,0,,,,,,,,,,,,,,,None,None,None,None,None,395.02972849993967,None,395.02972849993967,None,395.02972849993967,None,395.02972849993967,None,i,0.3691590002272278,395.02972849993967,None,395.02972849993967,None,395.4490233999677,None,395.4490233999677,None,395.4490233999677,None,395.4490233999677,None,395.4490233999677,None,395.4490233999677,None,395.74403279996477,None,395.74403279996477,None,396.8746718999464,None,396.8746718999464,None,396.8746718999464,None,396.8746718999464,None,396.8746718999464,None,396.8746718999464,None,396.8746718999464,None,396.8746718999464,None,396.8746718999464,None,34,44,53,49,53,41,399.3927800001111,None,4.0,1.1068523998837918,399.3927800001111,None,399.3927800001111,None,399.3927800001111,None,399.3927800001111,None,None,None,400.5238022999838,None,,,,,,,124,f,1,2022_Dec_12_1029,RL,2021.2.3,59.89193095779098,
1,50,0,50,0,,,,,,,,,,,,,,,None,None,None,None,None,402.0679602001328,None,402.0679602001328,None,402.0679602001328,None,402.0679602001328,None,f,0.2919218000024557,402.0679602001328,None,402.0679602001328,None,402.40954759996384,None,402.40954759996384,None,402.40954759996384,None,402.40954759996384,None,402.40954759996384,None,402.40954759996384,None,402.69908670010045,404.5332824999932,402.69908670010045,404.5332824999932,404.56433399999514,None,404.56433399999514,None,404.56433399999514,None,404.56433399999514,None,404.56433399999514,None,404.56433399999514,None,404.56433399999514,None,404.56433399999514,None,404.56433399999514,None,39,51,42,47,51,58,407.08581500011496,None,5.0,0.7869518001098186,407.08581500011496,None,407.08581500011496,None,407.08581500011496,None,407.08581500011496,None,None,None,407.88695410010405,None,,,,,,,124,f,1,2022_Dec_12_1029,RL,2021.2.3,59.89193095779098,
1,51,0,51,0,,,,,,,,,,,,,,,None,None,None,None,None,409.5571586000733,None,409.5571586000733,None,409.5571586000733,None,409.5571586000733,None,i,0.033165400149300694,409.5571586000733,None,409.5571586000733,None,409.6442287999671,None,409.6442287999671,None,409.6442287999671,None,409.6442287999671,None,409.6442287999671,None,409.6442287999671,None,409.92063369997777,410.8544159999583,409.92063369997777,410.8544159999583,410.8925896000583,None,410.8925896000583,None,410.8925896000583,None,410.8925896000583,None,410.8925896000583,None,410.8925896000583,None,410.8925896000583,None,410.8925896000583,None,410.8925896000583,None,32,40,40,51,40,59,413.421517400071,None,6.0,1.3020001000259072,413.421517400071,None,413.421517400071,None,413.421517400071,None,413.421517400071,None,None,None,414.7400247999467,None,,,,,,,124,f,1,2022_Dec_12_1029,RL,2021.2.3,59.89193095779098,
1,52,0,52,0,,,,,,,,,,,,,,,None,None,None,None,None,416.29450600012206,None,416.29450600012206,None,416.29450600012206,None,416.29450600012206,None,f,0.7258196000475436,416.29450600012206,None,416.29450600012206,None,417.063791600056,None,417.063791600056,None,417.063791600056,None,417.063791600056,None,417.063791600056,None,417.063791600056,None,417.35915099992417,None,417.35915099992417,None,419.0398635000456,None,419.0398635000456,None,419.0398635000456,None,419.0398635000456,None,419.0398635000456,None,419.0398635000456,None,419.0398635000456,None,419.0398635000456,None,419.0398635000456,None,32,40,43,49,40,22,421.562297699973,None,3.0,0.9669602999929339,421.562297699973,None,421.562297699973,None,421.562297699973,None,421.562297699973,None,None,None,422.5518491000403,None,,,,,,,124,f,1,2022_Dec_12_1029,RL,2021.2.3,59.89193095779098,
1,53,0,53,0,,,,,,,,,,,,,,,None,None,None,None,None,424.14987049996853,None,424.14987049996853,None,424.14987049996853,None,424.14987049996853,None,f,0.31042569992132485,424.14987049996853,None,424.14987049996853,None,424.5023410001304,None,424.5023410001304,None,424.5023410001304,None,424.5023410001304,None,424.5023410001304,None,424.5023410001304,None,424.7976617999375,None,424.7976617999375,None,426.3099805000238,None,426.3099805000238,None,426.3099805000238,None,426.3099805000238,None,426.3099805000238,None,426.3099805000238,None,426.3099805000238,None,426.3099805000238,None,426.3099805000238,None,19,37,46,56,37,63,428.82944020000286,None,4.0,1.5410272001754493,428.82944020000286,None,428.82944020000286,None,428.82944020000286,None,428.82944020000286,None,None,None,430.3841889000032,None,,,,,,,124,f,1,2022_Dec_12_1029,RL,2021.2.3,59.89193095779098,
1,54,0,54,0,,,,,,,,,,,,,,,None,None,None,None,None,432.0386495999992,None,432.0386495999992,None,432.0386495999992,None,432.0386495999992,None,r,0.34173749992623925,432.0386495999992,None,432.0386495999992,None,432.4251326001249,None,432.4251326001249,None,432.4251326001249,None,432.4251326001249,None,432.4251326001249,None,432.4251326001249,None,432.7196903000586,None,432.7196903000586,None,433.8170227999799,None,433.8170227999799,None,433.8170227999799,None,433.8170227999799,None,433.8170227999799,None,433.8170227999799,None,433.8170227999799,None,433.8170227999799,None,433.8170227999799,None,24,41,43,47,24,32,436.34116260008886,None,4.0,0.4845441000070423,436.34116260008886,None,436.34116260008886,None,436.34116260008886,None,436.34116260008886,None,None,None,436.8448982001282,None,,,,,,,124,f,1,2022_Dec_12_1029,RL,2021.2.3,59.89193095779098,
1,55,0,55,0,,,,,,,,,,,,,,,None,None,None,None,None,438.84355200012214,None,438.84355200012214,None,438.84355200012214,None,438.84355200012214,None,j,0.2869037000928074,438.84355200012214,None,438.84355200012214,None,439.17731039994396,None,439.17731039994396,None,439.17731039994396,None,439.17731039994396,None,439.17731039994396,None,439.17731039994396,None,439.4743900001049,None,439.4743900001049,None,440.9402394001372,None,440.9402394001372,None,440.9402394001372,None,440.9402394001372,None,440.9402394001372,None,440.9402394001372,None,440.9402394001372,None,440.9402394001372,None,440.9402394001372,None,21,41,39,47,47,64,443.4584152000025,None,4.0,2.0537896999157965,443.4584152000025,None,443.4584152000025,None,443.4584152000025,None,443.4584152000025,None,None,None,445.5293654999696,None,,,,,,,124,f,1,2022_Dec_12_1029,RL,2021.2.3,59.89193095779098,
1,56,0,56,0,,,,,,,,,,,,,,,None,None,None,None,None,447.34884779993445,None,447.34884779993445,None,447.34884779993445,None,447.34884779993445,None,i,0.3615968998055905,447.34884779993445,None,447.34884779993445,None,447.75182990008034,None,447.75182990008034,None,447.75182990008034,None,447.75182990008034,None,447.75182990008034,None,447.75182990008034,None,448.04703449993394,450.01487640012056,448.04703449993394,450.01487640012056,450.0508886000607,None,450.0508886000607,None,450.0508886000607,None,450.0508886000607,None,450.0508886000607,None,450.0508886000607,None,450.0508886000607,None,450.0508886000607,None,450.0508886000607,None,26,39,43,62,43,79,452.57300670002587,None,4.0,0.6629025000147521,452.57300670002587,None,452.57300670002587,None,452.57300670002587,None,452.57300670002587,None,None,None,453.2499967000913,None,,,,,,,124,f,1,2022_Dec_12_1029,RL,2021.2.3,59.89193095779098,
1,57,0,57,0,,,,,,,,,,,,,,,None,None,None,None,None,454.78751650010236,None,454.78751650010236,None,454.78751650010236,None,454.78751650010236,None,r,0.3930474000517279,454.78751650010236,None,454.78751650010236,None,455.2223583001178,None,455.2223583001178,None,455.2223583001178,None,455.2223583001178,None,455.2223583001178,None,455.2223583001178,None,455.518919599941,456.33595909993164,455.518919599941,456.33595909993164,456.42129590013064,None,456.42129590013064,None,456.42129590013064,None,456.42129590013064,None,456.42129590013064,None,456.42129590013064,None,456.42129590013064,None,456.42129590013064,None,456.42129590013064,None,30,44,44,49,30,46,458.8843624999281,None,4.0,1.0546426000073552,458.8843624999281,None,458.8843624999281,None,458.8843624999281,None,458.8843624999281,None,None,None,459.95459829992615,None,,,,,,,124,f,1,2022_Dec_12_1029,RL,2021.2.3,59.89193095779098,
1,58,0,58,0,,,,,,,,,,,,,,,None,None,None,None,None,461.5933002999518,None,461.5933002999518,None,461.5933002999518,None,461.5933002999518,None,f,0.46690539992414415,461.5933002999518,None,461.5933002999518,None,462.110946000088,None,462.110946000088,None,462.110946000088,None,462.110946000088,None,462.110946000088,None,462.110946000088,None,462.4068752999883,None,462.4068752999883,None,463.82380080013536,None,463.82380080013536,None,463.82380080013536,None,463.82380080013536,None,463.82380080013536,None,463.82380080013536,None,463.82380080013536,None,463.82380080013536,None,463.82380080013536,None,26,47,41,60,47,74,466.3404661999084,None,4.0,0.9534094000700861,466.3404661999084,None,466.3404661999084,None,466.3404661999084,None,466.3404661999084,None,None,None,467.3098534999881,None,,,,,,,124,f,1,2022_Dec_12_1029,RL,2021.2.3,59.89193095779098,
1,59,0,59,0,,,,,,,,,,,,,,,None,None,None,None,None,468.84779820009135,None,468.84779820009135,None,468.84779820009135,None,468.84779820009135,None,j,0.35244900011457503,468.84779820009135,None,468.84779820009135,None,469.2509262000676,None,469.2509262000676,None,469.2509262000676,None,469.2509262000676,None,469.2509262000676,None,469.2509262000676,None,469.5454432000406,470.57945369998924,469.5454432000406,470.57945369998924,470.61651060008444,None,470.61651060008444,None,470.61651060008444,None,470.61651060008444,None,470.61651060008444,None,470.61651060008444,None,470.61651060008444,None,470.61651060008444,None,470.61651060008444,None,31,39,38,44,44,74,473.12948979996145,None,4.0,0.46899889991618693,473.12948979996145,None,473.12948979996145,None,473.12948979996145,None,473.12948979996145,None,None,None,473.6232620999217,None,,,,,,,124,f,1,2022_Dec_12_1029,RL,2021.2.3,59.89193095779098,
1,60,0,60,0,,,,,,,,,,,,,,,None,None,None,None,None,475.30250420002267,None,475.30250420002267,None,475.30250420002267,None,475.30250420002267,None,f,0.3982545998878777,475.30250420002267,None,475.30250420002267,None,475.7437005999964,None,475.7437005999964,None,475.7437005999964,None,475.7437005999964,None,475.7437005999964,None,475.7437005999964,None,476.03315489995293,477.36718890001066,476.03315489995293,477.36718890001066,477.3992399000563,None,477.3992399000563,None,477.3992399000563,None,477.3992399000563,None,477.3992399000563,None,477.3992399000563,None,477.3992399000563,None,477.3992399000563,None,477.3992399000563,None,34,42,43,54,42,42,479.91653060005046,None,4.0,0.41998809995129704,479.91653060005046,None,479.91653060005046,None,479.91653060005046,None,479.91653060005046,None,None,None,480.35227899998426,None,,,,,,,124,f,1,2022_Dec_12_1029,RL,2021.2.3,59.89193095779098,
1,61,0,61,0,,,,,,,,,,,,,,,None,None,None,None,None,481.9902139999904,None,481.9902139999904,None,481.9902139999904,None,481.9902139999904,None,f,0.29053610004484653,481.9902139999904,None,481.9902139999904,None,482.3250941999722,None,482.3250941999722,None,482.3250941999722,None,482.3250941999722,None,482.3250941999722,None,482.3250941999722,None,482.62108479999006,None,482.62108479999006,None,483.6499032001011,None,483.6499032001011,None,483.6499032001011,None,483.6499032001011,None,483.6499032001011,None,483.6499032001011,None,483.6499032001011,None,483.6499032001011,None,483.6499032001011,None,38,44,39,51,44,73,486.1703037000261,None,4.0,0.5329492997843772,486.1703037000261,None,486.1703037000261,None,486.1703037000261,None,486.1703037000261,None,None,None,486.7234660999384,None,,,,,,,124,f,1,2022_Dec_12_1029,RL,2021.2.3,59.89193095779098,
1,62,0,62,0,,,,,,,,,,,,,,,None,None,None,None,None,488.3442057999782,None,488.3442057999782,None,488.3442057999782,None,488.3442057999782,None,i,0.276698499917984,488.3442057999782,None,488.3442057999782,None,488.6660967001226,None,488.6660967001226,None,488.6660967001226,None,488.6660967001226,None,488.6660967001226,None,488.6660967001226,None,488.9587201999966,None,488.9587201999966,None,489.7903557999525,None,489.7903557999525,None,489.7903557999525,None,489.7903557999525,None,489.7903557999525,None,489.7903557999525,None,489.7903557999525,None,489.7903557999525,None,489.7903557999525,None,33,38,36,51,36,66,492.30641730013303,None,4.0,1.1211590999737382,492.30641730013303,None,492.30641730013303,None,492.30641730013303,None,492.30641730013303,None,None,None,493.44456570013426,None,,,,,,,124,f,1,2022_Dec_12_1029,RL,2021.2.3,59.89193095779098,
1,63,0,63,0,,,,,,,,,,,,,,,None,None,None,None,None,494.9655186000746,None,494.9655186000746,None,494.9655186000746,None,494.9655186000746,None,r,0.33496779995039105,494.9655186000746,None,494.9655186000746,None,495.35914080007933,None,495.35914080007933,None,495.35914080007933,None,495.35914080007933,None,495.35914080007933,None,495.35914080007933,None,495.6466741999611,497.0475868000649,495.6466741999611,497.0475868000649,497.0804554000497,None,497.0804554000497,None,497.0804554000497,None,497.0804554000497,None,497.0804554000497,None,497.0804554000497,None,497.0804554000497,None,497.0804554000497,None,497.0804554000497,None,40,40,38,56,40,75,499.599483900005,None,4.0,0.8860504999756813,499.599483900005,None,499.599483900005,None,499.599483900005,None,499.599483900005,None,None,None,500.50112219993025,None,,,,,,,124,f,1,2022_Dec_12_1029,RL,2021.2.3,59.89193095779098,
1,64,0,64,0,,,,,,,,,,,,,,,None,None,None,None,None,502.304681800073,None,502.304681800073,None,502.304681800073,None,502.304681800073,None,f,0.3161473001819104,502.304681800073,None,502.304681800073,None,502.6727219000459,None,502.6727219000459,None,502.6727219000459,None,502.6727219000459,None,502.6727219000459,None,502.6727219000459,None,502.9685045001097,504.9695723000914,502.9685045001097,504.9695723000914,505.0002876999788,None,505.0002876999788,None,505.0002876999788,None,505.0002876999788,None,505.0002876999788,None,505.0002876999788,None,505.0002876999788,None,505.0002876999788,None,505.0002876999788,None,26,41,43,53,41,74,507.51712729991414,None,4.0,0.4232252000365406,507.51712729991414,None,507.51712729991414,None,507.51712729991414,None,507.51712729991414,None,None,None,507.9607559000142,None,,,,,,,124,f,1,2022_Dec_12_1029,RL,2021.2.3,59.89193095779098,
1,65,0,65,0,,,,,,,,,,,,,,,None,None,None,None,None,509.87645470001735,None,509.87645470001735,None,509.87645470001735,None,509.87645470001735,None,j,0.32447959994897246,509.87645470001735,None,509.87645470001735,None,510.24388410011306,None,510.24388410011306,None,510.24388410011306,None,510.24388410011306,None,510.24388410011306,None,510.24388410011306,None,510.5403336000163,None,510.5403336000163,None,512.5051756999455,None,512.5051756999455,None,512.5051756999455,None,512.5051756999455,None,512.5051756999455,None,512.5051756999455,None,512.5051756999455,None,512.5051756999455,None,512.5051756999455,None,35,30,40,52,52,20,515.0275695999153,None,3.0,0.7003534999676049,515.0275695999153,None,515.0275695999153,None,515.0275695999153,None,515.0275695999153,None,None,None,515.7439178000204,None,,,,,,,124,f,1,2022_Dec_12_1029,RL,2021.2.3,59.89193095779098,
1,66,0,66,0,,,,,,,,,,,,,,,None,None,None,None,None,517.3322155999485,None,517.3322155999485,None,517.3322155999485,None,517.3322155999485,None,i,0.45860869996249676,517.3322155999485,None,517.3322155999485,None,517.833486400079,None,517.833486400079,None,517.833486400079,None,517.833486400079,None,517.833486400079,None,517.833486400079,None,518.1290198001079,None,518.1290198001079,None,520.0646969999652,None,520.0646969999652,None,520.0646969999652,None,520.0646969999652,None,520.0646969999652,None,520.0646969999652,None,520.0646969999652,None,520.0646969999652,None,520.0646969999652,None,38,26,38,54,38,70,522.5785127999261,None,5.0,1.388184999814257,522.5785127999261,None,522.5785127999261,None,522.5785127999261,None,522.5785127999261,None,None,None,523.9824904000852,None,,,,,,,124,f,1,2022_Dec_12_1029,RL,2021.2.3,59.89193095779098,
1,67,0,67,0,,,,,,,,,,,,,,,None,None,None,None,None,525.5704332001042,None,525.5704332001042,None,525.5704332001042,None,525.5704332001042,None,j,0.32019750005565584,525.5704332001042,None,525.5704332001042,None,525.9420415000059,None,525.9420415000059,None,525.9420415000059,None,525.9420415000059,None,525.9420415000059,None,525.9420415000059,None,526.218271800084,527.5687373999972,526.218271800084,527.5687373999972,527.617510000011,None,527.617510000011,None,527.617510000011,None,527.617510000011,None,527.617510000011,None,527.617510000011,None,527.617510000011,None,527.617510000011,None,527.617510000011,None,40,34,37,54,54,57,530.1328909001313,None,5.0,1.003785999957472,530.1328909001313,None,530.1328909001313,None,530.1328909001313,None,530.1328909001313,None,None,None,531.1540207001381,None,,,,,,,124,f,1,2022_Dec_12_1029,RL,2021.2.3,59.89193095779098,
1,68,0,68,0,,,,,,,,,,,,,,,None,None,None,None,None,532.9087078999728,None,532.9087078999728,None,532.9087078999728,None,532.9087078999728,None,j,0.2722188998013735,532.9087078999728,None,532.9087078999728,None,533.2267813000362,None,533.2267813000362,None,533.2267813000362,None,533.2267813000362,None,533.2267813000362,None,533.2267813000362,None,533.5229120999575,None,533.5229120999575,None,535.4056651000865,None,535.4056651000865,None,535.4056651000865,None,535.4056651000865,None,535.4056651000865,None,535.4056651000865,None,535.4056651000865,None,535.4056651000865,None,535.4056651000865,None,40,30,39,49,49,55,537.9282589999493,None,4.0,1.0001250999048352,537.9282589999493,None,537.9282589999493,None,537.9282589999493,None,537.9282589999493,None,None,None,538.9519615999889,None,,,,,,,124,f,1,2022_Dec_12_1029,RL,2021.2.3,59.89193095779098,
1,69,0,69,0,,,,,,,,,,,,,,,None,None,None,None,None,540.4639626001008,None,540.4639626001008,None,540.4639626001008,None,540.4639626001008,None,j,0.32726529985666275,540.4639626001008,None,540.4639626001008,None,540.8325922999065,None,540.8325922999065,None,540.8325922999065,None,540.8325922999065,None,540.8325922999065,None,540.8325922999065,None,541.1282051999588,None,541.1282051999588,None,542.3086256999522,None,542.3086256999522,None,542.3086256999522,None,542.3086256999522,None,542.3086256999522,None,542.3086256999522,None,542.3086256999522,None,542.3086256999522,None,542.3086256999522,None,33,39,35,47,47,71,544.8320832999889,None,4.0,0.7015784999821335,544.8320832999889,None,544.8320832999889,None,544.8320832999889,None,544.8320832999889,None,None,None,545.547386799939,None,,,,,,,124,f,1,2022_Dec_12_1029,RL,2021.2.3,59.89193095779098,
1,70,0,70,0,,,,,,,,,,,,,,,None,None,None,None,None,547.5021701001097,None,547.5021701001097,None,547.5021701001097,None,547.5021701001097,None,r,0.2788245000410825,547.5021701001097,None,547.5021701001097,None,547.8308262999635,None,547.8308262999635,None,547.8308262999635,None,547.8308262999635,None,547.8308262999635,None,547.8308262999635,None,548.1164138000458,549.9677824000828,548.1164138000458,549.9677824000828,550.0012721999083,None,550.0012721999083,None,550.0012721999083,None,550.0012721999083,None,550.0012721999083,None,550.0012721999083,None,550.0012721999083,None,550.0012721999083,None,550.0012721999083,None,25,21,38,49,25,73,552.5163217000663,None,6.0,0.8028303000610322,552.5163217000663,None,552.5163217000663,None,552.5163217000663,None,552.5163217000663,None,None,None,553.3396990001202,None,,,,,,,124,f,1,2022_Dec_12_1029,RL,2021.2.3,59.89193095779098,
1,71,0,71,0,,,,,,,,,,,,,,,None,None,None,None,None,554.9574309999589,None,554.9574309999589,None,554.9574309999589,None,554.9574309999589,None,f,0.33343320013955235,554.9574309999589,None,554.9574309999589,None,555.3445989000611,None,555.3445989000611,None,555.3445989000611,None,555.3445989000611,None,555.3445989000611,None,555.3445989000611,None,555.6383460999932,None,555.6383460999932,None,557.185506900074,None,557.185506900074,None,557.185506900074,None,557.185506900074,None,557.185506900074,None,557.185506900074,None,557.185506900074,None,557.185506900074,None,557.185506900074,None,37,23,31,53,23,74,559.7015595000703,None,6.0,0.7066228999756277,559.7015595000703,None,559.7015595000703,None,559.7015595000703,None,559.7015595000703,None,None,None,560.4248359000776,None,,,,,,,124,f,1,2022_Dec_12_1029,RL,2021.2.3,59.89193095779098,
1,72,0,72,0,,,,,,,,,,,,,,,None,None,None,None,None,562.1625218999106,None,562.1625218999106,None,562.1625218999106,None,562.1625218999106,None,j,0.45850090007297695,562.1625218999106,None,562.1625218999106,None,562.6646133000031,None,562.6646133000031,None,562.6646133000031,None,562.6646133000031,None,562.6646133000031,None,562.6646133000031,None,562.960287099937,None,562.960287099937,None,564.1087484001182,None,564.1087484001182,None,564.1087484001182,None,564.1087484001182,None,564.1087484001182,None,564.1087484001182,None,564.1087484001182,None,564.1087484001182,None,564.1087484001182,None,32,31,42,53,53,60,566.6261233999394,None,4.0,1.6392095000483096,566.6261233999394,None,566.6261233999394,None,566.6261233999394,None,566.6261233999394,None,None,None,568.2799726999365,None,,,,,,,124,f,1,2022_Dec_12_1029,RL,2021.2.3,59.89193095779098,
1,73,0,73,0,,,,,,,,,,,,,,,None,None,None,None,None,570.1684087999165,None,570.1684087999165,None,570.1684087999165,None,570.1684087999165,None,i,0.38280120003037155,570.1684087999165,None,570.1684087999165,None,570.6054946999066,None,570.6054946999066,None,570.6054946999066,None,570.6054946999066,None,570.6054946999066,None,570.6054946999066,None,570.8988662001211,None,570.8988662001211,None,571.8828318000305,None,571.8828318000305,None,571.8828318000305,None,571.8828318000305,None,571.8828318000305,None,571.8828318000305,None,571.8828318000305,None,571.8828318000305,None,571.8828318000305,None,33,22,36,47,36,56,574.4040930999909,None,4.0,1.3999648001044989,574.4040930999909,None,574.4040930999909,None,574.4040930999909,None,574.4040930999909,None,None,None,575.818638100056,None,,,,,,,124,f,1,2022_Dec_12_1029,RL,2021.2.3,59.89193095779098,
1,74,0,74,0,,,,,,,,,,,,,,,None,None,None,None,None,577.42253109999,None,577.42253109999,None,577.42253109999,None,577.42253109999,None,j,0.36963650002144277,577.42253109999,None,577.42253109999,None,577.8423540999647,None,577.8423540999647,None,577.8423540999647,None,577.8423540999647,None,577.8423540999647,None,577.8423540999647,None,578.1372710000724,579.3545395999681,578.1372710000724,579.3545395999681,579.3853905000724,None,579.3853905000724,None,579.3853905000724,None,579.3853905000724,None,579.3853905000724,None,579.3853905000724,None,579.3853905000724,None,579.3853905000724,None,579.3853905000724,None,32,35,26,49,49,74,581.9032900000457,None,4.0,0.7379878999199718,581.9032900000457,None,581.9032900000457,None,581.9032900000457,None,581.9032900000457,None,None,None,582.6571265000384,None,,,,,,,124,f,1,2022_Dec_12_1029,RL,2021.2.3,59.89193095779098,
1,75,0,75,0,,,,,,,,,,,,,,,584.5416636001319,None,q,584.5416636001319,None,686.8814588000532,None,686.8814588000532,None,686.8814588000532,None,686.8814588000532,None,f,1.0763644000981003,686.8814588000532,None,686.8814588000532,None,688.0001540000085,None,688.0001540000085,None,688.0001540000085,None,688.0001540000085,None,688.0001540000085,None,688.0001540000085,None,688.2968719000928,None,688.2968719000928,None,690.0137217000592,None,690.0137217000592,None,690.0137217000592,None,690.0137217000592,None,690.0137217000592,None,690.0137217000592,None,690.0137217000592,None,690.0137217000592,None,690.0137217000592,None,33,31,42,37,31,74,692.5291041000746,None,5.0,0.7871752001810819,692.5291041000746,None,692.5291041000746,None,692.5291041000746,None,692.5291041000746,None,None,None,693.3381167000625,None,102.30899950000457,,,,,,124,f,1,2022_Dec_12_1029,RL,2021.2.3,59.89193095779098,
1,76,0,76,0,,,,,,,,,,,,,,,None,None,None,None,None,695.3384720999748,None,695.3384720999748,None,695.3384720999748,None,695.3384720999748,None,r,0.2892106999643147,695.3384720999748,None,695.3384720999748,None,695.6742499000393,None,695.6742499000393,None,695.6742499000393,None,695.6742499000393,None,695.6742499000393,None,695.6742499000393,None,695.9691652001347,None,695.9691652001347,None,697.4695395999588,None,697.4695395999588,None,697.4695395999588,None,697.4695395999588,None,697.4695395999588,None,697.4695395999588,None,697.4695395999588,None,697.4695395999588,None,697.4695395999588,None,32,27,37,37,32,53,699.9891117999796,None,5.0,0.6005048998631537,699.9891117999796,None,699.9891117999796,None,699.9891117999796,None,699.9891117999796,None,None,None,700.6050267999526,None,,,,,,,124,f,1,2022_Dec_12_1029,RL,2021.2.3,59.89193095779098,
1,77,0,77,0,,,,,,,,,,,,,,,None,None,None,None,None,702.3925989000127,None,702.3925989000127,None,702.3925989000127,None,702.3925989000127,None,i,0.43518720008432865,702.3925989000127,None,702.3925989000127,None,702.8800462000072,None,702.8800462000072,None,702.8800462000072,None,702.8800462000072,None,702.8800462000072,None,702.8800462000072,None,703.1738829000387,704.9582620000001,703.1738829000387,704.9582620000001,704.9919259999879,None,704.9919259999879,None,704.9919259999879,None,704.9919259999879,None,704.9919259999879,None,704.9919259999879,None,704.9919259999879,None,704.9919259999879,None,704.9919259999879,None,37,22,44,43,44,85,707.5167392999865,None,6.0,0.5148520001675934,707.5167392999865,None,707.5167392999865,None,707.5167392999865,None,707.5167392999865,None,None,None,708.0432400999125,None,,,,,,,124,f,1,2022_Dec_12_1029,RL,2021.2.3,59.89193095779098,
1,78,0,78,0,,,,,,,,,,,,,,,None,None,None,None,None,709.631159099983,None,709.631159099983,None,709.631159099983,None,709.631159099983,None,j,0.3866499001160264,709.631159099983,None,709.631159099983,None,710.0684626000002,None,710.0684626000002,None,710.0684626000002,None,710.0684626000002,None,710.0684626000002,None,710.0684626000002,None,710.3621988000814,None,710.3621988000814,None,711.7821776000783,None,711.7821776000783,None,711.7821776000783,None,711.7821776000783,None,711.7821776000783,None,711.7821776000783,None,711.7821776000783,None,711.7821776000783,None,711.7821776000783,None,26,9,47,41,41,38,714.2935596001334,None,4.0,0.8894815999083221,714.2935596001334,None,714.2935596001334,None,714.2935596001334,None,714.2935596001334,None,None,None,715.201264299918,None,,,,,,,124,f,1,2022_Dec_12_1029,RL,2021.2.3,59.89193095779098,
1,79,0,79,0,,,,,,,,,,,,,,,None,None,None,None,None,717.0367745999247,None,717.0367745999247,None,717.0367745999247,None,717.0367745999247,None,j,0.37097589997574687,717.0367745999247,None,717.0367745999247,None,717.4569268000778,None,717.4569268000778,None,717.4569268000778,None,717.4569268000778,None,717.4569268000778,None,717.4569268000778,None,717.7509669999126,None,717.7509669999126,None,719.1979505000636,None,719.1979505000636,None,719.1979505000636,None,719.1979505000636,None,719.1979505000636,None,719.1979505000636,None,719.1979505000636,None,719.1979505000636,None,719.1979505000636,None,35,17,44,40,40,88,721.7193460001145,None,6.0,1.1004039000254124,721.7193460001145,None,721.7193460001145,None,721.7193460001145,None,721.7193460001145,None,None,None,722.8370278999209,None,,,,,,,124,f,1,2022_Dec_12_1029,RL,2021.2.3,59.89193095779098,
1,80,0,80,0,,,,,,,,,,,,,,,None,None,None,None,None,724.7910488999914,None,724.7910488999914,None,724.7910488999914,None,724.7910488999914,None,f,0.6072176001034677,724.7910488999914,None,724.7910488999914,None,725.4448810000904,None,725.4448810000904,None,725.4448810000904,None,725.4448810000904,None,725.4448810000904,None,725.4448810000904,None,725.7395323999226,None,725.7395323999226,None,727.5735867000185,None,727.5735867000185,None,727.5735867000185,None,727.5735867000185,None,727.5735867000185,None,727.5735867000185,None,727.5735867000185,None,727.5735867000185,None,727.5735867000185,None,38,15,39,55,15,74,730.0942184999585,None,6.0,0.38244610000401735,730.0942184999585,None,730.0942184999585,None,730.0942184999585,None,730.0942184999585,None,None,None,730.492208099924,None,,,,,,,124,f,1,2022_Dec_12_1029,RL,2021.2.3,59.89193095779098,
1,81,0,81,0,,,,,,,,,,,,,,,None,None,None,None,None,732.029454600066,None,732.029454600066,None,732.029454600066,None,732.029454600066,None,i,0.3187149001751095,732.029454600066,None,732.029454600066,None,732.4016887999605,None,732.4016887999605,None,732.4016887999605,None,732.4016887999605,None,732.4016887999605,None,732.4016887999605,None,732.6942582000047,733.8116830000654,732.6942582000047,733.8116830000654,733.8455445000436,None,733.8455445000436,None,733.8455445000436,None,733.8455445000436,None,733.8455445000436,None,733.8455445000436,None,733.8455445000436,None,733.8455445000436,None,733.8455445000436,None,31,7,44,44,44,75,736.3610330999363,None,6.0,1.11934299999848,736.3610330999363,None,736.3610330999363,None,736.3610330999363,None,736.3610330999363,None,None,None,737.4976242999546,None,,,,,,,124,f,1,2022_Dec_12_1029,RL,2021.2.3,59.89193095779098,
1,82,0,82,0,,,,,,,,,,,,,,,None,None,None,None,None,739.201705200132,None,739.201705200132,None,739.201705200132,None,739.201705200132,None,j,0.386323600076139,739.201705200132,None,739.201705200132,None,739.6394277999643,None,739.6394277999643,None,739.6394277999643,None,739.6394277999643,None,739.6394277999643,None,739.6394277999643,None,739.9329216999467,None,739.9329216999467,None,741.1011159000918,None,741.1011159000918,None,741.1011159000918,None,741.1011159000918,None,741.1011159000918,None,741.1011159000918,None,741.1011159000918,None,741.1011159000918,None,741.1011159000918,None,28,10,46,50,50,40,743.613599000033,None,5.0,0.8715407999698073,743.613599000033,None,743.613599000033,None,743.613599000033,None,743.613599000033,None,None,None,744.5019278000109,None,,,,,,,124,f,1,2022_Dec_12_1029,RL,2021.2.3,59.89193095779098,
1,83,0,83,0,,,,,,,,,,,,,,,None,None,None,None,None,746.0233869000804,None,746.0233869000804,None,746.0233869000804,None,746.0233869000804,None,r,0.6448230999521911,746.0233869000804,None,746.0233869000804,None,746.7093533999287,None,746.7093533999287,None,746.7093533999287,None,746.7093533999287,None,746.7093533999287,None,746.7093533999287,None,747.0043971999548,None,747.0043971999548,None,748.43541679997,None,748.43541679997,None,748.43541679997,None,748.43541679997,None,748.43541679997,None,748.43541679997,None,748.43541679997,None,748.43541679997,None,748.43541679997,None,38,9,45,49,38,70,750.9562921000179,None,5.0,0.7718852998223156,750.9562921000179,None,750.9562921000179,None,750.9562921000179,None,750.9562921000179,None,None,None,751.7489022999071,None,,,,,,,124,f,1,2022_Dec_12_1029,RL,2021.2.3,59.89193095779098,
1,84,0,84,0,,,,,,,,,,,,,,,None,None,None,None,None,753.610581099987,None,753.610581099987,None,753.610581099987,None,753.610581099987,None,i,0.44775209994986653,753.610581099987,None,753.610581099987,None,754.0967443999834,None,754.0967443999834,None,754.0967443999834,None,754.0967443999834,None,754.0967443999834,None,754.0967443999834,None,754.3928002999164,755.5933987000026,754.3928002999164,755.5933987000026,755.6254692999646,None,755.6254692999646,None,755.6254692999646,None,755.6254692999646,None,755.6254692999646,None,755.6254692999646,None,755.6254692999646,None,755.6254692999646,None,755.6254692999646,None,27,6,48,42,48,43,758.1444087999407,None,5.0,0.9864874999038875,758.1444087999407,None,758.1444087999407,None,758.1444087999407,None,758.1444087999407,None,None,None,759.1464325999841,None,,,,,,,124,f,1,2022_Dec_12_1029,RL,2021.2.3,59.89193095779098,
1,85,0,85,0,,,,,,,,,,,,,,,None,None,None,None,None,760.7000945999753,None,760.7000945999753,None,760.7000945999753,None,760.7000945999753,None,f,0.5480341999791563,760.7000945999753,None,760.7000945999753,None,761.2873512001242,None,761.2873512001242,None,761.2873512001242,None,761.2873512001242,None,761.2873512001242,None,761.2873512001242,None,761.5810686000623,None,761.5810686000623,None,762.5984404999763,None,762.5984404999763,None,762.5984404999763,None,762.5984404999763,None,762.5984404999763,None,762.5984404999763,None,762.5984404999763,None,762.5984404999763,None,762.5984404999763,None,34,7,48,44,7,40,765.1134474000428,None,4.0,0.8382941999007016,765.1134474000428,None,765.1134474000428,None,765.1134474000428,None,765.1134474000428,None,None,None,765.966902300017,None,,,,,,,124,f,1,2022_Dec_12_1029,RL,2021.2.3,59.89193095779098,
1,86,0,86,0,,,,,,,,,,,,,,,None,None,None,None,None,767.8051229999401,None,767.8051229999401,None,767.8051229999401,None,767.8051229999401,None,j,0.2731081999372691,767.8051229999401,None,767.8051229999401,None,768.1239197999239,None,768.1239197999239,None,768.1239197999239,None,768.1239197999239,None,768.1239197999239,None,768.1239197999239,None,768.4191280999221,None,768.4191280999221,None,770.0655793999322,None,770.0655793999322,None,770.0655793999322,None,770.0655793999322,None,770.0655793999322,None,770.0655793999322,None,770.0655793999322,None,770.0655793999322,None,770.0655793999322,None,28,3,44,47,47,70,772.5889807001222,None,4.0,1.1837881000246853,772.5889807001222,None,772.5889807001222,None,772.5889807001222,None,772.5889807001222,None,None,None,773.7894212000538,None,,,,,,,124,f,1,2022_Dec_12_1029,RL,2021.2.3,59.89193095779098,
1,87,0,87,0,,,,,,,,,,,,,,,None,None,None,None,None,775.5108775000554,None,775.5108775000554,None,775.5108775000554,None,775.5108775000554,None,j,0.2870958000421524,775.5108775000554,None,775.5108775000554,None,775.8455401000101,None,775.8455401000101,None,775.8455401000101,None,775.8455401000101,None,775.8455401000101,None,775.8455401000101,None,776.1413318999112,777.4418768999167,776.1413318999112,777.4418768999167,777.4719412999693,None,777.4719412999693,None,777.4719412999693,None,777.4719412999693,None,777.4719412999693,None,777.4719412999693,None,777.4719412999693,None,777.4719412999693,None,777.4719412999693,None,22,6,59,33,33,75,779.9928921000101,None,4.0,0.886929800035432,779.9928921000101,None,779.9928921000101,None,779.9928921000101,None,779.9928921000101,None,None,None,780.8941800999455,None,,,,,,,124,f,1,2022_Dec_12_1029,RL,2021.2.3,59.89193095779098,
1,88,0,88,0,,,,,,,,,,,,,,,None,None,None,None,None,782.4985370000359,None,782.4985370000359,None,782.4985370000359,None,782.4985370000359,None,j,0.3508599998895079,782.4985370000359,None,782.4985370000359,None,782.8985003000125,None,782.8985003000125,None,782.8985003000125,None,782.8985003000125,None,782.8985003000125,None,782.8985003000125,None,783.1959959999658,784.1632123000454,783.1959959999658,784.1632123000454,784.1967879999429,None,784.1967879999429,None,784.1967879999429,None,784.1967879999429,None,784.1967879999429,None,784.1967879999429,None,784.1967879999429,None,784.1967879999429,None,784.1967879999429,None,42,13,59,31,31,39,786.7158210000489,None,4.0,0.735357099911198,786.7158210000489,None,786.7158210000489,None,786.7158210000489,None,786.7158210000489,None,None,None,787.4650791999884,None,,,,,,,124,f,1,2022_Dec_12_1029,RL,2021.2.3,59.89193095779098,
1,89,0,89,0,,,,,,,,,,,,,,,None,None,None,None,None,789.1862759999931,None,789.1862759999931,None,789.1862759999931,None,789.1862759999931,None,i,0.32309340010397136,789.1862759999931,None,789.1862759999931,None,789.5549383999314,None,789.5549383999314,None,789.5549383999314,None,789.5549383999314,None,789.5549383999314,None,789.5549383999314,None,789.850816299906,None,789.850816299906,None,791.3836024999619,None,791.3836024999619,None,791.3836024999619,None,791.3836024999619,None,791.3836024999619,None,791.3836024999619,None,791.3836024999619,None,791.3836024999619,None,791.3836024999619,None,28,19,59,34,59,61,793.9002432001289,None,4.0,1.021475300192833,793.9002432001289,None,793.9002432001289,None,793.9002432001289,None,793.9002432001289,None,None,None,794.947043000022,None,,,,,,,124,f,1,2022_Dec_12_1029,RL,2021.2.3,59.89193095779098,
1,90,0,90,0,,,,,,,,,,,,,,,None,None,None,None,None,796.5414394000545,None,796.5414394000545,None,796.5414394000545,None,796.5414394000545,None,i,0.9981425001751631,796.5414394000545,None,796.5414394000545,None,797.5768750000279,None,797.5768750000279,None,797.5768750000279,None,797.5768750000279,None,797.5768750000279,None,797.5768750000279,None,797.8729614999611,799.8240809000563,797.8729614999611,799.8240809000563,799.8539237000514,None,799.8539237000514,None,799.8539237000514,None,799.8539237000514,None,799.8539237000514,None,799.8539237000514,None,799.8539237000514,None,799.8539237000514,None,799.8539237000514,None,23,24,64,44,64,62,802.3749848001171,None,4.0,1.1044910000637174,802.3749848001171,None,802.3749848001171,None,802.3749848001171,None,802.3749848001171,None,None,None,803.4930855999701,None,,,,,,,124,f,1,2022_Dec_12_1029,RL,2021.2.3,59.89193095779098,
1,91,0,91,0,,,,,,,,,,,,,,,None,None,None,None,None,805.1306855999865,None,805.1306855999865,None,805.1306855999865,None,805.1306855999865,None,i,0.4189571999013424,805.1306855999865,None,805.1306855999865,None,805.6009947999846,None,805.6009947999846,None,805.6009947999846,None,805.6009947999846,None,805.6009947999846,None,805.6009947999846,None,805.8951081999112,806.8456437999848,805.8951081999112,806.8456437999848,806.8758418001235,None,806.8758418001235,None,806.8758418001235,None,806.8758418001235,None,806.8758418001235,None,806.8758418001235,None,806.8758418001235,None,806.8758418001235,None,806.8758418001235,None,30,29,62,35,62,63,809.393986799987,None,4.0,1.02177880005911,809.393986799987,None,809.393986799987,None,809.393986799987,None,809.393986799987,None,None,None,810.4309869999997,None,,,,,,,124,f,1,2022_Dec_12_1029,RL,2021.2.3,59.89193095779098,
1,92,0,92,0,,,,,,,,,,,,,,,None,None,None,None,None,812.0021347000729,None,812.0021347000729,None,812.0021347000729,None,812.0021347000729,None,i,0.40719850012101233,812.0021347000729,None,812.0021347000729,None,812.455035299994,None,812.455035299994,None,812.455035299994,None,812.455035299994,None,812.455035299994,None,812.455035299994,None,812.7499013999477,None,812.7499013999477,None,814.4476203999948,None,814.4476203999948,None,814.4476203999948,None,814.4476203999948,None,814.4476203999948,None,814.4476203999948,None,814.4476203999948,None,814.4476203999948,None,814.4476203999948,None,26,24,55,41,55,38,816.9636882001068,None,4.0,0.891746599925682,816.9636882001068,None,816.9636882001068,None,816.9636882001068,None,816.9636882001068,None,None,None,817.8704224000685,None,,,,,,,124,f,1,2022_Dec_12_1029,RL,2021.2.3,59.89193095779098,
1,93,0,93,0,,,,,,,,,,,,,,,None,None,None,None,None,819.8242131001316,None,819.8242131001316,None,819.8242131001316,None,819.8242131001316,None,i,0.6254853999707848,819.8242131001316,None,819.8242131001316,None,820.49649280007,None,820.49649280007,None,820.49649280007,None,820.49649280007,None,820.49649280007,None,820.49649280007,None,820.7887729001231,822.7398792000022,820.7887729001231,822.7398792000022,822.7720621000044,None,822.7720621000044,None,822.7720621000044,None,822.7720621000044,None,822.7720621000044,None,822.7720621000044,None,822.7720621000044,None,822.7720621000044,None,822.7720621000044,None,32,19,61,37,61,57,825.2881553999614,None,4.0,1.2069372001569718,825.2881553999614,None,825.2881553999614,None,825.2881553999614,None,825.2881553999614,None,None,None,826.5154488999397,None,,,,,,,124,f,1,2022_Dec_12_1029,RL,2021.2.3,59.89193095779098,
1,94,0,94,0,,,,,,,,,,,,,,,None,None,None,None,None,828.06350379996,None,828.06350379996,None,828.06350379996,None,828.06350379996,None,i,0.3061734000220895,828.06350379996,None,828.06350379996,None,828.4165360000916,None,828.4165360000916,None,828.4165360000916,None,828.4165360000916,None,828.4165360000916,None,828.4165360000916,None,828.7111830001231,None,828.7111830001231,None,829.9236880000681,None,829.9236880000681,None,829.9236880000681,None,829.9236880000681,None,829.9236880000681,None,829.9236880000681,None,829.9236880000681,None,829.9236880000681,None,829.9236880000681,None,31,22,60,37,60,61,832.4423853000626,None,4.0,0.5900091000366956,832.4423853000626,None,832.4423853000626,None,832.4423853000626,None,832.4423853000626,None,None,None,833.0466637001373,None,,,,,,,124,f,1,2022_Dec_12_1029,RL,2021.2.3,59.89193095779098,
1,95,0,95,0,,,,,,,,,,,,,,,None,None,None,None,None,834.7514700000174,None,834.7514700000174,None,834.7514700000174,None,834.7514700000174,None,i,0.2681181998923421,834.7514700000174,None,834.7514700000174,None,835.0687858001329,None,835.0687858001329,None,835.0687858001329,None,835.0687858001329,None,835.0687858001329,None,835.0687858001329,None,835.3656317000277,836.9500806999858,835.3656317000277,836.9500806999858,836.9818526001181,None,836.9818526001181,None,836.9818526001181,None,836.9818526001181,None,836.9818526001181,None,836.9818526001181,None,836.9818526001181,None,836.9818526001181,None,836.9818526001181,None,36,23,55,32,55,72,839.5030406999867,None,4.0,1.2340871999040246,839.5030406999867,None,839.5030406999867,None,839.5030406999867,None,839.5030406999867,None,None,None,840.7600569000933,None,,,,,,,124,f,1,2022_Dec_12_1029,RL,2021.2.3,59.89193095779098,
1,96,0,96,0,,,,,,,,,,,,,,,None,None,None,None,None,842.606646399945,None,842.606646399945,None,842.606646399945,None,842.606646399945,None,r,0.4630475000012666,842.606646399945,None,842.606646399945,None,843.1104500999209,None,843.1104500999209,None,843.1104500999209,None,843.1104500999209,None,843.1104500999209,None,843.1104500999209,None,843.4044820999261,845.1387267999817,843.4044820999261,845.1387267999817,845.1758785001002,None,845.1758785001002,None,845.1758785001002,None,845.1758785001002,None,845.1758785001002,None,845.1758785001002,None,845.1758785001002,None,845.1758785001002,None,845.1758785001002,None,32,24,56,25,32,63,847.7066709001083,None,5.0,0.6200937000103295,847.7066709001083,None,847.7066709001083,None,847.7066709001083,None,847.7066709001083,None,None,None,848.340703099966,None,,,,,,,124,f,1,2022_Dec_12_1029,RL,2021.2.3,59.89193095779098,
1,97,0,97,0,,,,,,,,,,,,,,,None,None,None,None,None,850.0117854001,None,850.0117854001,None,850.0117854001,None,850.0117854001,None,r,0.348410899983719,850.0117854001,None,850.0117854001,None,850.4188880000729,None,850.4188880000729,None,850.4188880000729,None,850.4188880000729,None,850.4188880000729,None,850.4188880000729,None,850.7095830000471,852.4273777999915,850.7095830000471,852.4273777999915,852.4562538000755,None,852.4562538000755,None,852.4562538000755,None,852.4562538000755,None,852.4562538000755,None,852.4562538000755,None,852.4562538000755,None,852.4562538000755,None,852.4562538000755,None,40,24,57,34,40,70,854.9743790999055,None,5.0,0.6704423001501709,854.9743790999055,None,854.9743790999055,None,854.9743790999055,None,854.9743790999055,None,None,None,855.6623992000241,None,,,,,,,124,f,1,2022_Dec_12_1029,RL,2021.2.3,59.89193095779098,
1,98,0,98,0,,,,,,,,,,,,,,,None,None,None,None,None,857.6338196001016,None,857.6338196001016,None,857.6338196001016,None,857.6338196001016,None,r,0.2758456999436021,857.6338196001016,None,857.6338196001016,None,857.953147900058,None,857.953147900058,None,857.953147900058,None,857.953147900058,None,857.953147900058,None,857.953147900058,None,858.2481037001126,None,858.2481037001126,None,859.7790397999343,None,859.7790397999343,None,859.7790397999343,None,859.7790397999343,None,859.7790397999343,None,859.7790397999343,None,859.7790397999343,None,859.7790397999343,None,859.7790397999343,None,30,11,53,32,30,72,862.2986719999462,None,5.0,0.47057730006054044,862.2986719999462,None,862.2986719999462,None,862.2986719999462,None,862.2986719999462,None,None,None,862.784011800075,None,,,,,,,124,f,1,2022_Dec_12_1029,RL,2021.2.3,59.89193095779098,
1,99,0,99,0,,,,,,,,,,,,,,,None,None,None,None,None,864.5388140999712,None,864.5388140999712,None,864.5388140999712,None,864.5388140999712,None,r,0.7910083001479506,864.5388140999712,None,864.5388140999712,None,865.3755385999102,None,865.3755385999102,None,865.3755385999102,None,865.3755385999102,None,865.3755385999102,None,865.3755385999102,None,865.6531432999764,866.7538376001175,865.6531432999764,866.7538376001175,866.805478699971,None,866.805478699971,None,866.805478699971,None,866.805478699971,None,866.805478699971,None,866.805478699971,None,866.805478699971,None,866.805478699971,None,866.805478699971,None,37,15,60,36,37,71,869.3188456001226,None,5.0,0.6229753000661731,869.3188456001226,None,869.3188456001226,None,869.3188456001226,None,869.3188456001226,None,None,None,869.9558049999177,None,,,,,,,124,f,1,2022_Dec_12_1029,RL,2021.2.3,59.89193095779098,
1,100,0,100,0,,,,,,,,,,,,,,,None,None,None,None,None,871.7763116999995,None,871.7763116999995,None,871.7763116999995,None,871.7763116999995,None,f,0.3134625998791307,871.7763116999995,None,871.7763116999995,None,872.1322622001171,None,872.1322622001171,None,872.1322622001171,None,872.1322622001171,None,872.1322622001171,None,872.1322622001171,None,872.4245279000606,873.9087539999746,872.4245279000606,873.9087539999746,873.94542130013,None,873.94542130013,None,873.94542130013,None,873.94542130013,None,873.94542130013,None,873.94542130013,None,873.94542130013,None,873.94542130013,None,873.94542130013,None,34,22,62,29,22,76,876.4542260000017,None,5.0,0.639170499984175,876.4542260000017,None,876.4542260000017,None,876.4542260000017,None,876.4542260000017,None,None,None,877.111397099914,None,,,,,,,124,f,1,2022_Dec_12_1029,RL,2021.2.3,59.89193095779098,
1,101,0,101,0,,,,,,,,,,,,,,,None,None,None,None,None,878.8155571001116,None,878.8155571001116,None,878.8155571001116,None,878.8155571001116,None,f,0.37442400003783405,878.8155571001116,None,878.8155571001116,None,879.2381106999237,None,879.2381106999237,None,879.2381106999237,None,879.2381106999237,None,879.2381106999237,None,879.2381106999237,None,879.5303025001194,None,879.5303025001194,None,880.7644786001183,None,880.7644786001183,None,880.7644786001183,None,880.7644786001183,None,880.7644786001183,None,880.7644786001183,None,880.7644786001183,None,880.7644786001183,None,880.7644786001183,None,45,13,60,40,13,70,883.2830203999765,None,5.0,0.784730700077489,883.2830203999765,None,883.2830203999765,None,883.2830203999765,None,883.2830203999765,None,None,None,884.0822246000171,None,,,,,,,124,f,1,2022_Dec_12_1029,RL,2021.2.3,59.89193095779098,
1,102,0,102,0,,,,,,,,,,,,,,,None,None,None,None,None,885.8529284000397,None,885.8529284000397,None,885.8529284000397,None,885.8529284000397,None,i,0.25696490006521344,885.8529284000397,None,885.8529284000397,None,886.1574256999884,None,886.1574256999884,None,886.1574256999884,None,886.1574256999884,None,886.1574256999884,None,886.1574256999884,None,886.4510228000581,None,886.4510228000581,None,887.3685496000107,None,887.3685496000107,None,887.3685496000107,None,887.3685496000107,None,887.3685496000107,None,887.3685496000107,None,887.3685496000107,None,887.3685496000107,None,887.3685496000107,None,47,13,55,36,55,58,889.8837421999779,None,5.0,1.0060526998713613,889.8837421999779,None,889.8837421999779,None,889.8837421999779,None,889.8837421999779,None,None,None,890.9064235000405,None,,,,,,,124,f,1,2022_Dec_12_1029,RL,2021.2.3,59.89193095779098,
1,103,0,103,0,,,,,,,,,,,,,,,None,None,None,None,None,892.8081960000563,None,892.8081960000563,None,892.8081960000563,None,892.8081960000563,None,i,0.2917832999955863,892.8081960000563,None,892.8081960000563,None,893.1448208000511,None,893.1448208000511,None,893.1448208000511,None,893.1448208000511,None,893.1448208000511,None,893.1448208000511,None,893.4390456001274,894.8232488001231,893.4390456001274,894.8232488001231,894.8564961999655,None,894.8564961999655,None,894.8564961999655,None,894.8564961999655,None,894.8564961999655,None,894.8564961999655,None,894.8564961999655,None,894.8564961999655,None,894.8564961999655,None,34,9,55,40,55,51,897.3721668000799,None,5.0,0.4232174998614937,897.3721668000799,None,897.3721668000799,None,897.3721668000799,None,897.3721668000799,None,None,None,897.809701200109,None,,,,,,,124,f,1,2022_Dec_12_1029,RL,2021.2.3,59.89193095779098,
1,104,0,104,0,,,,,,,,,,,,,,,None,None,None,None,None,899.7633229999337,None,899.7633229999337,None,899.7633229999337,None,899.7633229999337,None,i,0.2767463999334723,899.7633229999337,None,899.7633229999337,None,900.0811862999108,None,900.0811862999108,None,900.0811862999108,None,900.0811862999108,None,900.0811862999108,None,900.0811862999108,None,900.3773217999842,None,900.3773217999842,None,901.6279820001218,None,901.6279820001218,None,901.6279820001218,None,901.6279820001218,None,901.6279820001218,None,901.6279820001218,None,901.6279820001218,None,901.6279820001218,None,901.6279820001218,None,37,14,64,35,64,72,904.1424610000104,None,5.0,0.93792669987306,904.1424610000104,None,904.1424610000104,None,904.1424610000104,None,904.1424610000104,None,None,None,905.0974196000025,None,,,,,,,124,f,1,2022_Dec_12_1029,RL,2021.2.3,59.89193095779098,
1,105,0,105,0,,,,,,,,,,,,,,,None,None,None,None,None,907.0511944000609,None,907.0511944000609,None,907.0511944000609,None,907.0511944000609,None,i,0.27886370010674,907.0511944000609,None,907.0511944000609,None,907.3696451000869,None,907.3696451000869,None,907.3696451000869,None,907.3696451000869,None,907.3696451000869,None,907.3696451000869,None,907.6659417999908,None,907.6659417999908,None,908.7957242999692,None,908.7957242999692,None,908.7957242999692,None,908.7957242999692,None,908.7957242999692,None,908.7957242999692,None,908.7957242999692,None,908.7957242999692,None,908.7957242999692,None,32,15,60,28,60,71,911.3129211000632,None,5.0,0.5380170999560505,911.3129211000632,None,911.3129211000632,None,911.3129211000632,None,911.3129211000632,None,None,None,911.8742511000019,None,,,,,,,124,f,1,2022_Dec_12_1029,RL,2021.2.3,59.89193095779098,
1,106,0,106,0,,,,,,,,,,,,,,,None,None,None,None,None,913.4727730001323,None,913.4727730001323,None,913.4727730001323,None,913.4727730001323,None,i,0.3071186998859048,913.4727730001323,None,913.4727730001323,None,913.8250122000463,None,913.8250122000463,None,913.8250122000463,None,913.8250122000463,None,913.8250122000463,None,913.8250122000463,None,914.1200711000711,None,914.1200711000711,None,915.6508695001248,None,915.6508695001248,None,915.6508695001248,None,915.6508695001248,None,915.6508695001248,None,915.6508695001248,None,915.6508695001248,None,915.6508695001248,None,915.6508695001248,None,27,23,46,32,46,68,918.1697822001297,None,5.0,0.4549876998644322,918.1697822001297,None,918.1697822001297,None,918.1697822001297,None,918.1697822001297,None,None,None,918.6440419000573,None,,,,,,,124,f,1,2022_Dec_12_1029,RL,2021.2.3,59.89193095779098,
1,107,0,107,0,,,,,,,,,,,,,,,None,None,None,None,None,920.4945583001245,None,920.4945583001245,None,920.4945583001245,None,920.4945583001245,None,i,0.30530060012824833,920.4945583001245,None,920.4945583001245,None,920.8487112000585,None,920.8487112000585,None,920.8487112000585,None,920.8487112000585,None,920.8487112000585,None,920.8487112000585,None,921.1249460000545,922.9260670000222,921.1249460000545,922.9260670000222,922.9739844000433,None,922.9739844000433,None,922.9739844000433,None,922.9739844000433,None,922.9739844000433,None,922.9739844000433,None,922.9739844000433,None,922.9739844000433,None,922.9739844000433,None,25,15,52,39,52,60,925.4905992001295,None,5.0,0.656391599914059,925.4905992001295,None,925.4905992001295,None,925.4905992001295,None,925.4905992001295,None,None,None,926.161223199917,None,,,,,,,124,f,1,2022_Dec_12_1029,RL,2021.2.3,59.89193095779098,
1,108,0,108,0,,,,,,,,,,,,,,,None,None,None,None,None,928.1495262999088,None,928.1495262999088,None,928.1495262999088,None,928.1495262999088,None,i,0.5202562999911606,928.1495262999088,None,928.1495262999088,None,928.7168143999297,None,928.7168143999297,None,928.7168143999297,None,928.7168143999297,None,928.7168143999297,None,928.7168143999297,None,929.0137966000475,None,929.0137966000475,None,930.7134477000218,None,930.7134477000218,None,930.7134477000218,None,930.7134477000218,None,930.7134477000218,None,930.7134477000218,None,930.7134477000218,None,930.7134477000218,None,930.7134477000218,None,31,17,53,35,53,70,933.2383429999463,None,5.0,0.4637577999383211,933.2383429999463,None,933.2383429999463,None,933.2383429999463,None,933.2383429999463,None,None,None,933.7167267999612,None,,,,,,,124,f,1,2022_Dec_12_1029,RL,2021.2.3,59.89193095779098,
1,109,0,109,0,,,,,,,,,,,,,,,None,None,None,None,None,935.7046372001059,None,935.7046372001059,None,935.7046372001059,None,935.7046372001059,None,i,0.3261243999004364,935.7046372001059,None,935.7046372001059,None,936.0793419000693,None,936.0793419000693,None,936.0793419000693,None,936.0793419000693,None,936.0793419000693,None,936.0793419000693,None,936.3688542000018,None,936.3688542000018,None,937.751812200062,None,937.751812200062,None,937.751812200062,None,937.751812200062,None,937.751812200062,None,937.751812200062,None,937.751812200062,None,937.751812200062,None,937.751812200062,None,29,21,50,23,50,33,940.2761214999482,None,5.0,0.7165677999146283,940.2761214999482,None,940.2761214999482,None,940.2761214999482,None,940.2761214999482,None,None,None,941.0051321000792,None,,,,,,,124,f,1,2022_Dec_12_1029,RL,2021.2.3,59.89193095779098,
1,110,0,110,0,,,,,,,,,,,,,,,None,None,None,None,None,942.5427631000057,None,942.5427631000057,None,942.5427631000057,None,942.5427631000057,None,i,0.27752629993483424,942.5427631000057,None,942.5427631000057,None,942.8615955999121,None,942.8615955999121,None,942.8615955999121,None,942.8615955999121,None,942.8615955999121,None,942.8615955999121,None,943.1568329001311,944.2408829000778,943.1568329001311,944.2408829000778,944.2767006999347,None,944.2767006999347,None,944.2767006999347,None,944.2767006999347,None,944.2767006999347,None,944.2767006999347,None,944.2767006999347,None,944.2767006999347,None,944.2767006999347,None,47,17,49,31,49,48,946.7886163999792,None,5.0,0.6561064999550581,946.7886163999792,None,946.7886163999792,None,946.7886163999792,None,946.7886163999792,None,None,None,947.4592731001321,None,,,,,,,124,f,1,2022_Dec_12_1029,RL,2021.2.3,59.89193095779098,
1,111,0,111,0,,,,,,,,,,,,,,,None,None,None,None,None,949.3471860000864,None,949.3471860000864,None,949.3471860000864,None,949.3471860000864,None,i,0.34405539999715984,949.3471860000864,None,949.3471860000864,None,949.7372731999494,None,949.7372731999494,None,949.7372731999494,None,949.7372731999494,None,949.7372731999494,None,949.7372731999494,None,950.0283709000796,951.5461820999626,950.0283709000796,951.5461820999626,951.5770519999787,None,951.5770519999787,None,951.5770519999787,None,951.5770519999787,None,951.5770519999787,None,951.5770519999787,None,951.5770519999787,None,951.5770519999787,None,951.5770519999787,None,39,24,58,44,58,49,954.0933433000464,None,4.0,0.5725807000417262,954.0933433000464,None,954.0933433000464,None,954.0933433000464,None,954.0933433000464,None,None,None,954.68087869999,None,,,,,,,124,f,1,2022_Dec_12_1029,RL,2021.2.3,59.89193095779098,
