bandit,trials.thisRepN,trials.thisTrialN,trials.thisN,trials.thisIndex,instru_img1.started,instru_img1.stopped,instru_resp.keys,instru_resp.rt,instru_resp.started,instru_resp.stopped,instru_img2.started,instru_img2.stopped,instru_resp2.keys,instru_resp2.rt,instru_resp2.started,instru_resp2.stopped,fixbefore_2.started,fixbefore_2.stopped,rest_image.started,rest_image.stopped,rest_response.keys,rest_response.started,rest_response.stopped,red.started,red.stopped,green.started,green.stopped,yellow.started,yellow.stopped,blue.started,blue.stopped,choose_bandit.keys,choose_bandit.rt,choose_bandit.started,choose_bandit.stopped,Fixation.started,Fixation.stopped,black.started,black.stopped,red_2.started,red_2.stopped,green_2.started,green_2.stopped,yellow_2.started,yellow_2.stopped,blue_2.started,blue_2.stopped,fixation_2.started,fixation_2.stopped,docs.started,docs.stopped,image_2.started,image_2.stopped,black_com.started,black_com.stopped,reward_sub.started,reward_sub.stopped,palyerb.started,palyerb.stopped,reward__sub.started,reward__sub.stopped,compare.started,compare.stopped,red_compare.started,red_compare.stopped,green_com.started,green_com.stopped,yellow_com.started,yellow_com.stopped,blue_com.started,blue_com.stopped,rewardyellow,rewardred,rewardblue,rewardgreen,subchoose,playerb,image_3.started,image_3.stopped,slider.response,slider.rt,slider.started,slider.stopped,text.started,text.stopped,image_4.started,image_4.stopped,image_5.started,image_5.stopped,bigx.started,bigx.stopped,intertrialfix.started,intertrialfix.stopped,rest_response.rt,image.started,image.stopped,key_resp.keys,key_resp.started,key_resp.stopped,participant,Gender,Age,date,expName,psychopyVersion,frameRate,
,,,,,2284.6894261999987,None,space,66.97173430002294,2284.6894261999987,None,,,,,,,,,,,,,,,,,,,,,,,,,,,,,,,,,,,,,,,,,,,,,,,,,,,,,,,,,,,,,,,,,,,,,,,,,,,,,,,,,,,,,,,,,,126,m,21,2022_Dec_12_1142,RL,2021.2.3,59.87475402563238,
,,,,,,,,,,,2351.678945899941,None,space,83.40238250000402,2351.678945899941,None,,,,,,,,,,,,,,,,,,,,,,,,,,,,,,,,,,,,,,,,,,,,,,,,,,,,,,,,,,,,,,,,,,,,,,,,,,,,,,,,,,,,126,m,21,2022_Dec_12_1142,RL,2021.2.3,59.87475402563238,
1,0,0,0,0,,,,,,,,,,,,,2435.112855799962,None,None,None,None,None,None,2436.138113199966,None,2436.138113199966,None,2436.138113199966,None,2436.138113199966,None,r,0.2603438999503851,2436.138113199966,None,2436.138113199966,None,2436.4507526999805,None,2436.4507526999805,None,2436.4507526999805,None,2436.4507526999805,None,2436.4507526999805,None,2436.4507526999805,None,2436.735953899799,2437.9367874998134,2436.735953899799,2437.9367874998134,2437.994589400012,None,2437.994589400012,None,2437.994589400012,None,2437.994589400012,None,2437.994589400012,None,2437.994589400012,None,2437.994589400012,None,2437.994589400012,None,2437.994589400012,None,36,64,43,58,36,42,2440.5193041998427,None,6.0,3.064724799944088,2440.5193041998427,None,2440.5193041998427,None,2440.5193041998427,None,2440.5193041998427,None,None,None,2443.6152570999693,None,,,,,,,126,m,21,2022_Dec_12_1142,RL,2021.2.3,59.87475402563238,
1,1,0,1,0,,,,,,,,,,,,,,,None,None,None,None,None,2445.51160359988,None,2445.51160359988,None,2445.51160359988,None,2445.51160359988,None,r,0.606815799837932,2445.51160359988,None,2445.51160359988,None,2446.1673588999547,None,2446.1673588999547,None,2446.1673588999547,None,2446.1673588999547,None,2446.1673588999547,None,2446.1673588999547,None,2446.4593441998586,None,2446.4593441998586,None,2448.157978300005,None,2448.157978300005,None,2448.157978300005,None,2448.157978300005,None,2448.157978300005,None,2448.157978300005,None,2448.157978300005,None,2448.157978300005,None,2448.157978300005,None,41,67,40,65,41,48,2450.6746342999395,None,4.0,1.822639900026843,2450.6746342999395,None,2450.6746342999395,None,2450.6746342999395,None,2450.6746342999395,None,None,None,2452.512897199951,None,,,,,,,126,m,21,2022_Dec_12_1142,RL,2021.2.3,59.87475402563238,
1,2,0,2,0,,,,,,,,,,,,,,,None,None,None,None,None,2454.434548499994,None,2454.434548499994,None,2454.434548499994,None,2454.434548499994,None,r,0.3838724000379443,2454.434548499994,None,2454.434548499994,None,2454.8731676999014,None,2454.8731676999014,None,2454.8731676999014,None,2454.8731676999014,None,2454.8731676999014,None,2454.8731676999014,None,2455.165621599881,2456.8664425997995,2455.165621599881,2456.8664425997995,2456.9034102000296,None,2456.9034102000296,None,2456.9034102000296,None,2456.9034102000296,None,2456.9034102000296,None,2456.9034102000296,None,2456.9034102000296,None,2456.9034102000296,None,2456.9034102000296,None,37,57,40,56,37,37,2459.4310979000293,None,4.0,1.721482900204137,2459.4310979000293,None,2459.4310979000293,None,2459.4310979000293,None,2459.4310979000293,None,None,None,2461.168977199821,None,,,,,,,126,m,21,2022_Dec_12_1142,RL,2021.2.3,59.87475402563238,
1,3,0,3,0,,,,,,,,,,,,,,,None,None,None,None,None,2462.823750899872,None,2462.823750899872,None,2462.823750899872,None,2462.823750899872,None,i,1.234805200016126,2462.823750899872,None,2462.823750899872,None,2464.1125048999675,None,2464.1125048999675,None,2464.1125048999675,None,2464.1125048999675,None,2464.1125048999675,None,2464.1125048999675,None,2464.388515400002,2465.6391113998834,2464.388515400002,2465.6391113998834,2465.6901620000135,None,2465.6901620000135,None,2465.6901620000135,None,2465.6901620000135,None,2465.6901620000135,None,2465.6901620000135,None,2465.6901620000135,None,2465.6901620000135,None,2465.6901620000135,None,30,68,52,63,52,35,2468.2117424998432,None,4.0,1.0326968999579549,2468.2117424998432,None,2468.2117424998432,None,2468.2117424998432,None,2468.2117424998432,None,None,None,2469.2600252998527,None,,,,,,,126,m,21,2022_Dec_12_1142,RL,2021.2.3,59.87475402563238,
1,4,0,4,0,,,,,,,,,,,,,,,None,None,None,None,None,2471.1960560998414,None,2471.1960560998414,None,2471.1960560998414,None,2471.1960560998414,None,j,0.8925498998723924,2471.1960560998414,None,2471.1960560998414,None,2472.1336395000108,None,2472.1336395000108,None,2472.1336395000108,None,2472.1336395000108,None,2472.1336395000108,None,2472.1336395000108,None,2472.427383299917,None,2472.427383299917,None,2473.829211199889,None,2473.829211199889,None,2473.829211199889,None,2473.829211199889,None,2473.829211199889,None,2473.829211199889,None,2473.829211199889,None,2473.829211199889,None,2473.829211199889,None,42,55,49,66,66,47,2476.3451157999225,None,4.0,0.9705134001560509,2476.3451157999225,None,2476.3451157999225,None,2476.3451157999225,None,2476.3451157999225,None,None,None,2477.3311440998223,None,,,,,,,126,m,21,2022_Dec_12_1142,RL,2021.2.3,59.87475402563238,
1,5,0,5,0,,,,,,,,,,,,,,,None,None,None,None,None,2478.9516515999567,None,2478.9516515999567,None,2478.9516515999567,None,2478.9516515999567,None,r,0.3469359001610428,2478.9516515999567,None,2478.9516515999567,None,2479.338387399912,None,2479.338387399912,None,2479.338387399912,None,2479.338387399912,None,2479.338387399912,None,2479.338387399912,None,2479.6159516999032,2480.966507199919,2479.6159516999032,2480.966507199919,2481.015091399895,None,2481.015091399895,None,2481.015091399895,None,2481.015091399895,None,2481.015091399895,None,2481.015091399895,None,2481.015091399895,None,2481.015091399895,None,2481.015091399895,None,47,52,39,74,47,66,2483.531931299949,None,4.0,1.169941500062123,2483.531931299949,None,2483.531931299949,None,2483.531931299949,None,2483.531931299949,None,None,None,2484.719058800023,None,,,,,,,126,m,21,2022_Dec_12_1142,RL,2021.2.3,59.87475402563238,
1,6,0,6,0,,,,,,,,,,,,,,,None,None,None,None,None,2486.5062092000153,None,2486.5062092000153,None,2486.5062092000153,None,2486.5062092000153,None,f,0.4721210999414325,2486.5062092000153,None,2486.5062092000153,None,2487.024993599858,None,2487.024993599858,None,2487.024993599858,None,2487.024993599858,None,2487.024993599858,None,2487.024993599858,None,2487.3210655997973,None,2487.3210655997973,None,2489.23471400002,None,2489.23471400002,None,2489.23471400002,None,2489.23471400002,None,2489.23471400002,None,2489.23471400002,None,2489.23471400002,None,2489.23471400002,None,2489.23471400002,None,42,56,43,69,56,42,2491.7535092998296,None,4.0,0.987811499973759,2491.7535092998296,None,2491.7535092998296,None,2491.7535092998296,None,2491.7535092998296,None,None,None,2492.7577297999524,None,,,,,,,126,m,21,2022_Dec_12_1142,RL,2021.2.3,59.87475402563238,
1,7,0,7,0,,,,,,,,,,,,,,,None,None,None,None,None,2494.4448708000127,None,2494.4448708000127,None,2494.4448708000127,None,2494.4448708000127,None,i,0.4134382999036461,2494.4448708000127,None,2494.4448708000127,None,2494.898595099803,None,2494.898595099803,None,2494.898595099803,None,2494.898595099803,None,2494.898595099803,None,2494.898595099803,None,2495.1932331998833,None,2495.1932331998833,None,2496.2730016999412,None,2496.2730016999412,None,2496.2730016999412,None,2496.2730016999412,None,2496.2730016999412,None,2496.2730016999412,None,2496.2730016999412,None,2496.2730016999412,None,2496.2730016999412,None,46,60,43,63,43,58,2498.7909862999804,None,4.0,1.6588749999646097,2498.7909862999804,None,2498.7909862999804,None,2498.7909862999804,None,2498.7909862999804,None,None,None,2500.4716596999206,None,,,,,,,126,m,21,2022_Dec_12_1142,RL,2021.2.3,59.87475402563238,
1,8,0,8,0,,,,,,,,,,,,,,,None,None,None,None,None,2502.468581199879,None,2502.468581199879,None,2502.468581199879,None,2502.468581199879,None,i,0.39109569997526705,2502.468581199879,None,2502.468581199879,None,2502.904128999915,None,2502.904128999915,None,2502.904128999915,None,2502.904128999915,None,2502.904128999915,None,2502.904128999915,None,2503.198822799837,None,2503.198822799837,None,2504.247352299979,None,2504.247352299979,None,2504.247352299979,None,2504.247352299979,None,2504.247352299979,None,2504.247352299979,None,2504.247352299979,None,2504.247352299979,None,2504.247352299979,None,49,59,47,54,47,50,2506.768788699992,None,4.0,1.15182189992629,2506.768788699992,None,2506.768788699992,None,2506.768788699992,None,2506.768788699992,None,None,None,2507.9383555999957,None,,,,,,,126,m,21,2022_Dec_12_1142,RL,2021.2.3,59.87475402563238,
1,9,0,9,0,,,,,,,,,,,,,,,None,None,None,None,None,2509.7393018999137,None,2509.7393018999137,None,2509.7393018999137,None,2509.7393018999137,None,j,0.47016140003688633,2509.7393018999137,None,2509.7393018999137,None,2510.2608759999275,None,2510.2608759999275,None,2510.2608759999275,None,2510.2608759999275,None,2510.2608759999275,None,2510.2608759999275,None,2510.5539300998207,None,2510.5539300998207,None,2512.3013273999095,None,2512.3013273999095,None,2512.3013273999095,None,2512.3013273999095,None,2512.3013273999095,None,2512.3013273999095,None,2512.3013273999095,None,2512.3013273999095,None,2512.3013273999095,None,45,54,43,61,61,51,2514.8193484998774,None,4.0,0.5539316998329014,2514.8193484998774,None,2514.8193484998774,None,2514.8193484998774,None,2514.8193484998774,None,None,None,2515.3899530000053,None,,,,,,,126,m,21,2022_Dec_12_1142,RL,2021.2.3,59.87475402563238,
1,10,0,10,0,,,,,,,,,,,,,,,None,None,None,None,None,2517.0943836998194,None,2517.0943836998194,None,2517.0943836998194,None,2517.0943836998194,None,j,0.3253761001396924,2517.0943836998194,None,2517.0943836998194,None,2517.472010300029,None,2517.472010300029,None,2517.472010300029,None,2517.472010300029,None,2517.472010300029,None,2517.472010300029,None,2517.7589939997997,None,2517.7589939997997,None,2518.972612199839,None,2518.972612199839,None,2518.972612199839,None,2518.972612199839,None,2518.972612199839,None,2518.972612199839,None,2518.972612199839,None,2518.972612199839,None,2518.972612199839,None,39,61,38,52,52,53,2521.489840899827,None,4.0,0.7897635998670012,2521.489840899827,None,2521.489840899827,None,2521.489840899827,None,2521.489840899827,None,None,None,2522.3047060000245,None,,,,,,,126,m,21,2022_Dec_12_1142,RL,2021.2.3,59.87475402563238,
1,11,0,11,0,,,,,,,,,,,,,,,None,None,None,None,None,2524.0994603999425,None,2524.0994603999425,None,2524.0994603999425,None,2524.0994603999425,None,r,0.4305323001462966,2524.0994603999425,None,2524.0994603999425,None,2524.571134199854,None,2524.571134199854,None,2524.571134199854,None,2524.571134199854,None,2524.571134199854,None,2524.571134199854,None,2524.863722299924,None,2524.863722299924,None,2526.1944958998356,None,2526.1944958998356,None,2526.1944958998356,None,2526.1944958998356,None,2526.1944958998356,None,2526.1944958998356,None,2526.1944958998356,None,2526.1944958998356,None,2526.1944958998356,None,44,53,50,57,44,54,2528.713602299802,None,4.0,0.5194862999487668,2528.713602299802,None,2528.713602299802,None,2528.713602299802,None,2528.713602299802,None,None,None,2529.251151899807,None,,,,,,,126,m,21,2022_Dec_12_1142,RL,2021.2.3,59.87475402563238,
1,12,0,12,0,,,,,,,,,,,,,,,None,None,None,None,None,2531.1205952998716,None,2531.1205952998716,None,2531.1205952998716,None,2531.1205952998716,None,j,0.6292323002126068,2531.1205952998716,None,2531.1205952998716,None,2531.78926209989,None,2531.78926209989,None,2531.78926209989,None,2531.78926209989,None,2531.78926209989,None,2531.78926209989,None,2532.0853344998322,None,2532.0853344998322,None,2533.099070499884,None,2533.099070499884,None,2533.099070499884,None,2533.099070499884,None,2533.099070499884,None,2533.099070499884,None,2533.099070499884,None,2533.099070499884,None,2533.099070499884,None,38,58,39,55,55,35,2535.6166949998587,None,4.0,0.5386531001422554,2535.6166949998587,None,2535.6166949998587,None,2535.6166949998587,None,2535.6166949998587,None,None,None,2536.1761093998794,None,,,,,,,126,m,21,2022_Dec_12_1142,RL,2021.2.3,59.87475402563238,
1,13,0,13,0,,,,,,,,,,,,,,,None,None,None,None,None,2537.8754725998733,None,2537.8754725998733,None,2537.8754725998733,None,2537.8754725998733,None,j,0.3842271000612527,2537.8754725998733,None,2537.8754725998733,None,2538.3124809998553,None,2538.3124809998553,None,2538.3124809998553,None,2538.3124809998553,None,2538.3124809998553,None,2538.3124809998553,None,2538.5898730999324,2540.1574333999306,2538.5898730999324,2540.1574333999306,2540.192033499945,None,2540.192033499945,None,2540.192033499945,None,2540.192033499945,None,2540.192033499945,None,2540.192033499945,None,2540.192033499945,None,2540.192033499945,None,2540.192033499945,None,38,63,45,57,57,48,2542.7051261998713,None,4.0,0.604174799984321,2542.7051261998713,None,2542.7051261998713,None,2542.7051261998713,None,2542.7051261998713,None,None,None,2543.325987299904,None,,,,,,,126,m,21,2022_Dec_12_1142,RL,2021.2.3,59.87475402563238,
1,14,0,14,0,,,,,,,,,,,,,,,None,None,None,None,None,2544.946925899945,None,2544.946925899945,None,2544.946925899945,None,2544.946925899945,None,j,0.6028003999963403,2544.946925899945,None,2544.946925899945,None,2545.6003115000203,None,2545.6003115000203,None,2545.6003115000203,None,2545.6003115000203,None,2545.6003115000203,None,2545.6003115000203,None,2545.8949715998024,None,2545.8949715998024,None,2547.2072154998314,None,2547.2072154998314,None,2547.2072154998314,None,2547.2072154998314,None,2547.2072154998314,None,2547.2072154998314,None,2547.2072154998314,None,2547.2072154998314,None,2547.2072154998314,None,28,61,43,64,64,48,2549.7293304998893,None,4.0,0.5031787999905646,2549.7293304998893,None,2549.7293304998893,None,2549.7293304998893,None,2549.7293304998893,None,None,None,2550.25430879998,None,,,,,,,126,m,21,2022_Dec_12_1142,RL,2021.2.3,59.87475402563238,
1,15,0,15,0,,,,,,,,,,,,,,,None,None,None,None,None,2552.1186092998832,None,2552.1186092998832,None,2552.1186092998832,None,2552.1186092998832,None,j,0.27116800006479025,2552.1186092998832,None,2552.1186092998832,None,2552.436197699979,None,2552.436197699979,None,2552.436197699979,None,2552.436197699979,None,2552.436197699979,None,2552.436197699979,None,2552.732988699805,None,2552.732988699805,None,2554.0163469000254,None,2554.0163469000254,None,2554.0163469000254,None,2554.0163469000254,None,2554.0163469000254,None,2554.0163469000254,None,2554.0163469000254,None,2554.0163469000254,None,2554.0163469000254,None,36,58,46,74,74,35,2556.53620829992,None,4.0,1.0017073000781238,2556.53620829992,None,2556.53620829992,None,2556.53620829992,None,2556.53620829992,None,None,None,2557.552670999896,None,,,,,,,126,m,21,2022_Dec_12_1142,RL,2021.2.3,59.87475402563238,
1,16,0,16,0,,,,,,,,,,,,,,,None,None,None,None,None,2559.1571978998836,None,2559.1571978998836,None,2559.1571978998836,None,2559.1571978998836,None,j,0.29261039989069104,2559.1571978998836,None,2559.1571978998836,None,2559.490467599826,None,2559.490467599826,None,2559.490467599826,None,2559.490467599826,None,2559.490467599826,None,2559.490467599826,None,2559.7880508999806,None,2559.7880508999806,None,2561.0762079998385,None,2561.0762079998385,None,2561.0762079998385,None,2561.0762079998385,None,2561.0762079998385,None,2561.0762079998385,None,2561.0762079998385,None,2561.0762079998385,None,2561.0762079998385,None,36,58,50,63,63,34,2563.6121021998115,None,4.0,0.5659008999355137,2563.6121021998115,None,2563.6121021998115,None,2563.6121021998115,None,2563.6121021998115,None,None,None,2564.190632099984,None,,,,,,,126,m,21,2022_Dec_12_1142,RL,2021.2.3,59.87475402563238,
1,17,0,17,0,,,,,,,,,,,,,,,None,None,None,None,None,2565.7118944998365,None,2565.7118944998365,None,2565.7118944998365,None,2565.7118944998365,None,j,0.2879763001110405,2565.7118944998365,None,2565.7118944998365,None,2566.0491514999885,None,2566.0491514999885,None,2566.0491514999885,None,2566.0491514999885,None,2566.0491514999885,None,2566.0491514999885,None,2566.325774599798,2567.9600104999263,2566.325774599798,2567.9600104999263,2568.0106179998256,None,2568.0106179998256,None,2568.0106179998256,None,2568.0106179998256,None,2568.0106179998256,None,2568.0106179998256,None,2568.0106179998256,None,2568.0106179998256,None,2568.0106179998256,None,39,57,42,73,73,37,2570.530682899989,None,6.0,1.6827410999685526,2570.530682899989,None,2570.530682899989,None,2570.530682899989,None,2570.530682899989,None,None,None,2572.2335949998815,None,,,,,,,126,m,21,2022_Dec_12_1142,RL,2021.2.3,59.87475402563238,
1,18,0,18,0,,,,,,,,,,,,,,,None,None,None,None,None,2573.78387389984,None,2573.78387389984,None,2573.78387389984,None,2573.78387389984,None,j,0.27624360006302595,2573.78387389984,None,2573.78387389984,None,2574.1043920000084,None,2574.1043920000084,None,2574.1043920000084,None,2574.1043920000084,None,2574.1043920000084,None,2574.1043920000084,None,2574.3980021998286,None,2574.3980021998286,None,2575.4276369998697,None,2575.4276369998697,None,2575.4276369998697,None,2575.4276369998697,None,2575.4276369998697,None,2575.4276369998697,None,2575.4276369998697,None,2575.4276369998697,None,2575.4276369998697,None,29,58,46,68,68,48,2577.9464797999244,None,7.0,1.3729042999912053,2577.9464797999244,None,2577.9464797999244,None,2577.9464797999244,None,2577.9464797999244,None,None,None,2579.336310699815,None,,,,,,,126,m,21,2022_Dec_12_1142,RL,2021.2.3,59.87475402563238,
1,19,0,19,0,,,,,,,,,,,,,,,None,None,None,None,None,2581.088667199947,None,2581.088667199947,None,2581.088667199947,None,2581.088667199947,None,j,0.2711839999537915,2581.088667199947,None,2581.088667199947,None,2581.4102015998214,None,2581.4102015998214,None,2581.4102015998214,None,2581.4102015998214,None,2581.4102015998214,None,2581.4102015998214,None,2581.7030682999175,None,2581.7030682999175,None,2583.41678949981,None,2583.41678949981,None,2583.41678949981,None,2583.41678949981,None,2583.41678949981,None,2583.41678949981,None,2583.41678949981,None,2583.41678949981,None,2583.41678949981,None,27,53,44,64,64,48,2585.937774799997,None,7.0,0.46523199998773634,2585.937774799997,None,2585.937774799997,None,2585.937774799997,None,2585.937774799997,None,None,None,2586.422396400012,None,,,,,,,126,m,21,2022_Dec_12_1142,RL,2021.2.3,59.87475402563238,
1,20,0,20,0,,,,,,,,,,,,,,,None,None,None,None,None,2588.210353199858,None,2588.210353199858,None,2588.210353199858,None,2588.210353199858,None,j,0.3289181001018733,2588.210353199858,None,2588.210353199858,None,2588.565041200025,None,2588.565041200025,None,2588.565041200025,None,2588.565041200025,None,2588.565041200025,None,2588.565041200025,None,2588.8580529999454,2590.259060499957,2588.8580529999454,2590.259060499957,2590.2891512999777,None,2590.2891512999777,None,2590.2891512999777,None,2590.2891512999777,None,2590.2891512999777,None,2590.2891512999777,None,2590.2891512999777,None,2590.2891512999777,None,2590.2891512999777,None,27,59,34,66,66,43,2592.806600800017,None,7.0,1.0720439001452178,2592.806600800017,None,2592.806600800017,None,2592.806600800017,None,2592.806600800017,None,None,None,2593.8944311998785,None,,,,,,,126,m,21,2022_Dec_12_1142,RL,2021.2.3,59.87475402563238,
1,21,0,21,0,,,,,,,,,,,,,,,None,None,None,None,None,2595.4991498999298,None,2595.4991498999298,None,2595.4991498999298,None,2595.4991498999298,None,j,0.29118179995566607,2595.4991498999298,None,2595.4991498999298,None,2595.834532500012,None,2595.834532500012,None,2595.834532500012,None,2595.834532500012,None,2595.834532500012,None,2595.834532500012,None,2596.129714499926,None,2596.129714499926,None,2597.1984182999004,None,2597.1984182999004,None,2597.1984182999004,None,2597.1984182999004,None,2597.1984182999004,None,2597.1984182999004,None,2597.1984182999004,None,2597.1984182999004,None,2597.1984182999004,None,32,50,35,73,73,38,2599.713007699931,None,7.0,0.4712404999881983,2599.713007699931,None,2599.713007699931,None,2599.713007699931,None,2599.713007699931,None,None,None,2600.19881099998,None,,,,,,,126,m,21,2022_Dec_12_1142,RL,2021.2.3,59.87475402563238,
1,22,0,22,0,,,,,,,,,,,,,,,None,None,None,None,None,2602.120212199865,None,2602.120212199865,None,2602.120212199865,None,2602.120212199865,None,j,0.2698571998625994,2602.120212199865,None,2602.120212199865,None,2602.4393525000196,None,2602.4393525000196,None,2602.4393525000196,None,2602.4393525000196,None,2602.4393525000196,None,2602.4393525000196,None,2602.7344263999257,None,2602.7344263999257,None,2604.4858927999157,None,2604.4858927999157,None,2604.4858927999157,None,2604.4858927999157,None,2604.4858927999157,None,2604.4858927999157,None,2604.4858927999157,None,2604.4858927999157,None,2604.4858927999157,None,35,53,38,69,69,30,2607.0013248999603,None,7.0,1.25598210003227,2607.0013248999603,None,2607.0013248999603,None,2607.0013248999603,None,2607.0013248999603,None,None,None,2608.2723120998126,None,,,,,,,126,m,21,2022_Dec_12_1142,RL,2021.2.3,59.87475402563238,
1,23,0,23,0,,,,,,,,,,,,,,,None,None,None,None,None,2610.0257127999794,None,2610.0257127999794,None,2610.0257127999794,None,2610.0257127999794,None,j,0.29482429986819625,2610.0257127999794,None,2610.0257127999794,None,2610.359732599929,None,2610.359732599929,None,2610.359732599929,None,2610.359732599929,None,2610.359732599929,None,2610.359732599929,None,2610.656575899804,None,2610.656575899804,None,2611.8095643999986,None,2611.8095643999986,None,2611.8095643999986,None,2611.8095643999986,None,2611.8095643999986,None,2611.8095643999986,None,2611.8095643999986,None,2611.8095643999986,None,2611.8095643999986,None,40,50,42,75,75,19,2614.322834999999,None,7.0,0.7880392000079155,2614.322834999999,None,2614.322834999999,None,2614.322834999999,None,2614.322834999999,None,None,None,2615.1257497000042,None,,,,,,,126,m,21,2022_Dec_12_1142,RL,2021.2.3,59.87475402563238,
1,24,0,24,0,,,,,,,,,,,,,,,None,None,None,None,None,2616.8475978998467,None,2616.8475978998467,None,2616.8475978998467,None,2616.8475978998467,None,j,0.27274560020305216,2616.8475978998467,None,2616.8475978998467,None,2617.165969299851,None,2617.165969299851,None,2617.165969299851,None,2617.165969299851,None,2617.165969299851,None,2617.165969299851,None,2617.461241699988,None,2617.461241699988,None,2619.0086377998814,None,2619.0086377998814,None,2619.0086377998814,None,2619.0086377998814,None,2619.0086377998814,None,2619.0086377998814,None,2619.0086377998814,None,2619.0086377998814,None,2619.0086377998814,None,42,49,46,66,66,37,2621.5274143998977,None,7.0,0.9203409999608994,2621.5274143998977,None,2621.5274143998977,None,2621.5274143998977,None,2621.5274143998977,None,None,None,2622.4642318999395,None,,,,,,,126,m,21,2022_Dec_12_1142,RL,2021.2.3,59.87475402563238,
1,25,0,25,0,,,,,,,,,,,,,,,None,None,None,None,None,2624.0352131000254,None,2624.0352131000254,None,2624.0352131000254,None,2624.0352131000254,None,j,0.26548760011792183,2624.0352131000254,None,2624.0352131000254,None,2624.3408593998756,None,2624.3408593998756,None,2624.3408593998756,None,2624.3408593998756,None,2624.3408593998756,None,2624.3408593998756,None,2624.6332101000007,None,2624.6332101000007,None,2626.549287099857,None,2626.549287099857,None,2626.549287099857,None,2626.549287099857,None,2626.549287099857,None,2626.549287099857,None,2626.549287099857,None,2626.549287099857,None,2626.549287099857,None,33,52,50,73,73,31,2629.0684507999104,None,7.0,0.39944890001788735,2629.0684507999104,None,2629.0684507999104,None,2629.0684507999104,None,2629.0684507999104,None,None,None,2629.48952419986,None,,,,,,,126,m,21,2022_Dec_12_1142,RL,2021.2.3,59.87475402563238,
1,26,0,26,0,,,,,,,,,,,,,,,None,None,None,None,None,2631.2570377998054,None,2631.2570377998054,None,2631.2570377998054,None,2631.2570377998054,None,j,0.2635365000460297,2631.2570377998054,None,2631.2570377998054,None,2631.562954899855,None,2631.562954899855,None,2631.562954899855,None,2631.562954899855,None,2631.562954899855,None,2631.562954899855,None,2631.854672299931,2632.7552835999522,2631.854672299931,2632.7552835999522,2632.7868943999056,None,2632.7868943999056,None,2632.7868943999056,None,2632.7868943999056,None,2632.7868943999056,None,2632.7868943999056,None,2632.7868943999056,None,2632.7868943999056,None,2632.7868943999056,None,35,49,50,73,73,30,2635.3074185999576,None,7.0,0.434657400008291,2635.3074185999576,None,2635.3074185999576,None,2635.3074185999576,None,2635.3074185999576,None,None,None,2635.757276599994,None,,,,,,,126,m,21,2022_Dec_12_1142,RL,2021.2.3,59.87475402563238,
1,27,0,27,0,,,,,,,,,,,,,,,None,None,None,None,None,2637.7448116999585,None,2637.7448116999585,None,2637.7448116999585,None,2637.7448116999585,None,j,0.27568620000965893,2637.7448116999585,None,2637.7448116999585,None,2638.064585799817,None,2638.064585799817,None,2638.064585799817,None,2638.064585799817,None,2638.064585799817,None,2638.064585799817,None,2638.3590259000193,None,2638.3590259000193,None,2640.0724152999464,None,2640.0724152999464,None,2640.0724152999464,None,2640.0724152999464,None,2640.0724152999464,None,2640.0724152999464,None,2640.0724152999464,None,2640.0724152999464,None,2640.0724152999464,None,43,51,51,70,70,41,2642.596106899902,None,7.0,0.6021606000140309,2642.596106899902,None,2642.596106899902,None,2642.596106899902,None,2642.596106899902,None,None,None,2643.214813399827,None,,,,,,,126,m,21,2022_Dec_12_1142,RL,2021.2.3,59.87475402563238,
1,28,0,28,0,,,,,,,,,,,,,,,None,None,None,None,None,2644.88323009992,None,2644.88323009992,None,2644.88323009992,None,2644.88323009992,None,j,0.4072696000803262,2644.88323009992,None,2644.88323009992,None,2645.336459199898,None,2645.336459199898,None,2645.336459199898,None,2645.336459199898,None,2645.336459199898,None,2645.336459199898,None,2645.6306996999774,2646.7981920000166,2645.6306996999774,2646.7981920000166,2646.829763100017,None,2646.829763100017,None,2646.829763100017,None,2646.829763100017,None,2646.829763100017,None,2646.829763100017,None,2646.829763100017,None,2646.829763100017,None,2646.829763100017,None,51,54,46,65,65,41,2649.3484371998347,None,7.0,1.0175731000490487,2649.3484371998347,None,2649.3484371998347,None,2649.3484371998347,None,2649.3484371998347,None,None,None,2650.39285009983,None,,,,,,,126,m,21,2022_Dec_12_1142,RL,2021.2.3,59.87475402563238,
1,29,0,29,0,,,,,,,,,,,,,,,None,None,None,None,None,2652.0716500999406,None,2652.0716500999406,None,2652.0716500999406,None,2652.0716500999406,None,j,0.2790608999785036,2652.0716500999406,None,2652.0716500999406,None,2652.3913411998656,None,2652.3913411998656,None,2652.3913411998656,None,2652.3913411998656,None,2652.3913411998656,None,2652.3913411998656,None,2652.6855818999466,None,2652.6855818999466,None,2654.5203318998683,None,2654.5203318998683,None,2654.5203318998683,None,2654.5203318998683,None,2654.5203318998683,None,2654.5203318998683,None,2654.5203318998683,None,2654.5203318998683,None,2654.5203318998683,None,42,54,51,73,73,34,2657.035856399918,None,7.0,1.1037879998330027,2657.035856399918,None,2657.035856399918,None,2657.035856399918,None,2657.035856399918,None,None,None,2658.155684700003,None,,,,,,,126,m,21,2022_Dec_12_1142,RL,2021.2.3,59.87475402563238,
1,30,0,30,0,,,,,,,,,,,,,,,None,None,None,None,None,2659.7100558998063,None,2659.7100558998063,None,2659.7100558998063,None,2659.7100558998063,None,j,0.3504337000194937,2659.7100558998063,None,2659.7100558998063,None,2660.1110177999362,None,2660.1110177999362,None,2660.1110177999362,None,2660.1110177999362,None,2660.1110177999362,None,2660.1110177999362,None,2660.4075990000274,None,2660.4075990000274,None,2661.9265099000186,None,2661.9265099000186,None,2661.9265099000186,None,2661.9265099000186,None,2661.9265099000186,None,2661.9265099000186,None,2661.9265099000186,None,2661.9265099000186,None,2661.9265099000186,None,45,63,51,72,72,42,2664.4498770998325,None,7.0,2.1997221000492573,2664.4498770998325,None,2664.4498770998325,None,2664.4498770998325,None,2664.4498770998325,None,None,None,2666.6615011999384,None,,,,,,,126,m,21,2022_Dec_12_1142,RL,2021.2.3,59.87475402563238,
1,31,0,31,0,,,,,,,,,,,,,,,None,None,None,None,None,2668.4829743998125,None,2668.4829743998125,None,2668.4829743998125,None,2668.4829743998125,None,j,0.2575044999830425,2668.4829743998125,None,2668.4829743998125,None,2668.785757599864,None,2668.785757599864,None,2668.785757599864,None,2668.785757599864,None,2668.785757599864,None,2668.785757599864,None,2669.0802597999573,2670.2643701999914,2669.0802597999573,2670.2643701999914,2670.2945124998223,None,2670.2945124998223,None,2670.2945124998223,None,2670.2945124998223,None,2670.2945124998223,None,2670.2945124998223,None,2670.2945124998223,None,2670.2945124998223,None,2670.2945124998223,None,40,55,58,76,76,33,2672.8127867998555,None,7.0,1.3384170001372695,2672.8127867998555,None,2672.8127867998555,None,2672.8127867998555,None,2672.8127867998555,None,None,None,2674.166577699827,None,,,,,,,126,m,21,2022_Dec_12_1142,RL,2021.2.3,59.87475402563238,
1,32,0,32,0,,,,,,,,,,,,,,,None,None,None,None,None,2676.055137499934,None,2676.055137499934,None,2676.055137499934,None,2676.055137499934,None,j,0.2954878997988999,2676.055137499934,None,2676.055137499934,None,2676.390316999983,None,2676.390316999983,None,2676.390316999983,None,2676.390316999983,None,2676.390316999983,None,2676.390316999983,None,2676.685790499905,None,2676.685790499905,None,2677.9839103999548,None,2677.9839103999548,None,2677.9839103999548,None,2677.9839103999548,None,2677.9839103999548,None,2677.9839103999548,None,2677.9839103999548,None,2677.9839103999548,None,2677.9839103999548,None,45,52,66,71,71,34,2680.499972600024,None,7.0,1.0895940999034792,2680.499972600024,None,2680.499972600024,None,2680.499972600024,None,2680.499972600024,None,None,None,2681.6050576998387,None,,,,,,,126,m,21,2022_Dec_12_1142,RL,2021.2.3,59.87475402563238,
1,33,0,33,0,,,,,,,,,,,,,,,None,None,None,None,None,2683.275970199844,None,2683.275970199844,None,2683.275970199844,None,2683.275970199844,None,j,0.275855400133878,2683.275970199844,None,2683.275970199844,None,2683.600149099948,None,2683.600149099948,None,2683.600149099948,None,2683.600149099948,None,2683.600149099948,None,2683.600149099948,None,2683.8905323999934,None,2683.8905323999934,None,2685.4049272998236,None,2685.4049272998236,None,2685.4049272998236,None,2685.4049272998236,None,2685.4049272998236,None,2685.4049272998236,None,2685.4049272998236,None,2685.4049272998236,None,2685.4049272998236,None,41,55,67,72,72,23,2687.9207960998174,None,7.0,0.5707601998001337,2687.9207960998174,None,2687.9207960998174,None,2687.9207960998174,None,2687.9207960998174,None,None,None,2688.5097676999867,None,,,,,,,126,m,21,2022_Dec_12_1142,RL,2021.2.3,59.87475402563238,
1,34,0,34,0,,,,,,,,,,,,,,,None,None,None,None,None,2690.2809790999163,None,2690.2809790999163,None,2690.2809790999163,None,2690.2809790999163,None,j,0.3408095999620855,2690.2809790999163,None,2690.2809790999163,None,2690.668692499865,None,2690.668692499865,None,2690.668692499865,None,2690.668692499865,None,2690.668692499865,None,2690.668692499865,None,2690.96221339982,None,2690.96221339982,None,2692.6793161998503,None,2692.6793161998503,None,2692.6793161998503,None,2692.6793161998503,None,2692.6793161998503,None,2692.6793161998503,None,2692.6793161998503,None,2692.6793161998503,None,2692.6793161998503,None,46,53,61,69,69,47,2695.1949557999615,None,7.0,0.35669699986465275,2695.1949557999615,None,2695.1949557999615,None,2695.1949557999615,None,2695.1949557999615,None,None,None,2695.57122589997,None,,,,,,,126,m,21,2022_Dec_12_1142,RL,2021.2.3,59.87475402563238,
1,35,0,35,0,,,,,,,,,,,,,,,None,None,None,None,None,2697.5694083999842,None,2697.5694083999842,None,2697.5694083999842,None,2697.5694083999842,None,j,0.2924480999354273,2697.5694083999842,None,2697.5694083999842,None,2697.9085646998137,None,2697.9085646998137,None,2697.9085646998137,None,2697.9085646998137,None,2697.9085646998137,None,2697.9085646998137,None,2698.2005549999885,2699.2844969998114,2698.2005549999885,2699.2844969998114,2699.3153573998716,None,2699.3153573998716,None,2699.3153573998716,None,2699.3153573998716,None,2699.3153573998716,None,2699.3153573998716,None,2699.3153573998716,None,2699.3153573998716,None,2699.3153573998716,None,41,65,57,66,66,24,2701.836864099838,None,7.0,0.4676842000335455,2701.836864099838,None,2701.836864099838,None,2701.836864099838,None,2701.836864099838,None,None,None,2702.3194436000194,None,,,,,,,126,m,21,2022_Dec_12_1142,RL,2021.2.3,59.87475402563238,
1,36,0,36,0,,,,,,,,,,,,,,,None,None,None,None,None,2704.0741357998922,None,2704.0741357998922,None,2704.0741357998922,None,2704.0741357998922,None,j,0.27772000012919307,2704.0741357998922,None,2704.0741357998922,None,2704.392334499862,None,2704.392334499862,None,2704.392334499862,None,2704.392334499862,None,2704.392334499862,None,2704.392334499862,None,2704.6884506000206,None,2704.6884506000206,None,2705.5859244000167,None,2705.5859244000167,None,2705.5859244000167,None,2705.5859244000167,None,2705.5859244000167,None,2705.5859244000167,None,2705.5859244000167,None,2705.5859244000167,None,2705.5859244000167,None,44,54,64,70,70,41,2708.1035140999593,None,7.0,0.47011260013096035,2708.1035140999593,None,2708.1035140999593,None,2708.1035140999593,None,2708.1035140999593,None,None,None,2708.5905211998615,None,,,,,,,126,m,21,2022_Dec_12_1142,RL,2021.2.3,59.87475402563238,
1,37,0,37,0,,,,,,,,,,,,,,,None,None,None,None,None,2710.4621945000254,None,2710.4621945000254,None,2710.4621945000254,None,2710.4621945000254,None,j,0.3497003000229597,2710.4621945000254,None,2710.4621945000254,None,2710.864782899851,None,2710.864782899851,None,2710.864782899851,None,2710.864782899851,None,2710.864782899851,None,2710.864782899851,None,2711.1598206998315,2712.510280799819,2711.1598206998315,2712.510280799819,2712.546984500019,None,2712.546984500019,None,2712.546984500019,None,2712.546984500019,None,2712.546984500019,None,2712.546984500019,None,2712.546984500019,None,2712.546984500019,None,2712.546984500019,None,41,62,63,69,69,41,2715.0581364999525,None,7.0,0.8381963002029806,2715.0581364999525,None,2715.0581364999525,None,2715.0581364999525,None,2715.0581364999525,None,None,None,2715.9123545999173,None,,,,,,,126,m,21,2022_Dec_12_1142,RL,2021.2.3,59.87475402563238,
1,38,0,38,0,,,,,,,,,,,,,,,None,None,None,None,None,2717.683603900019,None,2717.683603900019,None,2717.683603900019,None,2717.683603900019,None,j,0.3482924001291394,2717.683603900019,None,2717.683603900019,None,2718.070546399802,None,2718.070546399802,None,2718.070546399802,None,2718.070546399802,None,2718.070546399802,None,2718.070546399802,None,2718.364516399801,None,2718.364516399801,None,2719.645455399994,None,2719.645455399994,None,2719.645455399994,None,2719.645455399994,None,2719.645455399994,None,2719.645455399994,None,2719.645455399994,None,2719.645455399994,None,2719.645455399994,None,43,51,59,67,67,51,2722.1612913999707,None,7.0,0.9211734000127763,2722.1612913999707,None,2722.1612913999707,None,2722.1612913999707,None,2722.1612913999707,None,None,None,2723.1006588998716,None,,,,,,,126,m,21,2022_Dec_12_1142,RL,2021.2.3,59.87475402563238,
1,39,0,39,0,,,,,,,,,,,,,,,None,None,None,None,None,2725.088558499934,None,2725.088558499934,None,2725.088558499934,None,2725.088558499934,None,j,0.363754500169307,2725.088558499934,None,2725.088558499934,None,2725.492572899908,None,2725.492572899908,None,2725.492572899908,None,2725.492572899908,None,2725.492572899908,None,2725.492572899908,None,2725.7863218998536,2726.836924199946,2725.7863218998536,2726.836924199946,2726.874486999819,None,2726.874486999819,None,2726.874486999819,None,2726.874486999819,None,2726.874486999819,None,2726.874486999819,None,2726.874486999819,None,2726.874486999819,None,2726.874486999819,None,52,56,60,64,64,43,2729.4100442999043,None,7.0,1.714194000000134,2729.4100442999043,None,2729.4100442999043,None,2729.4100442999043,None,2729.4100442999043,None,None,None,2731.1394015999977,None,,,,,,,126,m,21,2022_Dec_12_1142,RL,2021.2.3,59.87475402563238,
1,40,0,40,0,,,,,,,,,,,,,,,None,None,None,None,None,2733.1105621999595,None,2733.1105621999595,None,2733.1105621999595,None,2733.1105621999595,None,j,0.26145850005559623,2733.1105621999595,None,2733.1105621999595,None,2733.4126909999177,None,2733.4126909999177,None,2733.4126909999177,None,2733.4126909999177,None,2733.4126909999177,None,2733.4126909999177,None,2733.708528699819,None,2733.708528699819,None,2735.5236971999984,None,2735.5236971999984,None,2735.5236971999984,None,2735.5236971999984,None,2735.5236971999984,None,2735.5236971999984,None,2735.5236971999984,None,2735.5236971999984,None,2735.5236971999984,None,46,53,63,64,64,41,2738.0401610999834,None,7.0,0.8206123001873493,2738.0401610999834,None,2738.0401610999834,None,2738.0401610999834,None,2738.0401610999834,None,None,None,2738.8783908998594,None,,,,,,,126,m,21,2022_Dec_12_1142,RL,2021.2.3,59.87475402563238,
1,41,0,41,0,,,,,,,,,,,,,,,None,None,None,None,None,2740.6499667000026,None,2740.6499667000026,None,2740.6499667000026,None,2740.6499667000026,None,j,0.3424457998480648,2740.6499667000026,None,2740.6499667000026,None,2741.032474299893,None,2741.032474299893,None,2741.032474299893,None,2741.032474299893,None,2741.032474299893,None,2741.032474299893,None,2741.330454999814,None,2741.330454999814,None,2742.7311572998296,None,2742.7311572998296,None,2742.7311572998296,None,2742.7311572998296,None,2742.7311572998296,None,2742.7311572998296,None,2742.7311572998296,None,2742.7311572998296,None,2742.7311572998296,None,42,64,54,65,65,49,2745.245192699833,None,7.0,0.6883291001431644,2745.245192699833,None,2745.245192699833,None,2745.245192699833,None,2745.245192699833,None,None,None,2745.950488399947,None,,,,,,,126,m,21,2022_Dec_12_1142,RL,2021.2.3,59.87475402563238,
1,42,0,42,0,,,,,,,,,,,,,,,None,None,None,None,None,2747.5544898998924,None,2747.5544898998924,None,2747.5544898998924,None,2747.5544898998924,None,j,0.25762379984371364,2747.5544898998924,None,2747.5544898998924,None,2747.8563347000163,None,2747.8563347000163,None,2747.8563347000163,None,2747.8563347000163,None,2747.8563347000163,None,2747.8563347000163,None,2748.151826699963,None,2748.151826699963,None,2749.2496809998993,None,2749.2496809998993,None,2749.2496809998993,None,2749.2496809998993,None,2749.2496809998993,None,2749.2496809998993,None,2749.2496809998993,None,2749.2496809998993,None,2749.2496809998993,None,43,55,63,58,58,35,2751.767558599822,None,7.0,0.8866292999591678,2751.767558599822,None,2751.767558599822,None,2751.767558599822,None,2751.767558599822,None,None,None,2752.671019600006,None,,,,,,,126,m,21,2022_Dec_12_1142,RL,2021.2.3,59.87475402563238,
1,43,0,43,0,,,,,,,,,,,,,,,None,None,None,None,None,2754.208864599932,None,2754.208864599932,None,2754.208864599932,None,2754.208864599932,None,j,0.2933571001049131,2754.208864599932,None,2754.208864599932,None,2754.54468299984,None,2754.54468299984,None,2754.54468299984,None,2754.54468299984,None,2754.54468299984,None,2754.54468299984,None,2754.8400551998056,None,2754.8400551998056,None,2755.6870631999336,None,2755.6870631999336,None,2755.6870631999336,None,2755.6870631999336,None,2755.6870631999336,None,2755.6870631999336,None,2755.6870631999336,None,2755.6870631999336,None,2755.6870631999336,None,34,51,66,63,63,43,2758.2051752000116,None,7.0,0.9562576999887824,2758.2051752000116,None,2758.2051752000116,None,2758.2051752000116,None,2758.2051752000116,None,None,None,2759.17579979985,None,,,,,,,126,m,21,2022_Dec_12_1142,RL,2021.2.3,59.87475402563238,
1,44,0,44,0,,,,,,,,,,,,,,,None,None,None,None,None,2760.796350999968,None,2760.796350999968,None,2760.796350999968,None,2760.796350999968,None,j,0.2858170000836253,2760.796350999968,None,2760.796350999968,None,2761.1345424999017,None,2761.1345424999017,None,2761.1345424999017,None,2761.1345424999017,None,2761.1345424999017,None,2761.1345424999017,None,2761.4277238999493,2762.561620299937,2761.4277238999493,2762.561620299937,2762.593575599836,None,2762.593575599836,None,2762.593575599836,None,2762.593575599836,None,2762.593575599836,None,2762.593575599836,None,2762.593575599836,None,2762.593575599836,None,2762.593575599836,None,39,60,61,60,60,31,2765.1097287999,None,7.0,0.45571299991570413,2765.1097287999,None,2765.1097287999,None,2765.1097287999,None,2765.1097287999,None,None,None,2765.5898276998196,None,,,,,,,126,m,21,2022_Dec_12_1142,RL,2021.2.3,59.87475402563238,
1,45,0,45,0,,,,,,,,,,,,,,,None,None,None,None,None,2767.267968799919,None,2767.267968799919,None,2767.267968799919,None,2767.267968799919,None,j,0.28428219980560243,2767.267968799919,None,2767.267968799919,None,2767.603500899859,None,2767.603500899859,None,2767.603500899859,None,2767.603500899859,None,2767.603500899859,None,2767.603500899859,None,2767.898906599963,2769.099576999899,2767.898906599963,2769.099576999899,2769.1316845000256,None,2769.1316845000256,None,2769.1316845000256,None,2769.1316845000256,None,2769.1316845000256,None,2769.1316845000256,None,2769.1316845000256,None,2769.1316845000256,None,2769.1316845000256,None,34,57,64,68,68,30,2771.6527980000246,None,7.0,0.6015763999894261,2771.6527980000246,None,2771.6527980000246,None,2771.6527980000246,None,2771.6527980000246,None,None,None,2772.268199699931,None,,,,,,,126,m,21,2022_Dec_12_1142,RL,2021.2.3,59.87475402563238,
1,46,0,46,0,,,,,,,,,,,,,,,None,None,None,None,None,2773.8226485999767,None,2773.8226485999767,None,2773.8226485999767,None,2773.8226485999767,None,j,0.27942309994250536,2773.8226485999767,None,2773.8226485999767,None,2774.143798499834,None,2774.143798499834,None,2774.143798499834,None,2774.143798499834,None,2774.143798499834,None,2774.143798499834,None,2774.4366535998415,None,2774.4366535998415,None,2776.2350129999686,None,2776.2350129999686,None,2776.2350129999686,None,2776.2350129999686,None,2776.2350129999686,None,2776.2350129999686,None,2776.2350129999686,None,2776.2350129999686,None,2776.2350129999686,None,44,57,61,64,64,44,2778.7534027998336,None,7.0,0.4198273001238704,2778.7534027998336,None,2778.7534027998336,None,2778.7534027998336,None,2778.7534027998336,None,None,None,2779.1934596998617,None,,,,,,,126,m,21,2022_Dec_12_1142,RL,2021.2.3,59.87475402563238,
1,47,0,47,0,,,,,,,,,,,,,,,None,None,None,None,None,2780.8773290999234,None,2780.8773290999234,None,2780.8773290999234,None,2780.8773290999234,None,j,0.36512880004011095,2780.8773290999234,None,2780.8773290999234,None,2781.279141600011,None,2781.279141600011,None,2781.279141600011,None,2781.279141600011,None,2781.279141600011,None,2781.279141600011,None,2781.575255599804,None,2781.575255599804,None,2783.0720293999184,None,2783.0720293999184,None,2783.0720293999184,None,2783.0720293999184,None,2783.0720293999184,None,2783.0720293999184,None,2783.0720293999184,None,2783.0720293999184,None,2783.0720293999184,None,45,54,66,63,63,49,2785.596735100029,None,7.0,1.1681628997903317,2785.596735100029,None,2785.596735100029,None,2785.596735100029,None,2785.596735100029,None,None,None,2786.778028599918,None,,,,,,,126,m,21,2022_Dec_12_1142,RL,2021.2.3,59.87475402563238,
1,48,0,48,0,,,,,,,,,,,,,,,None,None,None,None,None,2788.682604299858,None,2788.682604299858,None,2788.682604299858,None,2788.682604299858,None,j,0.2798456000164151,2788.682604299858,None,2788.682604299858,None,2789.001978499815,None,2789.001978499815,None,2789.001978499815,None,2789.001978499815,None,2789.001978499815,None,2789.001978499815,None,2789.297219199827,2790.8646860998124,2789.297219199827,2790.8646860998124,2790.895586699946,None,2790.895586699946,None,2790.895586699946,None,2790.895586699946,None,2790.895586699946,None,2790.895586699946,None,2790.895586699946,None,2790.895586699946,None,2790.895586699946,None,35,60,70,51,51,47,2793.4127263999544,None,7.0,0.3721201999578625,2793.4127263999544,None,2793.4127263999544,None,2793.4127263999544,None,2793.4127263999544,None,None,None,2793.7996509999502,None,,,,,,,126,m,21,2022_Dec_12_1142,RL,2021.2.3,59.87475402563238,
1,49,0,49,0,,,,,,,,,,,,,,,None,None,None,None,None,2795.4206622999627,None,2795.4206622999627,None,2795.4206622999627,None,2795.4206622999627,None,j,0.2715882998891175,2795.4206622999627,None,2795.4206622999627,None,2795.740684899967,None,2795.740684899967,None,2795.740684899967,None,2795.740684899967,None,2795.740684899967,None,2795.740684899967,None,2796.0352256998885,None,2796.0352256998885,None,2797.665929599898,None,2797.665929599898,None,2797.665929599898,None,2797.665929599898,None,2797.665929599898,None,2797.665929599898,None,2797.665929599898,None,2797.665929599898,None,2797.665929599898,None,43,52,70,53,53,46,2800.184829799924,None,7.0,0.9865693999454379,2800.184829799924,None,2800.184829799924,None,2800.184829799924,None,2800.184829799924,None,None,None,2801.188184599858,None,,,,,,,126,m,21,2022_Dec_12_1142,RL,2021.2.3,59.87475402563238,
1,50,0,50,0,,,,,,,,,,,,,,,None,None,None,None,None,2803.0928650000133,None,2803.0928650000133,None,2803.0928650000133,None,2803.0928650000133,None,j,0.29986309981904924,2803.0928650000133,None,2803.0928650000133,None,2803.4436446998734,None,2803.4436446998734,None,2803.4436446998734,None,2803.4436446998734,None,2803.4436446998734,None,2803.4436446998734,None,2803.7405013998505,None,2803.7405013998505,None,2805.089304199908,None,2805.089304199908,None,2805.089304199908,None,2805.089304199908,None,2805.089304199908,None,2805.089304199908,None,2805.089304199908,None,2805.089304199908,None,2805.089304199908,None,37,61,73,58,58,41,2807.608773099957,None,7.0,0.9697871999815106,2807.608773099957,None,2807.608773099957,None,2807.608773099957,None,2807.608773099957,None,None,None,2808.593215199886,None,,,,,,,126,m,21,2022_Dec_12_1142,RL,2021.2.3,59.87475402563238,
1,51,0,51,0,,,,,,,,,,,,,,,None,None,None,None,None,2810.5471491999924,None,2810.5471491999924,None,2810.5471491999924,None,2810.5471491999924,None,j,0.2753357000183314,2810.5471491999924,None,2810.5471491999924,None,2810.8674165999983,None,2810.8674165999983,None,2810.8674165999983,None,2810.8674165999983,None,2810.8674165999983,None,2810.8674165999983,None,2811.1621488998644,None,2811.1621488998644,None,2812.308099600021,None,2812.308099600021,None,2812.308099600021,None,2812.308099600021,None,2812.308099600021,None,2812.308099600021,None,2812.308099600021,None,2812.308099600021,None,2812.308099600021,None,42,55,69,51,51,34,2814.8359258999117,None,7.0,1.1841097001452,2814.8359258999117,None,2814.8359258999117,None,2814.8359258999117,None,2814.8359258999117,None,None,None,2816.0318368999287,None,,,,,,,126,m,21,2022_Dec_12_1142,RL,2021.2.3,59.87475402563238,
1,52,0,52,0,,,,,,,,,,,,,,,None,None,None,None,None,2817.919816999929,None,2817.919816999929,None,2817.919816999929,None,2817.919816999929,None,j,0.31264119991101325,2817.919816999929,None,2817.919816999929,None,2818.272861199919,None,2818.272861199919,None,2818.272861199919,None,2818.272861199919,None,2818.272861199919,None,2818.272861199919,None,2818.56725870003,None,2818.56725870003,None,2820.565778499935,None,2820.565778499935,None,2820.565778499935,None,2820.565778499935,None,2820.565778499935,None,2820.565778499935,None,2820.565778499935,None,2820.565778499935,None,2820.565778499935,None,34,58,76,58,58,40,2823.0904138998594,None,7.0,0.8331371999811381,2823.0904138998594,None,2823.0904138998594,None,2823.0904138998594,None,2823.0904138998594,None,None,None,2823.9460243999492,None,,,,,,,126,m,21,2022_Dec_12_1142,RL,2021.2.3,59.87475402563238,
1,53,0,53,0,,,,,,,,,,,,,,,None,None,None,None,None,2825.591689300025,None,2825.591689300025,None,2825.591689300025,None,2825.591689300025,None,j,0.2908241997938603,2825.591689300025,None,2825.591689300025,None,2825.926102499943,None,2825.926102499943,None,2825.926102499943,None,2825.926102499943,None,2825.926102499943,None,2825.926102499943,None,2826.2226313999854,None,2826.2226313999854,None,2828.0540509999264,None,2828.0540509999264,None,2828.0540509999264,None,2828.0540509999264,None,2828.0540509999264,None,2828.0540509999264,None,2828.0540509999264,None,2828.0540509999264,None,2828.0540509999264,None,42,62,64,61,61,56,2830.574721499812,None,7.0,0.4191854000091553,2830.574721499812,None,2830.574721499812,None,2830.574721499812,None,2830.574721499812,None,None,None,2831.008593699895,None,,,,,,,126,m,21,2022_Dec_12_1142,RL,2021.2.3,59.87475402563238,
1,54,0,54,0,,,,,,,,,,,,,,,None,None,None,None,None,2832.8305616998114,None,2832.8305616998114,None,2832.8305616998114,None,2832.8305616998114,None,j,0.2620947000104934,2832.8305616998114,None,2832.8305616998114,None,2833.1362106997985,None,2833.1362106997985,None,2833.1362106997985,None,2833.1362106997985,None,2833.1362106997985,None,2833.1362106997985,None,2833.4275658999104,None,2833.4275658999104,None,2834.7070404000115,None,2834.7070404000115,None,2834.7070404000115,None,2834.7070404000115,None,2834.7070404000115,None,2834.7070404000115,None,2834.7070404000115,None,2834.7070404000115,None,2834.7070404000115,None,40,54,70,60,60,39,2837.226662899833,None,7.0,0.9218123001046479,2837.226662899833,None,2837.226662899833,None,2837.226662899833,None,2837.226662899833,None,None,None,2838.1637083999813,None,,,,,,,126,m,21,2022_Dec_12_1142,RL,2021.2.3,59.87475402563238,
1,55,0,55,0,,,,,,,,,,,,,,,None,None,None,None,None,2839.9350933998358,None,2839.9350933998358,None,2839.9350933998358,None,2839.9350933998358,None,j,0.3772817999124527,2839.9350933998358,None,2839.9350933998358,None,2840.354863999877,None,2840.354863999877,None,2840.354863999877,None,2840.354863999877,None,2840.354863999877,None,2840.354863999877,None,2840.6493593999185,None,2840.6493593999185,None,2842.2138837999664,None,2842.2138837999664,None,2842.2138837999664,None,2842.2138837999664,None,2842.2138837999664,None,2842.2138837999664,None,2842.2138837999664,None,2842.2138837999664,None,2842.2138837999664,None,39,53,70,55,55,39,2844.7300250998233,None,7.0,0.8569014000240713,2844.7300250998233,None,2844.7300250998233,None,2844.7300250998233,None,2844.7300250998233,None,None,None,2845.602162899915,None,,,,,,,126,m,21,2022_Dec_12_1142,RL,2021.2.3,59.87475402563238,
1,56,0,56,0,,,,,,,,,,,,,,,None,None,None,None,None,2847.589945399901,None,2847.589945399901,None,2847.589945399901,None,2847.589945399901,None,j,0.2737843000795692,2847.589945399901,None,2847.589945399901,None,2847.9164999998175,None,2847.9164999998175,None,2847.9164999998175,None,2847.9164999998175,None,2847.9164999998175,None,2847.9164999998175,None,2848.204433699837,2850.055830899859,2848.204433699837,2850.055830899859,2850.087950099958,None,2850.087950099958,None,2850.087950099958,None,2850.087950099958,None,2850.087950099958,None,2850.087950099958,None,2850.087950099958,None,2850.087950099958,None,2850.087950099958,None,35,51,67,55,55,54,2852.6036075998563,None,7.0,0.4884659999515861,2852.6036075998563,None,2852.6036075998563,None,2852.6036075998563,None,2852.6036075998563,None,None,None,2853.109622800024,None,,,,,,,126,m,21,2022_Dec_12_1142,RL,2021.2.3,59.87475402563238,
1,57,0,57,0,,,,,,,,,,,,,,,None,None,None,None,None,2854.9786549999844,None,2854.9786549999844,None,2854.9786549999844,None,2854.9786549999844,None,j,0.28513309988193214,2854.9786549999844,None,2854.9786549999844,None,2855.317903699819,None,2855.317903699819,None,2855.317903699819,None,2855.317903699819,None,2855.317903699819,None,2855.317903699819,None,2855.6096179999877,None,2855.6096179999877,None,2856.9233862999827,None,2856.9233862999827,None,2856.9233862999827,None,2856.9233862999827,None,2856.9233862999827,None,2856.9233862999827,None,2856.9233862999827,None,2856.9233862999827,None,2856.9233862999827,None,36,44,66,48,48,40,2859.4413297998253,None,7.0,0.47297620004974306,2859.4413297998253,None,2859.4413297998253,None,2859.4413297998253,None,2859.4413297998253,None,None,None,2859.9320502998307,None,,,,,,,126,m,21,2022_Dec_12_1142,RL,2021.2.3,59.87475402563238,
1,58,0,58,0,,,,,,,,,,,,,,,None,None,None,None,None,2861.9004192999564,None,2861.9004192999564,None,2861.9004192999564,None,2861.9004192999564,None,j,0.26344699994660914,2861.9004192999564,None,2861.9004192999564,None,2862.2009824998677,None,2862.2009824998677,None,2862.2009824998677,None,2862.2009824998677,None,2862.2009824998677,None,2862.2009824998677,None,2862.497711899923,None,2862.497711899923,None,2863.4972710998263,None,2863.4972710998263,None,2863.4972710998263,None,2863.4972710998263,None,2863.4972710998263,None,2863.4972710998263,None,2863.4972710998263,None,2863.4972710998263,None,2863.4972710998263,None,29,46,79,52,52,44,2866.013388699852,None,7.0,0.38992549991235137,2866.013388699852,None,2866.013388699852,None,2866.013388699852,None,2866.013388699852,None,None,None,2866.4200040998403,None,,,,,,,126,m,21,2022_Dec_12_1142,RL,2021.2.3,59.87475402563238,
1,59,0,59,0,,,,,,,,,,,,,,,None,None,None,None,None,2868.121316100005,None,2868.121316100005,None,2868.121316100005,None,2868.121316100005,None,j,0.2827469001058489,2868.121316100005,None,2868.121316100005,None,2868.455732999835,None,2868.455732999835,None,2868.455732999835,None,2868.455732999835,None,2868.455732999835,None,2868.455732999835,None,2868.7521207998507,None,2868.7521207998507,None,2870.104797499953,None,2870.104797499953,None,2870.104797499953,None,2870.104797499953,None,2870.104797499953,None,2870.104797499953,None,2870.104797499953,None,2870.104797499953,None,2870.104797499953,None,34,41,73,43,43,51,2872.6178203998134,None,7.0,0.7391005998943001,2872.6178203998134,None,2872.6178203998134,None,2872.6178203998134,None,2872.6178203998134,None,None,None,2873.371605299879,None,,,,,,,126,m,21,2022_Dec_12_1142,RL,2021.2.3,59.87475402563238,
1,60,0,60,0,,,,,,,,,,,,,,,None,None,None,None,None,2875.0596019998193,None,2875.0596019998193,None,2875.0596019998193,None,2875.0596019998193,None,j,0.2842940001282841,2875.0596019998193,None,2875.0596019998193,None,2875.397362199845,None,2875.397362199845,None,2875.397362199845,None,2875.397362199845,None,2875.397362199845,None,2875.397362199845,None,2875.6737902997993,2876.590771399904,2875.6737902997993,2876.590771399904,2876.6213986999355,None,2876.6213986999355,None,2876.6213986999355,None,2876.6213986999355,None,2876.6213986999355,None,2876.6213986999355,None,2876.6213986999355,None,2876.6213986999355,None,2876.6213986999355,None,36,48,66,43,43,23,2879.1430952998344,None,7.0,0.3673809999600053,2879.1430952998344,None,2879.1430952998344,None,2879.1430952998344,None,2879.1430952998344,None,None,None,2879.531534599839,None,,,,,,,126,m,21,2022_Dec_12_1142,RL,2021.2.3,59.87475402563238,
1,61,0,61,0,,,,,,,,,,,,,,,None,None,None,None,None,2881.5305077999365,None,2881.5305077999365,None,2881.5305077999365,None,2881.5305077999365,None,j,0.27319630002602935,2881.5305077999365,None,2881.5305077999365,None,2881.85041009984,None,2881.85041009984,None,2881.85041009984,None,2881.85041009984,None,2881.85041009984,None,2881.85041009984,None,2882.1449533998966,None,2882.1449533998966,None,2883.1476594000123,None,2883.1476594000123,None,2883.1476594000123,None,2883.1476594000123,None,2883.1476594000123,None,2883.1476594000123,None,2883.1476594000123,None,2883.1476594000123,None,2883.1476594000123,None,30,34,78,41,41,42,2885.6606958999764,None,7.0,0.4041060002055019,2885.6606958999764,None,2885.6606958999764,None,2885.6606958999764,None,2885.6606958999764,None,None,None,2886.0804335998837,None,,,,,,,126,m,21,2022_Dec_12_1142,RL,2021.2.3,59.87475402563238,
1,62,0,62,0,,,,,,,,,,,,,,,None,None,None,None,None,2888.0345958999824,None,2888.0345958999824,None,2888.0345958999824,None,2888.0345958999824,None,j,0.9793750001117587,2888.0345958999824,None,2888.0345958999824,None,2889.0555884998757,None,2889.0555884998757,None,2889.0555884998757,None,2889.0555884998757,None,2889.0555884998757,None,2889.0555884998757,None,2889.3497130000032,2890.6838318998925,2889.3497130000032,2890.6838318998925,2890.7151595000178,None,2890.7151595000178,None,2890.7151595000178,None,2890.7151595000178,None,2890.7151595000178,None,2890.7151595000178,None,2890.7151595000178,None,2890.7151595000178,None,2890.7151595000178,None,31,44,73,47,47,19,2893.232184499968,None,7.0,0.4879705999046564,2893.232184499968,None,2893.232184499968,None,2893.232184499968,None,2893.232184499968,None,None,None,2893.7359472999815,None,,,,,,,126,m,21,2022_Dec_12_1142,RL,2021.2.3,59.87475402563238,
1,63,0,63,0,,,,,,,,,,,,,,,None,None,None,None,None,2895.3566632999573,None,2895.3566632999573,None,2895.3566632999573,None,2895.3566632999573,None,j,0.2670538001693785,2895.3566632999573,None,2895.3566632999573,None,2895.7643389999866,None,2895.7643389999866,None,2895.7643389999866,None,2895.7643389999866,None,2895.7643389999866,None,2895.7643389999866,None,2896.054491699906,2897.021566099953,2896.054491699906,2897.021566099953,2897.052016899921,None,2897.052016899921,None,2897.052016899921,None,2897.052016899921,None,2897.052016899921,None,2897.052016899921,None,2897.052016899921,None,2897.052016899921,None,2897.052016899921,None,32,56,70,40,40,48,2899.5773008000106,None,7.0,0.36633590003475547,2899.5773008000106,None,2899.5773008000106,None,2899.5773008000106,None,2899.5773008000106,None,None,None,2899.9652801000047,None,,,,,,,126,m,21,2022_Dec_12_1142,RL,2021.2.3,59.87475402563238,
1,64,0,64,0,,,,,,,,,,,,,,,None,None,None,None,None,2901.6782165998593,None,2901.6782165998593,None,2901.6782165998593,None,2901.6782165998593,None,j,0.2557364001404494,2901.6782165998593,None,2901.6782165998593,None,2901.9845862998627,None,2901.9845862998627,None,2901.9845862998627,None,2901.9845862998627,None,2901.9845862998627,None,2901.9845862998627,None,2902.2753363999072,None,2902.2753363999072,None,2903.6894191999454,None,2903.6894191999454,None,2903.6894191999454,None,2903.6894191999454,None,2903.6894191999454,None,2903.6894191999454,None,2903.6894191999454,None,2903.6894191999454,None,2903.6894191999454,None,30,45,77,48,48,31,2906.2072601998225,None,7.0,0.40554390009492636,2906.2072601998225,None,2906.2072601998225,None,2906.2072601998225,None,2906.2072601998225,None,None,None,2906.6278103999794,None,,,,,,,126,m,21,2022_Dec_12_1142,RL,2021.2.3,59.87475402563238,
1,65,0,65,0,,,,,,,,,,,,,,,None,None,None,None,None,2908.315511799883,None,2908.315511799883,None,2908.315511799883,None,2908.315511799883,None,j,0.27862189989537,2908.315511799883,None,2908.315511799883,None,2908.6400479997974,None,2908.6400479997974,None,2908.6400479997974,None,2908.6400479997974,None,2908.6400479997974,None,2908.6400479997974,None,2908.930148599902,None,2908.930148599902,None,2910.345037299907,None,2910.345037299907,None,2910.345037299907,None,2910.345037299907,None,2910.345037299907,None,2910.345037299907,None,2910.345037299907,None,2910.345037299907,None,2910.345037299907,None,32,43,77,40,40,52,2912.8670937998686,None,7.0,0.43348259991034865,2912.8670937998686,None,2912.8670937998686,None,2912.8670937998686,None,2912.8670937998686,None,None,None,2913.3159278999083,None,,,,,,,126,m,21,2022_Dec_12_1142,RL,2021.2.3,59.87475402563238,
1,66,0,66,0,,,,,,,,,,,,,,,None,None,None,None,None,2915.104064399842,None,2915.104064399842,None,2915.104064399842,None,2915.104064399842,None,i,0.2902825998608023,2915.104064399842,None,2915.104064399842,None,2915.4432852999307,None,2915.4432852999307,None,2915.4432852999307,None,2915.4432852999307,None,2915.4432852999307,None,2915.4432852999307,None,2915.7346593998373,None,2915.7346593998373,None,2916.6649350998923,None,2916.6649350998923,None,2916.6649350998923,None,2916.6649350998923,None,2916.6649350998923,None,2916.6649350998923,None,2916.6649350998923,None,2916.6649350998923,None,2916.6649350998923,None,27,51,76,49,76,34,2919.18309159996,None,7.0,0.4054993998724967,2919.18309159996,None,2919.18309159996,None,2919.18309159996,None,2919.18309159996,None,None,None,2919.6045553998556,None,,,,,,,126,m,21,2022_Dec_12_1142,RL,2021.2.3,59.87475402563238,
1,67,0,67,0,,,,,,,,,,,,,,,None,None,None,None,None,2921.324935699813,None,2921.324935699813,None,2921.324935699813,None,2921.324935699813,None,i,0.2492842001374811,2921.324935699813,None,2921.324935699813,None,2921.62720979983,None,2921.62720979983,None,2921.62720979983,None,2921.62720979983,None,2921.62720979983,None,2921.62720979983,None,2921.9223052999005,2923.022850399837,2921.9223052999005,2923.022850399837,2923.059251099825,None,2923.059251099825,None,2923.059251099825,None,2923.059251099825,None,2923.059251099825,None,2923.059251099825,None,2923.059251099825,None,2923.059251099825,None,2923.059251099825,None,30,44,73,43,73,50,2925.5698916998226,None,7.0,0.40594530012458563,2925.5698916998226,None,2925.5698916998226,None,2925.5698916998226,None,2925.5698916998226,None,None,None,2925.9995206999592,None,,,,,,,126,m,21,2022_Dec_12_1142,RL,2021.2.3,59.87475402563238,
1,68,0,68,0,,,,,,,,,,,,,,,None,None,None,None,None,2927.6791377000045,None,2927.6791377000045,None,2927.6791377000045,None,2927.6791377000045,None,i,0.23506910004653037,2927.6791377000045,None,2927.6791377000045,None,2927.9683482998516,None,2927.9683482998516,None,2927.9683482998516,None,2927.9683482998516,None,2927.9683482998516,None,2927.9683482998516,None,2928.2599702998996,None,2928.2599702998996,None,2929.8730005000252,None,2929.8730005000252,None,2929.8730005000252,None,2929.8730005000252,None,2929.8730005000252,None,2929.8730005000252,None,2929.8730005000252,None,2929.8730005000252,None,2929.8730005000252,None,41,38,68,46,68,36,2932.3922857998405,None,7.0,0.38754789996892214,2932.3922857998405,None,2932.3922857998405,None,2932.3922857998405,None,2932.3922857998405,None,None,None,2932.796419699909,None,,,,,,,126,m,21,2022_Dec_12_1142,RL,2021.2.3,59.87475402563238,
1,69,0,69,0,,,,,,,,,,,,,,,None,None,None,None,None,2934.402103099972,None,2934.402103099972,None,2934.402103099972,None,2934.402103099972,None,i,0.2420974001288414,2934.402103099972,None,2934.402103099972,None,2934.6873765999917,None,2934.6873765999917,None,2934.6873765999917,None,2934.6873765999917,None,2934.6873765999917,None,2934.6873765999917,None,2934.981349800015,None,2934.981349800015,None,2936.1959782999475,None,2936.1959782999475,None,2936.1959782999475,None,2936.1959782999475,None,2936.1959782999475,None,2936.1959782999475,None,2936.1959782999475,None,2936.1959782999475,None,2936.1959782999475,None,29,39,76,42,76,34,2938.711763799889,None,7.0,0.4236658001318574,2938.711763799889,None,2938.711763799889,None,2938.711763799889,None,2938.711763799889,None,None,None,2939.1509457000066,None,,,,,,,126,m,21,2022_Dec_12_1142,RL,2021.2.3,59.87475402563238,
1,70,0,70,0,,,,,,,,,,,,,,,None,None,None,None,None,2940.754647599999,None,2940.754647599999,None,2940.754647599999,None,2940.754647599999,None,i,0.2493899001274258,2940.754647599999,None,2940.754647599999,None,2941.0596154998057,None,2941.0596154998057,None,2941.0596154998057,None,2941.0596154998057,None,2941.0596154998057,None,2941.0596154998057,None,2941.335678400006,2942.336456599878,2941.335678400006,2942.336456599878,2942.3663540999405,None,2942.3663540999405,None,2942.3663540999405,None,2942.3663540999405,None,2942.3663540999405,None,2942.3663540999405,None,2942.3663540999405,None,2942.3663540999405,None,2942.3663540999405,None,40,39,86,50,86,51,2944.887204000028,None,7.0,0.3533480998594314,2944.887204000028,None,2944.887204000028,None,2944.887204000028,None,2944.887204000028,None,None,None,2945.2547500999644,None,,,,,,,126,m,21,2022_Dec_12_1142,RL,2021.2.3,59.87475402563238,
1,71,0,71,0,,,,,,,,,,,,,,,None,None,None,None,None,2947.0928905999754,None,2947.0928905999754,None,2947.0928905999754,None,2947.0928905999754,None,i,0.24133560014888644,2947.0928905999754,None,2947.0928905999754,None,2947.3768576998264,None,2947.3768576998264,None,2947.3768576998264,None,2947.3768576998264,None,2947.3768576998264,None,2947.3768576998264,None,2947.6734232997987,None,2947.6734232997987,None,2949.193460599985,None,2949.193460599985,None,2949.193460599985,None,2949.193460599985,None,2949.193460599985,None,2949.193460599985,None,2949.193460599985,None,2949.193460599985,None,2949.193460599985,None,35,35,78,47,78,39,2951.704972999869,None,7.0,0.3876441998872906,2951.704972999869,None,2951.704972999869,None,2951.704972999869,None,2951.704972999869,None,None,None,2952.1093599000014,None,,,,,,,126,m,21,2022_Dec_12_1142,RL,2021.2.3,59.87475402563238,
1,72,0,72,0,,,,,,,,,,,,,,,None,None,None,None,None,2953.913616999984,None,2953.913616999984,None,2953.913616999984,None,2953.913616999984,None,i,0.2503457001876086,2953.913616999984,None,2953.913616999984,None,2954.2188267998863,None,2954.2188267998863,None,2954.2188267998863,None,2954.2188267998863,None,2954.2188267998863,None,2954.2188267998863,None,2954.5115584000014,None,2954.5115584000014,None,2956.1257894998416,None,2956.1257894998416,None,2956.1257894998416,None,2956.1257894998416,None,2956.1257894998416,None,2956.1257894998416,None,2956.1257894998416,None,2956.1257894998416,None,2956.1257894998416,None,36,40,78,44,78,36,2958.636272399919,None,7.0,1.0784517999272794,2958.636272399919,None,2958.636272399919,None,2958.636272399919,None,2958.636272399919,None,None,None,2959.73233719985,None,,,,,,,126,m,21,2022_Dec_12_1142,RL,2021.2.3,59.87475402563238,
1,73,0,73,0,,,,,,,,,,,,,,,None,None,None,None,None,2961.5524006998166,None,2961.5524006998166,None,2961.5524006998166,None,2961.5524006998166,None,i,0.27191240014508367,2961.5524006998166,None,2961.5524006998166,None,2961.871736599831,None,2961.871736599831,None,2961.871736599831,None,2961.871736599831,None,2961.871736599831,None,2961.871736599831,None,2962.166983400006,None,2962.166983400006,None,2964.1800849998835,None,2964.1800849998835,None,2964.1800849998835,None,2964.1800849998835,None,2964.1800849998835,None,2964.1800849998835,None,2964.1800849998835,None,2964.1800849998835,None,2964.1800849998835,None,24,43,76,49,76,46,2966.700096299872,None,7.0,0.3872012998908758,2966.700096299872,None,2966.700096299872,None,2966.700096299872,None,2966.700096299872,None,None,None,2967.1049243998714,None,,,,,,,126,m,21,2022_Dec_12_1142,RL,2021.2.3,59.87475402563238,
1,74,0,74,0,,,,,,,,,,,,,,,None,None,None,None,None,2968.8576797998976,None,2968.8576797998976,None,2968.8576797998976,None,2968.8576797998976,None,i,0.2567489999346435,2968.8576797998976,None,2968.8576797998976,None,2969.1599607998505,None,2969.1599607998505,None,2969.1599607998505,None,2969.1599607998505,None,2969.1599607998505,None,2969.1599607998505,None,2969.454986699857,None,2969.454986699857,None,2970.419004099909,None,2970.419004099909,None,2970.419004099909,None,2970.419004099909,None,2970.419004099909,None,2970.419004099909,None,2970.419004099909,None,2970.419004099909,None,2970.419004099909,None,34,36,83,43,83,38,2972.9356497998815,None,7.0,0.3899205999914557,2972.9356497998815,None,2972.9356497998815,None,2972.9356497998815,None,2972.9356497998815,None,None,None,2973.3426771999802,None,,,,,,,126,m,21,2022_Dec_12_1142,RL,2021.2.3,59.87475402563238,
1,75,0,75,0,,,,,,,,,,,,,,,2975.175554599846,None,q,2975.175554599846,None,3095.2285658000037,None,3095.2285658000037,None,3095.2285658000037,None,3095.2285658000037,None,i,0.9831133000552654,3095.2285658000037,None,3095.2285658000037,None,3096.2652751000132,None,3096.2652751000132,None,3096.2652751000132,None,3096.2652751000132,None,3096.2652751000132,None,3096.2652751000132,None,3096.5432869999204,3098.5447468999773,3096.5432869999204,3098.5447468999773,3098.577638800023,None,3098.577638800023,None,3098.577638800023,None,3098.577638800023,None,3098.577638800023,None,3098.577638800023,None,3098.577638800023,None,3098.577638800023,None,3098.577638800023,None,26,45,83,44,83,49,3101.0934397999663,None,7.0,1.807584300171584,3101.0934397999663,None,3101.0934397999663,None,3101.0934397999663,None,3101.0934397999663,None,None,None,3102.919802499935,None,120.02955750003457,,,,,,126,m,21,2022_Dec_12_1142,RL,2021.2.3,59.87475402563238,
1,76,0,76,0,,,,,,,,,,,,,,,None,None,None,None,None,3104.568635299802,None,3104.568635299802,None,3104.568635299802,None,3104.568635299802,None,i,0.2826678000856191,3104.568635299802,None,3104.568635299802,None,3104.9032296999358,None,3104.9032296999358,None,3104.9032296999358,None,3104.9032296999358,None,3104.9032296999358,None,3104.9032296999358,None,3105.1995029998943,None,3105.1995029998943,None,3106.545778399799,None,3106.545778399799,None,3106.545778399799,None,3106.545778399799,None,3106.545778399799,None,3106.545778399799,None,3106.545778399799,None,3106.545778399799,None,3106.545778399799,None,21,37,68,44,68,41,3109.064864399843,None,7.0,1.3858193000778556,3109.064864399843,None,3109.064864399843,None,3109.064864399843,None,3109.064864399843,None,None,None,3110.4693020998966,None,,,,,,,126,m,21,2022_Dec_12_1142,RL,2021.2.3,59.87475402563238,
1,77,0,77,0,,,,,,,,,,,,,,,None,None,None,None,None,3112.1401499998756,None,3112.1401499998756,None,3112.1401499998756,None,3112.1401499998756,None,i,0.26143559999763966,3112.1401499998756,None,3112.1401499998756,None,3112.442131199874,None,3112.442131199874,None,3112.442131199874,None,3112.442131199874,None,3112.442131199874,None,3112.442131199874,None,3112.738180299988,None,3112.738180299988,None,3114.6873298999853,None,3114.6873298999853,None,3114.6873298999853,None,3114.6873298999853,None,3114.6873298999853,None,3114.6873298999853,None,3114.6873298999853,None,3114.6873298999853,None,3114.6873298999853,None,21,34,71,40,71,39,3117.2070338998456,None,7.0,1.0685938999522477,3117.2070338998456,None,3117.2070338998456,None,3117.2070338998456,None,3117.2070338998456,None,None,None,3118.2914233999327,None,,,,,,,126,m,21,2022_Dec_12_1142,RL,2021.2.3,59.87475402563238,
1,78,0,78,0,,,,,,,,,,,,,,,None,None,None,None,None,3120.0790770999156,None,3120.0790770999156,None,3120.0790770999156,None,3120.0790770999156,None,i,0.28216469986364245,3120.0790770999156,None,3120.0790770999156,None,3120.414705700008,None,3120.414705700008,None,3120.414705700008,None,3120.414705700008,None,3120.414705700008,None,3120.414705700008,None,3120.7100662998855,3121.5939352998976,3120.7100662998855,3121.5939352998976,3121.627772099804,None,3121.627772099804,None,3121.627772099804,None,3121.627772099804,None,3121.627772099804,None,3121.627772099804,None,3121.627772099804,None,3121.627772099804,None,3121.627772099804,None,30,40,69,40,69,20,3124.146152799949,None,7.0,0.5333664999343455,3124.146152799949,None,3124.146152799949,None,3124.146152799949,None,3124.146152799949,None,None,None,3124.695891399868,None,,,,,,,126,m,21,2022_Dec_12_1142,RL,2021.2.3,59.87475402563238,
1,79,0,79,0,,,,,,,,,,,,,,,None,None,None,None,None,3126.64984670002,None,3126.64984670002,None,3126.64984670002,None,3126.64984670002,None,i,0.25141349993646145,3126.64984670002,None,3126.64984670002,None,3126.9537900998257,None,3126.9537900998257,None,3126.9537900998257,None,3126.9537900998257,None,3126.9537900998257,None,3126.9537900998257,None,3127.247879799921,3129.099048399832,3127.247879799921,3129.099048399832,3129.130102499854,None,3129.130102499854,None,3129.130102499854,None,3129.130102499854,None,3129.130102499854,None,3129.130102499854,None,3129.130102499854,None,3129.130102499854,None,3129.130102499854,None,27,45,76,41,76,21,3131.6471086998936,None,7.0,0.954654400004074,3131.6471086998936,None,3131.6471086998936,None,3131.6471086998936,None,3131.6471086998936,None,None,None,3132.617730299942,None,,,,,,,126,m,21,2022_Dec_12_1142,RL,2021.2.3,59.87475402563238,
1,80,0,80,0,,,,,,,,,,,,,,,None,None,None,None,None,3134.2567241999786,None,3134.2567241999786,None,3134.2567241999786,None,3134.2567241999786,None,i,0.2547627000603825,3134.2567241999786,None,3134.2567241999786,None,3134.562430899823,None,3134.562430899823,None,3134.562430899823,None,3134.562430899823,None,3134.562430899823,None,3134.562430899823,None,3134.8531660998706,None,3134.8531660998706,None,3136.1754055998754,None,3136.1754055998754,None,3136.1754055998754,None,3136.1754055998754,None,3136.1754055998754,None,3136.1754055998754,None,3136.1754055998754,None,3136.1754055998754,None,3136.1754055998754,None,25,34,74,53,74,40,3138.708518899977,None,7.0,0.865556700155139,3138.708518899977,None,3138.708518899977,None,3138.708518899977,None,3138.708518899977,None,None,None,3139.589264599839,None,,,,,,,126,m,21,2022_Dec_12_1142,RL,2021.2.3,59.87475402563238,
1,81,0,81,0,,,,,,,,,,,,,,,None,None,None,None,None,3141.545222799992,None,3141.545222799992,None,3141.545222799992,None,3141.545222799992,None,i,0.26605849992483854,3141.545222799992,None,3141.545222799992,None,3141.863384499913,None,3141.863384499913,None,3141.863384499913,None,3141.863384499913,None,3141.863384499913,None,3141.863384499913,None,3142.1583954999223,None,3142.1583954999223,None,3143.7803356999066,None,3143.7803356999066,None,3143.7803356999066,None,3143.7803356999066,None,3143.7803356999066,None,3143.7803356999066,None,3143.7803356999066,None,3143.7803356999066,None,3143.7803356999066,None,33,34,73,48,73,39,3146.297159699956,None,7.0,1.1380512998439372,3146.297159699956,None,3146.297159699956,None,3146.297159699956,None,3146.297159699956,None,None,None,3147.4452531000134,None,,,,,,,126,m,21,2022_Dec_12_1142,RL,2021.2.3,59.87475402563238,
1,82,0,82,0,,,,,,,,,,,,,,,None,None,None,None,None,3149.099615199957,None,3149.099615199957,None,3149.099615199957,None,3149.099615199957,None,i,0.27185380016453564,3149.099615199957,None,3149.099615199957,None,3149.4183819999453,None,3149.4183819999453,None,3149.4183819999453,None,3149.4183819999453,None,3149.4183819999453,None,3149.4183819999453,None,3149.713466399815,None,3149.713466399815,None,3151.6622370998375,None,3151.6622370998375,None,3151.6622370998375,None,3151.6622370998375,None,3151.6622370998375,None,3151.6622370998375,None,3151.6622370998375,None,3151.6622370998375,None,3151.6622370998375,None,25,26,68,53,68,29,3154.1842790998053,None,7.0,0.518597099930048,3154.1842790998053,None,3154.1842790998053,None,3154.1842790998053,None,3154.1842790998053,None,None,None,3154.716473599896,None,,,,,,,126,m,21,2022_Dec_12_1142,RL,2021.2.3,59.87475402563238,
1,83,0,83,0,,,,,,,,,,,,,,,None,None,None,None,None,3156.6715394000057,None,3156.6715394000057,None,3156.6715394000057,None,3156.6715394000057,None,i,0.2699899999424815,3156.6715394000057,None,3156.6715394000057,None,3156.9892368998844,None,3156.9892368998844,None,3156.9892368998844,None,3156.9892368998844,None,3156.9892368998844,None,3156.9892368998844,None,3157.2853321000002,3159.186620999826,3157.2853321000002,3159.186620999826,3159.2177707999945,None,3159.2177707999945,None,3159.2177707999945,None,3159.2177707999945,None,3159.2177707999945,None,3159.2177707999945,None,3159.2177707999945,None,3159.2177707999945,None,3159.2177707999945,None,19,36,67,52,67,18,3161.7340308998246,None,7.0,0.6738382000476122,3161.7340308998246,None,3161.7340308998246,None,3161.7340308998246,None,3161.7340308998246,None,None,None,3162.4231541999616,None,,,,,,,126,m,21,2022_Dec_12_1142,RL,2021.2.3,59.87475402563238,
1,84,0,84,0,,,,,,,,,,,,,,,None,None,None,None,None,3164.2599561999086,None,3164.2599561999086,None,3164.2599561999086,None,3164.2599561999086,None,i,0.4014218000229448,3164.2599561999086,None,3164.2599561999086,None,3164.710685999831,None,3164.710685999831,None,3164.710685999831,None,3164.710685999831,None,3164.710685999831,None,3164.710685999831,None,3165.0074515999295,3166.8918144998606,3165.0074515999295,3166.8918144998606,3166.925205499865,None,3166.925205499865,None,3166.925205499865,None,3166.925205499865,None,3166.925205499865,None,3166.925205499865,None,3166.925205499865,None,3166.925205499865,None,3166.925205499865,None,29,34,69,48,69,36,3169.442671299912,None,7.0,1.5695335001219064,3169.442671299912,None,3169.442671299912,None,3169.442671299912,None,3169.442671299912,None,None,None,3171.0280787998345,None,,,,,,,126,m,21,2022_Dec_12_1142,RL,2021.2.3,59.87475402563238,
1,85,0,85,0,,,,,,,,,,,,,,,None,None,None,None,None,3172.699494099943,None,3172.699494099943,None,3172.699494099943,None,3172.699494099943,None,i,0.3019487999845296,3172.699494099943,None,3172.699494099943,None,3173.052394099999,None,3173.052394099999,None,3173.052394099999,None,3173.052394099999,None,3173.052394099999,None,3173.052394099999,None,3173.3465936998837,None,3173.3465936998837,None,3174.1968107998837,None,3174.1968107998837,None,3174.1968107998837,None,3174.1968107998837,None,3174.1968107998837,None,3174.1968107998837,None,3174.1968107998837,None,3174.1968107998837,None,3174.1968107998837,None,30,33,66,55,66,38,3176.713327199919,None,7.0,0.4715503000188619,3176.713327199919,None,3176.713327199919,None,3176.713327199919,None,3176.713327199919,None,None,None,3177.1986399998423,None,,,,,,,126,m,21,2022_Dec_12_1142,RL,2021.2.3,59.87475402563238,
1,86,0,86,0,,,,,,,,,,,,,,,None,None,None,None,None,3178.9371891999617,None,3178.9371891999617,None,3178.9371891999617,None,3178.9371891999617,None,i,0.2743108000140637,3178.9371891999617,None,3178.9371891999617,None,3179.2613679999486,None,3179.2613679999486,None,3179.2613679999486,None,3179.2613679999486,None,3179.2613679999486,None,3179.2613679999486,None,3179.550945799798,None,3179.550945799798,None,3181.483621499967,None,3181.483621499967,None,3181.483621499967,None,3181.483621499967,None,3181.483621499967,None,3181.483621499967,None,3181.483621499967,None,3181.483621499967,None,3181.483621499967,None,34,31,67,53,67,38,3184.001524299849,None,7.0,0.4203030997887254,3184.001524299849,None,3184.001524299849,None,3184.001524299849,None,3184.001524299849,None,None,None,3184.4372188998386,None,,,,,,,126,m,21,2022_Dec_12_1142,RL,2021.2.3,59.87475402563238,
1,87,0,87,0,,,,,,,,,,,,,,,None,None,None,None,None,3186.3583193998784,None,3186.3583193998784,None,3186.3583193998784,None,3186.3583193998784,None,i,0.23321139998733997,3186.3583193998784,None,3186.3583193998784,None,3186.6428922999185,None,3186.6428922999185,None,3186.6428922999185,None,3186.6428922999185,None,3186.6428922999185,None,3186.6428922999185,None,3186.939319099998,3188.123277399922,3186.939319099998,3188.123277399922,3188.1564077998046,None,3188.1564077998046,None,3188.1564077998046,None,3188.1564077998046,None,3188.1564077998046,None,3188.1564077998046,None,3188.1564077998046,None,3188.1564077998046,None,3188.1564077998046,None,19,38,65,53,65,42,3190.6710208998993,None,7.0,1.2729939999990165,3190.6710208998993,None,3190.6710208998993,None,3190.6710208998993,None,3190.6710208998993,None,None,None,3191.9633134999312,None,,,,,,,126,m,21,2022_Dec_12_1142,RL,2021.2.3,59.87475402563238,
1,88,0,88,0,,,,,,,,,,,,,,,None,None,None,None,None,3193.597066799877,None,3193.597066799877,None,3193.597066799877,None,3193.597066799877,None,i,0.2847306998446584,3193.597066799877,None,3193.597066799877,None,3193.932883600006,None,3193.932883600006,None,3193.932883600006,None,3193.932883600006,None,3193.932883600006,None,3193.932883600006,None,3194.2277939999476,None,3194.2277939999476,None,3196.174613100011,None,3196.174613100011,None,3196.174613100011,None,3196.174613100011,None,3196.174613100011,None,3196.174613100011,None,3196.174613100011,None,3196.174613100011,None,3196.174613100011,None,22,43,65,41,65,33,3198.6889088999014,None,7.0,2.361059899907559,3198.6889088999014,None,3198.6889088999014,None,3198.6889088999014,None,3198.6889088999014,None,None,None,3201.0656092998106,None,,,,,,,126,m,21,2022_Dec_12_1142,RL,2021.2.3,59.87475402563238,
1,89,0,89,0,,,,,,,,,,,,,,,None,None,None,None,None,3202.970528899925,None,3202.970528899925,None,3202.970528899925,None,3202.970528899925,None,i,0.30125060002319515,3202.970528899925,None,3202.970528899925,None,3203.3256231998093,None,3203.3256231998093,None,3203.3256231998093,None,3203.3256231998093,None,3203.3256231998093,None,3203.3256231998093,None,3203.6177521999925,None,3203.6177521999925,None,3204.8985241998453,None,3204.8985241998453,None,3204.8985241998453,None,3204.8985241998453,None,3204.8985241998453,None,3204.8985241998453,None,3204.8985241998453,None,3204.8985241998453,None,3204.8985241998453,None,30,29,58,53,58,27,3207.4196553998627,None,7.0,1.0853135001379997,3207.4196553998627,None,3207.4196553998627,None,3207.4196553998627,None,3207.4196553998627,None,None,None,3208.5279424998444,None,,,,,,,126,m,21,2022_Dec_12_1142,RL,2021.2.3,59.87475402563238,
1,90,0,90,0,,,,,,,,,,,,,,,None,None,None,None,None,3210.191518599866,None,3210.191518599866,None,3210.191518599866,None,3210.191518599866,None,i,0.29015250015072525,3210.191518599866,None,3210.191518599866,None,3210.5290557998233,None,3210.5290557998233,None,3210.5290557998233,None,3210.5290557998233,None,3210.5290557998233,None,3210.5290557998233,None,3210.8059745999053,3212.4902337999083,3210.8059745999053,3212.4902337999083,3212.5376869998872,None,3212.5376869998872,None,3212.5376869998872,None,3212.5376869998872,None,3212.5376869998872,None,3212.5376869998872,None,3212.5376869998872,None,3212.5376869998872,None,3212.5376869998872,None,25,25,65,46,65,35,3215.0553995999508,None,7.0,0.4068252998404205,3215.0553995999508,None,3215.0553995999508,None,3215.0553995999508,None,3215.0553995999508,None,None,None,3215.4754764998797,None,,,,,,,126,m,21,2022_Dec_12_1142,RL,2021.2.3,59.87475402563238,
1,91,0,91,0,,,,,,,,,,,,,,,None,None,None,None,None,3217.2127254998777,None,3217.2127254998777,None,3217.2127254998777,None,3217.2127254998777,None,i,0.3894462001044303,3217.2127254998777,None,3217.2127254998777,None,3217.6485418998636,None,3217.6485418998636,None,3217.6485418998636,None,3217.6485418998636,None,3217.6485418998636,None,3217.6485418998636,None,3217.944096499821,None,3217.944096499821,None,3219.0600383998826,None,3219.0600383998826,None,3219.0600383998826,None,3219.0600383998826,None,3219.0600383998826,None,3219.0600383998826,None,3219.0600383998826,None,3219.0600383998826,None,3219.0600383998826,None,27,32,60,46,60,37,3221.575965899974,None,7.0,1.1387891999911517,3221.575965899974,None,3221.575965899974,None,3221.575965899974,None,3221.575965899974,None,None,None,3222.739101599902,None,,,,,,,126,m,21,2022_Dec_12_1142,RL,2021.2.3,59.87475402563238,
1,92,0,92,0,,,,,,,,,,,,,,,None,None,None,None,None,3224.618650099961,None,3224.618650099961,None,3224.618650099961,None,3224.618650099961,None,i,0.24426690000109375,3224.618650099961,None,3224.618650099961,None,3224.9051307998598,None,3224.9051307998598,None,3224.9051307998598,None,3224.9051307998598,None,3224.9051307998598,None,3224.9051307998598,None,3225.1991546999197,None,3225.1991546999197,None,3227.134327000007,None,3227.134327000007,None,3227.134327000007,None,3227.134327000007,None,3227.134327000007,None,3227.134327000007,None,3227.134327000007,None,3227.134327000007,None,3227.134327000007,None,44,32,65,42,65,43,3229.6474609998986,None,7.0,0.8902523000724614,3229.6474609998986,None,3229.6474609998986,None,3229.6474609998986,None,3229.6474609998986,None,None,None,3230.5572956998367,None,,,,,,,126,m,21,2022_Dec_12_1142,RL,2021.2.3,59.87475402563238,
1,93,0,93,0,,,,,,,,,,,,,,,None,None,None,None,None,3232.1732407999225,None,3232.1732407999225,None,3232.1732407999225,None,3232.1732407999225,None,i,0.27977759996429086,3232.1732407999225,None,3232.1732407999225,None,3232.4929978,None,3232.4929978,None,3232.4929978,None,3232.4929978,None,3232.4929978,None,3232.4929978,None,3232.7877477998845,None,3232.7877477998845,None,3234.319262899924,None,3234.319262899924,None,3234.319262899924,None,3234.319262899924,None,3234.319262899924,None,3234.319262899924,None,3234.319262899924,None,3234.319262899924,None,3234.319262899924,None,35,27,69,52,69,48,3236.835547799943,None,7.0,0.4566042998339981,3236.835547799943,None,3236.835547799943,None,3236.835547799943,None,3236.835547799943,None,None,None,3237.318896899931,None,,,,,,,126,m,21,2022_Dec_12_1142,RL,2021.2.3,59.87475402563238,
1,94,0,94,0,,,,,,,,,,,,,,,None,None,None,None,None,3239.178693599999,None,3239.178693599999,None,3239.178693599999,None,3239.178693599999,None,i,0.2839054998476058,3239.178693599999,None,3239.178693599999,None,3239.513344899984,None,3239.513344899984,None,3239.513344899984,None,3239.513344899984,None,3239.513344899984,None,3239.513344899984,None,3239.8092550998554,None,3239.8092550998554,None,3241.3440721998923,None,3241.3440721998923,None,3241.3440721998923,None,3241.3440721998923,None,3241.3440721998923,None,3241.3440721998923,None,3241.3440721998923,None,3241.3440721998923,None,3241.3440721998923,None,29,31,69,38,69,55,3243.860914699966,None,7.0,1.0862495999317616,3243.860914699966,None,3243.860914699966,None,3243.860914699966,None,3243.860914699966,None,None,None,3244.9673183998093,None,,,,,,,126,m,21,2022_Dec_12_1142,RL,2021.2.3,59.87475402563238,
1,95,0,95,0,,,,,,,,,,,,,,,None,None,None,None,None,3246.4833351999987,None,3246.4833351999987,None,3246.4833351999987,None,3246.4833351999987,None,i,0.2897503001149744,3246.4833351999987,None,3246.4833351999987,None,3246.818334599957,None,3246.818334599957,None,3246.818334599957,None,3246.818334599957,None,3246.818334599957,None,3246.818334599957,None,3247.114280699985,None,3247.114280699985,None,3248.208892799914,None,3248.208892799914,None,3248.208892799914,None,3248.208892799914,None,3248.208892799914,None,3248.208892799914,None,3248.208892799914,None,3248.208892799914,None,3248.208892799914,None,23,36,76,48,76,55,3250.731775699882,None,7.0,0.5854725998360664,3250.731775699882,None,3250.731775699882,None,3250.731775699882,None,3250.731775699882,None,None,None,3251.3332856998313,None,,,,,,,126,m,21,2022_Dec_12_1142,RL,2021.2.3,59.87475402563238,
1,96,0,96,0,,,,,,,,,,,,,,,None,None,None,None,None,3253.1883841999806,None,3253.1883841999806,None,3253.1883841999806,None,3253.1883841999806,None,i,0.244686100166291,3253.1883841999806,None,3253.1883841999806,None,3253.478459500009,None,3253.478459500009,None,3253.478459500009,None,3253.478459500009,None,3253.478459500009,None,3253.478459500009,None,3253.76903570001,3254.669458999997,3253.76903570001,3254.669458999997,3254.7064757999033,None,3254.7064757999033,None,3254.7064757999033,None,3254.7064757999033,None,3254.7064757999033,None,3254.7064757999033,None,3254.7064757999033,None,3254.7064757999033,None,3254.7064757999033,None,29,36,68,50,68,41,3257.234605799895,None,7.0,0.8866950999945402,3257.234605799895,None,3257.234605799895,None,3257.234605799895,None,3257.234605799895,None,None,None,3258.138204299845,None,,,,,,,126,m,21,2022_Dec_12_1142,RL,2021.2.3,59.87475402563238,
1,97,0,97,0,,,,,,,,,,,,,,,None,None,None,None,None,3259.89262339985,None,3259.89262339985,None,3259.89262339985,None,3259.89262339985,None,i,0.28046909999102354,3259.89262339985,None,3259.89262339985,None,3260.212144399993,None,3260.212144399993,None,3260.212144399993,None,3260.212144399993,None,3260.212144399993,None,3260.212144399993,None,3260.5069378998596,None,3260.5069378998596,None,3262.0213772999123,None,3262.0213772999123,None,3262.0213772999123,None,3262.0213772999123,None,3262.0213772999123,None,3262.0213772999123,None,3262.0213772999123,None,3262.0213772999123,None,3262.0213772999123,None,36,31,66,39,66,28,3264.539269299945,None,7.0,0.3557740000542253,3264.539269299945,None,3264.539269299945,None,3264.539269299945,None,3264.539269299945,None,None,None,3264.9095161999576,None,,,,,,,126,m,21,2022_Dec_12_1142,RL,2021.2.3,59.87475402563238,
1,98,0,98,0,,,,,,,,,,,,,,,None,None,None,None,None,3266.630901499884,None,3266.630901499884,None,3266.630901499884,None,3266.630901499884,None,i,0.252123000100255,3266.630901499884,None,3266.630901499884,None,3266.9353986999486,None,3266.9353986999486,None,3266.9353986999486,None,3266.9353986999486,None,3266.9353986999486,None,3266.9353986999486,None,3267.2282388999593,None,3267.2282388999593,None,3268.4267448999453,None,3268.4267448999453,None,3268.4267448999453,None,3268.4267448999453,None,3268.4267448999453,None,3268.4267448999453,None,3268.4267448999453,None,3268.4267448999453,None,3268.4267448999453,None,30,41,71,39,71,61,3270.9432272999547,None,7.0,0.3704657999332994,3270.9432272999547,None,3270.9432272999547,None,3270.9432272999547,None,3270.9432272999547,None,None,None,3271.3309716999065,None,,,,,,,126,m,21,2022_Dec_12_1142,RL,2021.2.3,59.87475402563238,
1,99,0,99,0,,,,,,,,,,,,,,,None,None,None,None,None,3273.335056199925,None,3273.335056199925,None,3273.335056199925,None,3273.335056199925,None,i,0.277813000138849,3273.335056199925,None,3273.335056199925,None,3273.6528967998456,None,3273.6528967998456,None,3273.6528967998456,None,3273.6528967998456,None,3273.6528967998456,None,3273.6528967998456,None,3273.9496464999393,None,3273.9496464999393,None,3275.931126399897,None,3275.931126399897,None,3275.931126399897,None,3275.931126399897,None,3275.931126399897,None,3275.931126399897,None,3275.931126399897,None,3275.931126399897,None,3275.931126399897,None,44,36,76,35,76,49,3278.448741099797,None,7.0,0.405234299832955,3278.448741099797,None,3278.448741099797,None,3278.448741099797,None,3278.448741099797,None,None,None,3278.8728246998508,None,,,,,,,126,m,21,2022_Dec_12_1142,RL,2021.2.3,59.87475402563238,
1,100,0,100,0,,,,,,,,,,,,,,,None,None,None,None,None,3280.439458000008,None,3280.439458000008,None,3280.439458000008,None,3280.439458000008,None,i,0.27356320014223456,3280.439458000008,None,3280.439458000008,None,3280.769617599901,None,3280.769617599901,None,3280.769617599901,None,3280.769617599901,None,3280.769617599901,None,3280.769617599901,None,3281.0547315999866,3282.438913699938,3281.0547315999866,3282.438913699938,3282.4696409997996,None,3282.4696409997996,None,3282.4696409997996,None,3282.4696409997996,None,3282.4696409997996,None,3282.4696409997996,None,3282.4696409997996,None,3282.4696409997996,None,3282.4696409997996,None,40,37,71,38,71,41,3284.992258499842,None,7.0,0.566867999965325,3284.992258499842,None,3284.992258499842,None,3284.992258499842,None,3284.992258499842,None,None,None,3285.573599800002,None,,,,,,,126,m,21,2022_Dec_12_1142,RL,2021.2.3,59.87475402563238,
1,101,0,101,0,,,,,,,,,,,,,,,None,None,None,None,None,3287.411608699942,None,3287.411608699942,None,3287.411608699942,None,3287.411608699942,None,i,0.23176019988022745,3287.411608699942,None,3287.411608699942,None,3287.6821880999487,None,3287.6821880999487,None,3287.6821880999487,None,3287.6821880999487,None,3287.6821880999487,None,3287.6821880999487,None,3287.9761015998665,None,3287.9761015998665,None,3289.0900612999685,None,3289.0900612999685,None,3289.0900612999685,None,3289.0900612999685,None,3289.0900612999685,None,3289.0900612999685,None,3289.0900612999685,None,3289.0900612999685,None,3289.0900612999685,None,38,37,80,38,80,45,3291.6085846999194,None,7.0,2.737418800126761,3291.6085846999194,None,3291.6085846999194,None,3291.6085846999194,None,3291.6085846999194,None,None,None,3294.370566899888,None,,,,,,,126,m,21,2022_Dec_12_1142,RL,2021.2.3,59.87475402563238,
1,102,0,102,0,,,,,,,,,,,,,,,None,None,None,None,None,3295.9170274999924,None,3295.9170274999924,None,3295.9170274999924,None,3295.9170274999924,None,i,0.455949499970302,3295.9170274999924,None,3295.9170274999924,None,3296.4223113998305,None,3296.4223113998305,None,3296.4223113998305,None,3296.4223113998305,None,3296.4223113998305,None,3296.4223113998305,None,3296.715380099835,None,3296.715380099835,None,3297.946346799843,None,3297.946346799843,None,3297.946346799843,None,3297.946346799843,None,3297.946346799843,None,3297.946346799843,None,3297.946346799843,None,3297.946346799843,None,3297.946346799843,None,30,32,72,40,72,31,3300.4665834999178,None,7.0,1.0532914998475462,3300.4665834999178,None,3300.4665834999178,None,3300.4665834999178,None,3300.4665834999178,None,None,None,3301.534945699852,None,,,,,,,126,m,21,2022_Dec_12_1142,RL,2021.2.3,59.87475402563238,
1,103,0,103,0,,,,,,,,,,,,,,,None,None,None,None,None,3303.238949300023,None,3303.238949300023,None,3303.238949300023,None,3303.238949300023,None,i,0.2644948000088334,3303.238949300023,None,3303.238949300023,None,3303.544637899846,None,3303.544637899846,None,3303.544637899846,None,3303.544637899846,None,3303.544637899846,None,3303.544637899846,None,3303.8369801000226,3305.0043106998783,3303.8369801000226,3305.0043106998783,3305.034781299997,None,3305.034781299997,None,3305.034781299997,None,3305.034781299997,None,3305.034781299997,None,3305.034781299997,None,3305.034781299997,None,3305.034781299997,None,3305.034781299997,None,34,30,88,54,88,56,3307.552604999859,None,7.0,0.9696315999608487,3307.552604999859,None,3307.552604999859,None,3307.552604999859,None,3307.552604999859,None,None,None,3308.5402748999186,None,,,,,,,126,m,21,2022_Dec_12_1142,RL,2021.2.3,59.87475402563238,
1,104,0,104,0,,,,,,,,,,,,,,,None,None,None,None,None,3310.2775100998115,None,3310.2775100998115,None,3310.2775100998115,None,3310.2775100998115,None,i,0.2857155001256615,3310.2775100998115,None,3310.2775100998115,None,3310.6128425998613,None,3310.6128425998613,None,3310.6128425998613,None,3310.6128425998613,None,3310.6128425998613,None,3310.6128425998613,None,3310.908525199862,3312.359478399856,3310.908525199862,3312.359478399856,3312.3896721999627,None,3312.3896721999627,None,3312.3896721999627,None,3312.3896721999627,None,3312.3896721999627,None,3312.3896721999627,None,3312.3896721999627,None,3312.3896721999627,None,3312.3896721999627,None,16,41,78,44,78,40,3314.907244300004,None,7.0,0.7894850999582559,3314.907244300004,None,3314.907244300004,None,3314.907244300004,None,3314.907244300004,None,None,None,3315.711696599843,None,,,,,,,126,m,21,2022_Dec_12_1142,RL,2021.2.3,59.87475402563238,
1,105,0,105,0,,,,,,,,,,,,,,,None,None,None,None,None,3317.632880399935,None,3317.632880399935,None,3317.632880399935,None,3317.632880399935,None,i,0.2906492000911385,3317.632880399935,None,3317.632880399935,None,3317.967421799898,None,3317.967421799898,None,3317.967421799898,None,3317.967421799898,None,3317.967421799898,None,3317.967421799898,None,3318.2635666998103,3320.0816709999926,3318.2635666998103,3320.0816709999926,3320.1165006000083,None,3320.1165006000083,None,3320.1165006000083,None,3320.1165006000083,None,3320.1165006000083,None,3320.1165006000083,None,3320.1165006000083,None,3320.1165006000083,None,3320.1165006000083,None,21,27,72,50,72,58,3322.630302199861,None,7.0,0.37093520001508296,3322.630302199861,None,3322.630302199861,None,3322.630302199861,None,3322.630302199861,None,None,None,3323.017186800018,None,,,,,,,126,m,21,2022_Dec_12_1142,RL,2021.2.3,59.87475402563238,
1,106,0,106,0,,,,,,,,,,,,,,,None,None,None,None,None,3324.887855199864,None,3324.887855199864,None,3324.887855199864,None,3324.887855199864,None,i,0.23547459999099374,3324.887855199864,None,3324.887855199864,None,3325.1722026998177,None,3325.1722026998177,None,3325.1722026998177,None,3325.1722026998177,None,3325.1722026998177,None,3325.1722026998177,None,3325.4687624999788,None,3325.4687624999788,None,3327.282920599915,None,3327.282920599915,None,3327.282920599915,None,3327.282920599915,None,3327.282920599915,None,3327.282920599915,None,3327.282920599915,None,3327.282920599915,None,3327.282920599915,None,21,32,86,44,86,61,3329.800241000019,None,7.0,0.42239549988880754,3329.800241000019,None,3329.800241000019,None,3329.800241000019,None,3329.800241000019,None,None,None,3330.238112999825,None,,,,,,,126,m,21,2022_Dec_12_1142,RL,2021.2.3,59.87475402563238,
1,107,0,107,0,,,,,,,,,,,,,,,None,None,None,None,None,3331.9246400999837,None,3331.9246400999837,None,3331.9246400999837,None,3331.9246400999837,None,i,0.26885020011104643,3331.9246400999837,None,3331.9246400999837,None,3332.2464338999707,None,3332.2464338999707,None,3332.2464338999707,None,3332.2464338999707,None,3332.2464338999707,None,3332.2464338999707,None,3332.523545200005,3334.1413040999323,3332.523545200005,3334.1413040999323,3334.1919666000176,None,3334.1919666000176,None,3334.1919666000176,None,3334.1919666000176,None,3334.1919666000176,None,3334.1919666000176,None,3334.1919666000176,None,3334.1919666000176,None,3334.1919666000176,None,18,34,75,41,75,56,3336.710626799846,None,7.0,1.0510273999534547,3336.710626799846,None,3336.710626799846,None,3336.710626799846,None,3336.710626799846,None,None,None,3337.7766330998857,None,,,,,,,126,m,21,2022_Dec_12_1142,RL,2021.2.3,59.87475402563238,
1,108,0,108,0,,,,,,,,,,,,,,,None,None,None,None,None,3339.6985148999374,None,3339.6985148999374,None,3339.6985148999374,None,3339.6985148999374,None,i,0.26498450012877584,3339.6985148999374,None,3339.6985148999374,None,3340.0201051998883,None,3340.0201051998883,None,3340.0201051998883,None,3340.0201051998883,None,3340.0201051998883,None,3340.0201051998883,None,3340.3122019998264,None,3340.3122019998264,None,3342.043788299896,None,3342.043788299896,None,3342.043788299896,None,3342.043788299896,None,3342.043788299896,None,3342.043788299896,None,3342.043788299896,None,3342.043788299896,None,3342.043788299896,None,28,35,83,48,83,30,3344.5643855999224,None,7.0,0.7850331000518054,3344.5643855999224,None,3344.5643855999224,None,3344.5643855999224,None,3344.5643855999224,None,None,None,3345.365563899977,None,,,,,,,126,m,21,2022_Dec_12_1142,RL,2021.2.3,59.87475402563238,
1,109,0,109,0,,,,,,,,,,,,,,,None,None,None,None,None,3346.9696459998377,None,3346.9696459998377,None,3346.9696459998377,None,3346.9696459998377,None,i,0.383790299994871,3346.9696459998377,None,3346.9696459998377,None,3347.408404199872,None,3347.408404199872,None,3347.408404199872,None,3347.408404199872,None,3347.408404199872,None,3347.408404199872,None,3347.700931799831,3349.6351683998946,3347.700931799831,3349.6351683998946,3349.6674361999612,None,3349.6674361999612,None,3349.6674361999612,None,3349.6674361999612,None,3349.6674361999612,None,3349.6674361999612,None,3349.6674361999612,None,3349.6674361999612,None,3349.6674361999612,None,19,34,77,42,77,59,3352.1819913999643,None,7.0,0.38787760003469884,3352.1819913999643,None,3352.1819913999643,None,3352.1819913999643,None,3352.1819913999643,None,None,None,3352.5873167000245,None,,,,,,,126,m,21,2022_Dec_12_1142,RL,2021.2.3,59.87475402563238,
1,110,0,110,0,,,,,,,,,,,,,,,None,None,None,None,None,3354.3079848999623,None,3354.3079848999623,None,3354.3079848999623,None,3354.3079848999623,None,i,0.2653560999315232,3354.3079848999623,None,3354.3079848999623,None,3354.6106159999035,None,3354.6106159999035,None,3354.6106159999035,None,3354.6106159999035,None,3354.6106159999035,None,3354.6106159999035,None,3354.9057589999866,None,3354.9057589999866,None,3356.6065355998,None,3356.6065355998,None,3356.6065355998,None,3356.6065355998,None,3356.6065355998,None,3356.6065355998,None,3356.6065355998,None,3356.6065355998,None,3356.6065355998,None,17,29,76,42,76,66,3359.121142799966,None,7.0,0.387580499984324,3359.121142799966,None,3359.121142799966,None,3359.121142799966,None,3359.121142799966,None,None,None,3359.5251323999837,None,,,,,,,126,m,21,2022_Dec_12_1142,RL,2021.2.3,59.87475402563238,
