bandit,trials.thisRepN,trials.thisTrialN,trials.thisN,trials.thisIndex,instru_img1.started,instru_img1.stopped,instru_resp.keys,instru_resp.rt,instru_resp.started,instru_resp.stopped,instru_img2.started,instru_img2.stopped,instru_resp2.keys,instru_resp2.rt,instru_resp2.started,instru_resp2.stopped,fixbefore_2.started,fixbefore_2.stopped,rest_image.started,rest_image.stopped,rest_response.keys,rest_response.started,rest_response.stopped,red.started,red.stopped,green.started,green.stopped,yellow.started,yellow.stopped,blue.started,blue.stopped,choose_bandit.keys,choose_bandit.rt,choose_bandit.started,choose_bandit.stopped,Fixation.started,Fixation.stopped,black.started,black.stopped,red_2.started,red_2.stopped,green_2.started,green_2.stopped,yellow_2.started,yellow_2.stopped,blue_2.started,blue_2.stopped,fixation_2.started,fixation_2.stopped,docs.started,docs.stopped,image_2.started,image_2.stopped,black_com.started,black_com.stopped,reward_sub.started,reward_sub.stopped,palyerb.started,palyerb.stopped,reward__sub.started,reward__sub.stopped,compare.started,compare.stopped,red_compare.started,red_compare.stopped,green_com.started,green_com.stopped,yellow_com.started,yellow_com.stopped,blue_com.started,blue_com.stopped,rewardyellow,rewardred,rewardblue,rewardgreen,subchoose,playerb,image_3.started,image_3.stopped,slider.response,slider.rt,slider.started,slider.stopped,text.started,text.stopped,image_4.started,image_4.stopped,image_5.started,image_5.stopped,bigx.started,bigx.stopped,intertrialfix.started,intertrialfix.stopped,rest_response.rt,image.started,image.stopped,key_resp.keys,key_resp.started,key_resp.stopped,participant,Gender,Age,date,expName,psychopyVersion,frameRate,
,,,,,5085.162397600012,None,space,58.235366499982774,5085.162397600012,None,,,,,,,,,,,,,,,,,,,,,,,,,,,,,,,,,,,,,,,,,,,,,,,,,,,,,,,,,,,,,,,,,,,,,,,,,,,,,,,,,,,,,,,,,,127,f,1,2022_Dec_12_1342,RL,2021.2.3,59.86779990728128,
,,,,,,,,,,,5143.41860269988,None,space,44.47439319989644,5143.41860269988,None,,,,,,,,,,,,,,,,,,,,,,,,,,,,,,,,,,,,,,,,,,,,,,,,,,,,,,,,,,,,,,,,,,,,,,,,,,,,,,,,,,,,127,f,1,2022_Dec_12_1342,RL,2021.2.3,59.86779990728128,
1,0,0,0,0,,,,,,,,,,,,,5187.934107299894,None,None,None,None,None,None,5188.956811399898,None,5188.956811399898,None,5188.956811399898,None,5188.956811399898,None,r,1.454470899887383,5188.956811399898,None,5188.956811399898,None,5190.4664077998605,None,5190.4664077998605,None,5190.4664077998605,None,5190.4664077998605,None,5190.4664077998605,None,5190.4664077998605,None,5190.7659247999545,None,5190.7659247999545,None,5192.006903899834,None,5192.006903899834,None,5192.006903899834,None,5192.006903899834,None,5192.006903899834,None,5192.006903899834,None,5192.006903899834,None,5192.006903899834,None,5192.006903899834,None,30,61,36,54,30,62,5194.534371200018,None,4.0,4.551320200087503,5194.534371200018,None,5194.534371200018,None,5194.534371200018,None,5194.534371200018,None,None,None,5199.124787299894,None,,,,,,,127,f,1,2022_Dec_12_1342,RL,2021.2.3,59.86779990728128,
1,1,0,1,0,,,,,,,,,,,,,,,None,None,None,None,None,5200.843665499939,None,5200.843665499939,None,5200.843665499939,None,5200.843665499939,None,None,,5200.843665499939,None,5200.843665499939,None,None,None,None,None,None,None,None,None,None,None,None,None,None,None,None,None,None,None,None,None,None,None,None,None,None,None,None,None,None,None,None,None,None,None,31,51,37,47,0,**,None,None,None,None,None,None,None,None,None,None,None,None,5202.403292499948,None,5206.91010229988,None,,,,,,,127,f,1,2022_Dec_12_1342,RL,2021.2.3,59.86779990728128,
1,2,0,2,0,,,,,,,,,,,,,,,None,None,None,None,None,5208.898687899811,None,5208.898687899811,None,5208.898687899811,None,5208.898687899811,None,f,0.8326832000166178,5208.898687899811,None,5208.898687899811,None,5209.784950299887,None,5209.784950299887,None,5209.784950299887,None,5209.784950299887,None,5209.784950299887,None,5209.784950299887,None,5210.079435999971,None,5210.079435999971,None,5211.899187600007,None,5211.899187600007,None,5211.899187600007,None,5211.899187600007,None,5211.899187600007,None,5211.899187600007,None,5211.899187600007,None,5211.899187600007,None,5211.899187600007,None,36,54,31,58,54,60,5214.412664399948,None,3.0,2.039409900084138,5214.412664399948,None,5214.412664399948,None,5214.412664399948,None,5214.412664399948,None,None,None,5216.471176299965,None,,,,,,,127,f,1,2022_Dec_12_1342,RL,2021.2.3,59.86779990728128,
1,3,0,3,0,,,,,,,,,,,,,,,None,None,None,None,None,5218.440195299918,None,5218.440195299918,None,5218.440195299918,None,5218.440195299918,None,j,0.36171879991889,5218.440195299918,None,5218.440195299918,None,5218.841340799816,None,5218.841340799816,None,5218.841340799816,None,5218.841340799816,None,5218.841340799816,None,5218.841340799816,None,5219.135735499905,5220.0695141998585,5219.135735499905,5220.0695141998585,5220.104759000009,None,5220.104759000009,None,5220.104759000009,None,5220.104759000009,None,5220.104759000009,None,5220.104759000009,None,5220.104759000009,None,5220.104759000009,None,5220.104759000009,None,35,54,34,54,54,71,5222.61772819981,None,3.0,2.08951329998672,5222.61772819981,None,5222.61772819981,None,5222.61772819981,None,5222.61772819981,None,None,None,5224.723034399794,None,,,,,,,127,f,1,2022_Dec_12_1342,RL,2021.2.3,59.86779990728128,
1,4,0,4,0,,,,,,,,,,,,,,,None,None,None,None,None,5226.610812499886,None,5226.610812499886,None,5226.610812499886,None,5226.610812499886,None,i,0.3706001997925341,5226.610812499886,None,5226.610812499886,None,5227.025486700004,None,5227.025486700004,None,5227.025486700004,None,5227.025486700004,None,5227.025486700004,None,5227.025486700004,None,5227.324724599952,None,5227.324724599952,None,5228.6923916998785,None,5228.6923916998785,None,5228.6923916998785,None,5228.6923916998785,None,5228.6923916998785,None,5228.6923916998785,None,5228.6923916998785,None,5228.6923916998785,None,5228.6923916998785,None,28,44,24,49,24,76,5231.207476099953,None,2.0,2.088678800035268,5231.207476099953,None,5231.207476099953,None,5231.207476099953,None,5231.207476099953,None,None,None,5233.316595599987,None,,,,,,,127,f,1,2022_Dec_12_1342,RL,2021.2.3,59.86779990728128,
1,5,0,5,0,,,,,,,,,,,,,,,None,None,None,None,None,5235.21657589986,None,5235.21657589986,None,5235.21657589986,None,5235.21657589986,None,r,0.3047666000202298,5235.21657589986,None,5235.21657589986,None,5235.569398699794,None,5235.569398699794,None,5235.569398699794,None,5235.569398699794,None,5235.569398699794,None,5235.569398699794,None,5235.863968899939,None,5235.863968899939,None,5237.363436899846,None,5237.363436899846,None,5237.363436899846,None,5237.363436899846,None,5237.363436899846,None,5237.363436899846,None,5237.363436899846,None,5237.363436899846,None,5237.363436899846,None,38,45,32,50,38,80,5239.878664099844,None,2.0,1.239694100106135,5239.878664099844,None,5239.878664099844,None,5239.878664099844,None,5239.878664099844,None,None,None,5241.133591199992,None,,,,,,,127,f,1,2022_Dec_12_1342,RL,2021.2.3,59.86779990728128,
1,6,0,6,0,,,,,,,,,,,,,,,None,None,None,None,None,5242.87186139985,None,5242.87186139985,None,5242.87186139985,None,5242.87186139985,None,i,0.44941230001859367,5242.87186139985,None,5242.87186139985,None,5243.373488100013,None,5243.373488100013,None,5243.373488100013,None,5243.373488100013,None,5243.373488100013,None,5243.373488100013,None,5243.669359199936,None,5243.669359199936,None,5245.5335456000175,None,5245.5335456000175,None,5245.5335456000175,None,5245.5335456000175,None,5245.5335456000175,None,5245.5335456000175,None,5245.5335456000175,None,5245.5335456000175,None,5245.5335456000175,None,25,45,35,50,35,75,5248.048014299944,None,3.0,1.9078152000438422,5248.048014299944,None,5248.048014299944,None,5248.048014299944,None,5248.048014299944,None,None,None,5249.9732491998,None,,,,,,,127,f,1,2022_Dec_12_1342,RL,2021.2.3,59.86779990728128,
1,7,0,7,0,,,,,,,,,,,,,,,None,None,None,None,None,5251.67821449996,None,5251.67821449996,None,5251.67821449996,None,5251.67821449996,None,j,0.3530838000588119,5251.67821449996,None,5251.67821449996,None,5252.080207899911,None,5252.080207899911,None,5252.080207899911,None,5252.080207899911,None,5252.080207899911,None,5252.080207899911,None,5252.375266099814,None,5252.375266099814,None,5253.813412799966,None,5253.813412799966,None,5253.813412799966,None,5253.813412799966,None,5253.813412799966,None,5253.813412799966,None,5253.813412799966,None,5253.813412799966,None,5253.813412799966,None,28,46,34,54,54,70,5256.345122599974,None,3.0,0.7684236997738481,5256.345122599974,None,5256.345122599974,None,5256.345122599974,None,5256.345122599974,None,None,None,5257.128255899996,None,,,,,,,127,f,1,2022_Dec_12_1342,RL,2021.2.3,59.86779990728128,
1,8,0,8,0,,,,,,,,,,,,,,,None,None,None,None,None,5259.0832521999255,None,5259.0832521999255,None,5259.0832521999255,None,5259.0832521999255,None,r,0.24841660005040467,5259.0832521999255,None,5259.0832521999255,None,5259.385316899978,None,5259.385316899978,None,5259.385316899978,None,5259.385316899978,None,5259.385316899978,None,5259.385316899978,None,5259.680471399799,5261.515011999989,5259.680471399799,5261.515011999989,5261.548864999786,None,5261.548864999786,None,5261.548864999786,None,5261.548864999786,None,5261.548864999786,None,5261.548864999786,None,5261.548864999786,None,5261.548864999786,None,5261.548864999786,None,27,42,33,60,27,69,5264.067291899817,None,3.0,1.3172238001134247,5264.067291899817,None,5264.067291899817,None,5264.067291899817,None,5264.067291899817,None,None,None,5265.400712999981,None,,,,,,,127,f,1,2022_Dec_12_1342,RL,2021.2.3,59.86779990728128,
1,9,0,9,0,,,,,,,,,,,,,,,None,None,None,None,None,5267.321725399932,None,5267.321725399932,None,5267.321725399932,None,5267.321725399932,None,j,0.4003115000668913,5267.321725399932,None,5267.321725399932,None,5267.777635099832,None,5267.777635099832,None,5267.777635099832,None,5267.777635099832,None,5267.777635099832,None,5267.777635099832,None,5268.0695706999395,5269.854222299997,5268.0695706999395,5269.854222299997,5269.8861186997965,None,5269.8861186997965,None,5269.8861186997965,None,5269.8861186997965,None,5269.8861186997965,None,5269.8861186997965,None,5269.8861186997965,None,5269.8861186997965,None,5269.8861186997965,None,18,37,39,52,52,69,5272.403580199927,None,3.0,1.7361361000221223,5272.403580199927,None,5272.403580199927,None,5272.403580199927,None,5272.403580199927,None,None,None,5274.156569299987,None,,,,,,,127,f,1,2022_Dec_12_1342,RL,2021.2.3,59.86779990728128,
1,10,0,10,0,,,,,,,,,,,,,,,None,None,None,None,None,5275.727733999956,None,5275.727733999956,None,5275.727733999956,None,5275.727733999956,None,r,0.3939449000172317,5275.727733999956,None,5275.727733999956,None,5276.165004299954,None,5276.165004299954,None,5276.165004299954,None,5276.165004299954,None,5276.165004299954,None,5276.165004299954,None,5276.442253199872,5277.492591199931,5276.442253199872,5277.492591199931,5277.5242914999835,None,5277.5242914999835,None,5277.5242914999835,None,5277.5242914999835,None,5277.5242914999835,None,5277.5242914999835,None,5277.5242914999835,None,5277.5242914999835,None,5277.5242914999835,None,30,44,31,50,30,77,5280.041608399944,None,3.0,1.4548332998529077,5280.041608399944,None,5280.041608399944,None,5280.041608399944,None,5280.041608399944,None,None,None,5281.512084899936,None,,,,,,,127,f,1,2022_Dec_12_1342,RL,2021.2.3,59.86779990728128,
1,11,0,11,0,,,,,,,,,,,,,,,None,None,None,None,None,5283.383379200008,None,5283.383379200008,None,5283.383379200008,None,5283.383379200008,None,f,0.2283470998518169,5283.383379200008,None,5283.383379200008,None,5283.653800099855,None,5283.653800099855,None,5283.653800099855,None,5283.653800099855,None,5283.653800099855,None,5283.653800099855,None,5283.947301599896,None,5283.947301599896,None,5285.678889099974,None,5285.678889099974,None,5285.678889099974,None,5285.678889099974,None,5285.678889099974,None,5285.678889099974,None,5285.678889099974,None,5285.678889099974,None,5285.678889099974,None,27,52,42,61,52,67,5288.19570609997,None,3.0,0.6556571999099106,5288.19570609997,None,5288.19570609997,None,5288.19570609997,None,5288.19570609997,None,None,None,5288.8670536999125,None,,,,,,,127,f,1,2022_Dec_12_1342,RL,2021.2.3,59.86779990728128,
1,12,0,12,0,,,,,,,,,,,,,,,None,None,None,None,None,5290.6891897998285,None,5290.6891897998285,None,5290.6891897998285,None,5290.6891897998285,None,j,0.32270030002109706,5290.6891897998285,None,5290.6891897998285,None,5291.058120399946,None,5291.058120399946,None,5291.058120399946,None,5291.058120399946,None,5291.058120399946,None,5291.058120399946,None,5291.352439699927,None,5291.352439699927,None,5292.490751500009,None,5292.490751500009,None,5292.490751500009,None,5292.490751500009,None,5292.490751500009,None,5292.490751500009,None,5292.490751500009,None,5292.490751500009,None,5292.490751500009,None,16,49,35,58,58,34,5295.01771689998,None,5.0,1.771562400041148,5295.01771689998,None,5295.01771689998,None,5295.01771689998,None,5295.01771689998,None,None,None,5296.805936199846,None,,,,,,,127,f,1,2022_Dec_12_1342,RL,2021.2.3,59.86779990728128,
1,13,0,13,0,,,,,,,,,,,,,,,None,None,None,None,None,5298.66044739983,None,5298.66044739983,None,5298.66044739983,None,5298.66044739983,None,i,0.32127840002067387,5298.66044739983,None,5298.66044739983,None,5299.030268299859,None,5299.030268299859,None,5299.030268299859,None,5299.030268299859,None,5299.030268299859,None,5299.030268299859,None,5299.3246106998995,None,5299.3246106998995,None,5300.779434599914,None,5300.779434599914,None,5300.779434599914,None,5300.779434599914,None,5300.779434599914,None,5300.779434599914,None,5300.779434599914,None,5300.779434599914,None,5300.779434599914,None,28,40,36,57,36,53,5303.295389199862,None,3.0,1.8691034000366926,5303.295389199862,None,5303.295389199862,None,5303.295389199862,None,5303.295389199862,None,None,None,5305.178444099845,None,,,,,,,127,f,1,2022_Dec_12_1342,RL,2021.2.3,59.86779990728128,
1,14,0,14,0,,,,,,,,,,,,,,,None,None,None,None,None,5307.149299399927,None,5307.149299399927,None,5307.149299399927,None,5307.149299399927,None,f,0.4924810000229627,5307.149299399927,None,5307.149299399927,None,5307.68296229979,None,5307.68296229979,None,5307.68296229979,None,5307.68296229979,None,5307.68296229979,None,5307.68296229979,None,5307.980602399912,None,5307.980602399912,None,5309.228729999857,None,5309.228729999857,None,5309.228729999857,None,5309.228729999857,None,5309.228729999857,None,5309.228729999857,None,5309.228729999857,None,5309.228729999857,None,5309.228729999857,None,13,36,24,58,36,49,5311.748402999947,None,3.0,1.484890199964866,5311.748402999947,None,5311.748402999947,None,5311.748402999947,None,5311.748402999947,None,None,None,5313.2513718998525,None,,,,,,,127,f,1,2022_Dec_12_1342,RL,2021.2.3,59.86779990728128,
1,15,0,15,0,,,,,,,,,,,,,,,None,None,None,None,None,5315.189143899828,None,5315.189143899828,None,5315.189143899828,None,5315.189143899828,None,j,0.5729190001729876,5315.189143899828,None,5315.189143899828,None,5315.805962699931,None,5315.805962699931,None,5315.805962699931,None,5315.805962699931,None,5315.805962699931,None,5315.805962699931,None,5316.103186399909,None,5316.103186399909,None,5317.8664731998,None,5317.8664731998,None,5317.8664731998,None,5317.8664731998,None,5317.8664731998,None,5317.8664731998,None,5317.8664731998,None,5317.8664731998,None,5317.8664731998,None,22,48,28,54,54,63,5320.391384099843,None,2.0,1.084648400079459,5320.391384099843,None,5320.391384099843,None,5320.391384099843,None,5320.391384099843,None,None,None,5321.4959982999135,None,,,,,,,127,f,1,2022_Dec_12_1342,RL,2021.2.3,59.86779990728128,
1,16,0,16,0,,,,,,,,,,,,,,,None,None,None,None,None,5323.060789800016,None,5323.060789800016,None,5323.060789800016,None,5323.060789800016,None,r,0.6720554998610169,5323.060789800016,None,5323.060789800016,None,5323.781465099892,None,5323.781465099892,None,5323.781465099892,None,5323.781465099892,None,5323.781465099892,None,5323.781465099892,None,5324.058683799813,5325.308979299851,5324.058683799813,5325.308979299851,5325.3300857997965,None,5325.3300857997965,None,5325.3300857997965,None,5325.3300857997965,None,5325.3300857997965,None,5325.3300857997965,None,5325.3300857997965,None,5325.3300857997965,None,5325.3300857997965,None,32,43,28,54,32,58,5327.863838799996,None,4.0,1.3508111000992358,5327.863838799996,None,5327.863838799996,None,5327.863838799996,None,5327.863838799996,None,None,None,5329.228177099954,None,,,,,,,127,f,1,2022_Dec_12_1342,RL,2021.2.3,59.86779990728128,
1,17,0,17,0,,,,,,,,,,,,,,,None,None,None,None,None,5331.032829799922,None,5331.032829799922,None,5331.032829799922,None,5331.032829799922,None,j,0.420123599935323,5331.032829799922,None,5331.032829799922,None,5331.503982399823,None,5331.503982399823,None,5331.503982399823,None,5331.503982399823,None,5331.503982399823,None,5331.503982399823,None,5331.780394600006,5333.764988299925,5331.780394600006,5333.764988299925,5333.7958221999,None,5333.7958221999,None,5333.7958221999,None,5333.7958221999,None,5333.7958221999,None,5333.7958221999,None,5333.7958221999,None,5333.7958221999,None,5333.7958221999,None,27,39,26,61,61,70,5336.3155737998895,None,3.0,1.502230599988252,5336.3155737998895,None,5336.3155737998895,None,5336.3155737998895,None,5336.3155737998895,None,None,None,5337.836875299923,None,,,,,,,127,f,1,2022_Dec_12_1342,RL,2021.2.3,59.86779990728128,
1,18,0,18,0,,,,,,,,,,,,,,,None,None,None,None,None,5339.755709599936,None,5339.755709599936,None,5339.755709599936,None,5339.755709599936,None,f,0.3973298000637442,5339.755709599936,None,5339.755709599936,None,5340.1957274999,None,5340.1957274999,None,5340.1957274999,None,5340.1957274999,None,5340.1957274999,None,5340.1957274999,None,5340.486477299826,5342.304218799807,5340.486477299826,5342.304218799807,5342.333949299995,None,5342.333949299995,None,5342.333949299995,None,5342.333949299995,None,5342.333949299995,None,5342.333949299995,None,5342.333949299995,None,5342.333949299995,None,5342.333949299995,None,36,37,19,53,37,61,5344.852204900002,None,5.0,0.6538923000916839,5344.852204900002,None,5344.852204900002,None,5344.852204900002,None,5344.852204900002,None,None,None,5345.5226196998265,None,,,,,,,127,f,1,2022_Dec_12_1342,RL,2021.2.3,59.86779990728128,
1,19,0,19,0,,,,,,,,,,,,,,,None,None,None,None,None,5347.427572099958,None,5347.427572099958,None,5347.427572099958,None,5347.427572099958,None,i,0.5154724998865277,5347.427572099958,None,5347.427572099958,None,5347.978223599959,None,5347.978223599959,None,5347.978223599959,None,5347.978223599959,None,5347.978223599959,None,5347.978223599959,None,5348.275268299971,None,5348.275268299971,None,5349.271127899876,None,5349.271127899876,None,5349.271127899876,None,5349.271127899876,None,5349.271127899876,None,5349.271127899876,None,5349.271127899876,None,5349.271127899876,None,5349.271127899876,None,29,36,15,48,15,60,5351.789866299834,None,5.0,0.4869464999064803,5351.789866299834,None,5351.789866299834,None,5351.789866299834,None,5351.789866299834,None,None,None,5352.2946770999115,None,,,,,,,127,f,1,2022_Dec_12_1342,RL,2021.2.3,59.86779990728128,
1,20,0,20,0,,,,,,,,,,,,,,,None,None,None,None,None,5354.249150199816,None,5354.249150199816,None,5354.249150199816,None,5354.249150199816,None,i,0.5036880001425743,5354.249150199816,None,5354.249150199816,None,5354.8017868997995,None,5354.8017868997995,None,5354.8017868997995,None,5354.8017868997995,None,5354.8017868997995,None,5354.8017868997995,None,5355.096604699967,None,5355.096604699967,None,5356.933484999929,None,5356.933484999929,None,5356.933484999929,None,5356.933484999929,None,5356.933484999929,None,5356.933484999929,None,5356.933484999929,None,5356.933484999929,None,5356.933484999929,None,28,38,31,56,31,50,5359.451099299826,None,3.0,0.9348909999243915,5359.451099299826,None,5359.451099299826,None,5359.451099299826,None,5359.451099299826,None,None,None,5360.409624199849,None,,,,,,,127,f,1,2022_Dec_12_1342,RL,2021.2.3,59.86779990728128,
1,21,0,21,0,,,,,,,,,,,,,,,None,None,None,None,None,5362.1043263999745,None,5362.1043263999745,None,5362.1043263999745,None,5362.1043263999745,None,i,0.40890999999828637,5362.1043263999745,None,5362.1043263999745,None,5362.558277199976,None,5362.558277199976,None,5362.558277199976,None,5362.558277199976,None,5362.558277199976,None,5362.558277199976,None,5362.835389599903,5364.736434399849,5362.835389599903,5364.736434399849,5364.772571099922,None,5364.772571099922,None,5364.772571099922,None,5364.772571099922,None,5364.772571099922,None,5364.772571099922,None,5364.772571099922,None,5364.772571099922,None,5364.772571099922,None,25,30,31,51,31,46,5367.289474199992,None,3.0,0.6312961999792606,5367.289474199992,None,5367.289474199992,None,5367.289474199992,None,5367.289474199992,None,None,None,5367.938950799871,None,,,,,,,127,f,1,2022_Dec_12_1342,RL,2021.2.3,59.86779990728128,
1,22,0,22,0,,,,,,,,,,,,,,,None,None,None,None,None,5369.5228555998765,None,5369.5228555998765,None,5369.5228555998765,None,5369.5228555998765,None,f,0.6495228998828679,5369.5228555998765,None,5369.5228555998765,None,5370.196358799934,None,5370.196358799934,None,5370.196358799934,None,5370.196358799934,None,5370.196358799934,None,5370.196358799934,None,5370.490376999835,None,5370.490376999835,None,5371.437800599961,None,5371.437800599961,None,5371.437800599961,None,5371.437800599961,None,5371.437800599961,None,5371.437800599961,None,5371.437800599961,None,5371.437800599961,None,5371.437800599961,None,21,42,41,53,42,56,5373.948377799941,None,3.0,1.2121264999732375,5373.948377799941,None,5373.948377799941,None,5373.948377799941,None,5373.948377799941,None,None,None,5375.1768376999535,None,,,,,,,127,f,1,2022_Dec_12_1342,RL,2021.2.3,59.86779990728128,
1,23,0,23,0,,,,,,,,,,,,,,,None,None,None,None,None,5376.844606099883,None,5376.844606099883,None,5376.844606099883,None,5376.844606099883,None,r,0.49898739997297525,5376.844606099883,None,5376.844606099883,None,5377.368460099911,None,5377.368460099911,None,5377.368460099911,None,5377.368460099911,None,5377.368460099911,None,5377.368460099911,None,5377.645438199863,5378.946401299909,5377.645438199863,5378.946401299909,5378.976437699981,None,5378.976437699981,None,5378.976437699981,None,5378.976437699981,None,5378.976437699981,None,5378.976437699981,None,5378.976437699981,None,5378.976437699981,None,5378.976437699981,None,27,42,31,65,27,53,5381.501368799945,None,3.0,1.6183927999809384,5381.501368799945,None,5381.501368799945,None,5381.501368799945,None,5381.501368799945,None,None,None,5383.140321200015,None,,,,,,,127,f,1,2022_Dec_12_1342,RL,2021.2.3,59.86779990728128,
1,24,0,24,0,,,,,,,,,,,,,,,None,None,None,None,None,5384.903215199942,None,5384.903215199942,None,5384.903215199942,None,5384.903215199942,None,i,0.6201036998536438,5384.903215199942,None,5384.903215199942,None,5385.573574199807,None,5385.573574199807,None,5385.573574199807,None,5385.573574199807,None,5385.573574199807,None,5385.573574199807,None,5385.867965099867,5387.669102899963,5385.867965099867,5387.669102899963,5387.706340199802,None,5387.706340199802,None,5387.706340199802,None,5387.706340199802,None,5387.706340199802,None,5387.706340199802,None,5387.706340199802,None,5387.706340199802,None,5387.706340199802,None,27,46,37,64,37,62,5390.215556300012,None,4.0,1.373058500001207,5390.215556300012,None,5390.215556300012,None,5390.215556300012,None,5390.215556300012,None,None,None,5391.605396799976,None,,,,,,,127,f,1,2022_Dec_12_1342,RL,2021.2.3,59.86779990728128,
1,25,0,25,0,,,,,,,,,,,,,,,None,None,None,None,None,5393.19329259987,None,5393.19329259987,None,5393.19329259987,None,5393.19329259987,None,i,0.700132800033316,5393.19329259987,None,5393.19329259987,None,5393.94613759988,None,5393.94613759988,None,5393.94613759988,None,5393.94613759988,None,5393.94613759988,None,5393.94613759988,None,5394.240368499886,None,5394.240368499886,None,5396.139761199942,None,5396.139761199942,None,5396.139761199942,None,5396.139761199942,None,5396.139761199942,None,5396.139761199942,None,5396.139761199942,None,5396.139761199942,None,5396.139761199942,None,35,43,39,66,39,54,5398.656856799964,None,5.0,1.0192861999385059,5398.656856799964,None,5398.656856799964,None,5398.656856799964,None,5398.656856799964,None,None,None,5399.694107099902,None,,,,,,,127,f,1,2022_Dec_12_1342,RL,2021.2.3,59.86779990728128,
1,26,0,26,0,,,,,,,,,,,,,,,None,None,None,None,None,5401.365053099813,None,5401.365053099813,None,5401.365053099813,None,5401.365053099813,None,i,0.43812720011919737,5401.365053099813,None,5401.365053099813,None,5401.849653200014,None,5401.849653200014,None,5401.849653200014,None,5401.849653200014,None,5401.849653200014,None,5401.849653200014,None,5402.14599219989,None,5402.14599219989,None,5403.2591244999785,None,5403.2591244999785,None,5403.2591244999785,None,5403.2591244999785,None,5403.2591244999785,None,5403.2591244999785,None,5403.2591244999785,None,5403.2591244999785,None,5403.2591244999785,None,28,39,47,57,47,53,5405.778108699946,None,3.0,0.7532635999377817,5405.778108699946,None,5405.778108699946,None,5405.778108699946,None,5405.778108699946,None,None,None,5406.548291099956,None,,,,,,,127,f,1,2022_Dec_12_1342,RL,2021.2.3,59.86779990728128,
1,27,0,27,0,,,,,,,,,,,,,,,None,None,None,None,None,5408.487015499966,None,5408.487015499966,None,5408.487015499966,None,5408.487015499966,None,f,0.3665618998929858,5408.487015499966,None,5408.487015499966,None,5408.909839599859,None,5408.909839599859,None,5408.909839599859,None,5408.909839599859,None,5408.909839599859,None,5408.909839599859,None,5409.200856599957,5410.334698099876,5409.200856599957,5410.334698099876,5410.365246899892,None,5410.365246899892,None,5410.365246899892,None,5410.365246899892,None,5410.365246899892,None,5410.365246899892,None,5410.365246899892,None,5410.365246899892,None,5410.365246899892,None,23,53,52,58,53,54,5412.881565799937,None,5.0,1.2551835998892784,5412.881565799937,None,5412.881565799937,None,5412.881565799937,None,5412.881565799937,None,None,None,5414.154549999861,None,,,,,,,127,f,1,2022_Dec_12_1342,RL,2021.2.3,59.86779990728128,
1,28,0,28,0,,,,,,,,,,,,,,,None,None,None,None,None,5415.908558499999,None,5415.908558499999,None,5415.908558499999,None,5415.908558499999,None,r,0.3449090998619795,5415.908558499999,None,5415.908558499999,None,5416.293464499991,None,5416.293464499991,None,5416.293464499991,None,5416.293464499991,None,5416.293464499991,None,5416.293464499991,None,5416.589252799982,None,5416.589252799982,None,5418.556870199973,None,5418.556870199973,None,5418.556870199973,None,5418.556870199973,None,5418.556870199973,None,5418.556870199973,None,5418.556870199973,None,5418.556870199973,None,5418.556870199973,None,21,52,40,48,21,66,5421.070493499981,None,2.0,0.990661800140515,5421.070493499981,None,5421.070493499981,None,5421.070493499981,None,5421.070493499981,None,None,None,5422.075728799915,None,,,,,,,127,f,1,2022_Dec_12_1342,RL,2021.2.3,59.86779990728128,
1,29,0,29,0,,,,,,,,,,,,,,,None,None,None,None,None,5423.680502099916,None,5423.680502099916,None,5423.680502099916,None,5423.680502099916,None,f,0.47340950020588934,5423.680502099916,None,5423.680502099916,None,5424.199805899989,None,5424.199805899989,None,5424.199805899989,None,5424.199805899989,None,5424.199805899989,None,5424.199805899989,None,5424.494795999955,None,5424.494795999955,None,5425.379105999833,None,5425.379105999833,None,5425.379105999833,None,5425.379105999833,None,5425.379105999833,None,5425.379105999833,None,5425.379105999833,None,5425.379105999833,None,5425.379105999833,None,22,44,47,52,44,70,5427.893383499933,None,4.0,1.8567073000594974,5427.893383499933,None,5427.893383499933,None,5427.893383499933,None,5427.893383499933,None,None,None,5429.771117199911,None,,,,,,,127,f,1,2022_Dec_12_1342,RL,2021.2.3,59.86779990728128,
1,30,0,30,0,,,,,,,,,,,,,,,None,None,None,None,None,5431.654618299799,None,5431.654618299799,None,5431.654618299799,None,5431.654618299799,None,f,0.4389818001072854,5431.654618299799,None,5431.654618299799,None,5432.141139399959,None,5432.141139399959,None,5432.141139399959,None,5432.141139399959,None,5432.141139399959,None,5432.141139399959,None,5432.416908300016,5434.08466719999,5432.416908300016,5434.08466719999,5434.135345799848,None,5434.135345799848,None,5434.135345799848,None,5434.135345799848,None,5434.135345799848,None,5434.135345799848,None,5434.135345799848,None,5434.135345799848,None,5434.135345799848,None,12,51,48,43,51,69,5436.656146499794,None,3.0,1.665064999833703,5436.656146499794,None,5436.656146499794,None,5436.656146499794,None,5436.656146499794,None,None,None,5438.337033499964,None,,,,,,,127,f,1,2022_Dec_12_1342,RL,2021.2.3,59.86779990728128,
1,31,0,31,0,,,,,,,,,,,,,,,None,None,None,None,None,5440.007986899931,None,5440.007986899931,None,5440.007986899931,None,5440.007986899931,None,j,0.4354838998988271,5440.007986899931,None,5440.007986899931,None,5440.495788699947,None,5440.495788699947,None,5440.495788699947,None,5440.495788699947,None,5440.495788699947,None,5440.495788699947,None,5440.772665199824,5442.073695299914,5440.772665199824,5442.073695299914,5442.107245099964,None,5442.107245099964,None,5442.107245099964,None,5442.107245099964,None,5442.107245099964,None,5442.107245099964,None,5442.107245099964,None,5442.107245099964,None,5442.107245099964,None,15,50,50,55,55,53,5444.622640799964,None,5.0,0.886302099796012,5444.622640799964,None,5444.622640799964,None,5444.622640799964,None,5444.622640799964,None,None,None,5445.525454999879,None,,,,,,,127,f,1,2022_Dec_12_1342,RL,2021.2.3,59.86779990728128,
1,32,0,32,0,,,,,,,,,,,,,,,None,None,None,None,None,5447.347224399913,None,5447.347224399913,None,5447.347224399913,None,5447.347224399913,None,j,0.626643099822104,5447.347224399913,None,5447.347224399913,None,5448.025930499891,None,5448.025930499891,None,5448.025930499891,None,5448.025930499891,None,5448.025930499891,None,5448.025930499891,None,5448.311172199901,5449.345205999911,5448.311172199901,5449.345205999911,5449.375819599954,None,5449.375819599954,None,5449.375819599954,None,5449.375819599954,None,5449.375819599954,None,5449.375819599954,None,5449.375819599954,None,5449.375819599954,None,5449.375819599954,None,15,52,58,50,50,65,5451.892702299869,None,3.0,1.9774221999105066,5451.892702299869,None,5451.892702299869,None,5451.892702299869,None,5451.892702299869,None,None,None,5453.892917899881,None,,,,,,,127,f,1,2022_Dec_12_1342,RL,2021.2.3,59.86779990728128,
1,33,0,33,0,,,,,,,,,,,,,,,None,None,None,None,None,5455.435412999941,None,5455.435412999941,None,5455.435412999941,None,5455.435412999941,None,f,0.488243900006637,5455.435412999941,None,5455.435412999941,None,5455.972130399896,None,5455.972130399896,None,5455.972130399896,None,5455.972130399896,None,5455.972130399896,None,5455.972130399896,None,5456.266759999795,None,5456.266759999795,None,5457.19856329984,None,5457.19856329984,None,5457.19856329984,None,5457.19856329984,None,5457.19856329984,None,5457.19856329984,None,5457.19856329984,None,5457.19856329984,None,5457.19856329984,None,18,53,64,53,53,38,5459.713719899999,None,5.0,0.8078156998381019,5459.713719899999,None,5459.713719899999,None,5459.713719899999,None,5459.713719899999,None,None,None,5460.5360397999175,None,,,,,,,127,f,1,2022_Dec_12_1342,RL,2021.2.3,59.86779990728128,
1,34,0,34,0,,,,,,,,,,,,,,,None,None,None,None,None,5462.356839499902,None,5462.356839499902,None,5462.356839499902,None,5462.356839499902,None,r,0.6266923998482525,5462.356839499902,None,5462.356839499902,None,5463.026069899788,None,5463.026069899788,None,5463.026069899788,None,5463.026069899788,None,5463.026069899788,None,5463.026069899788,None,5463.321655999869,5464.822548999917,5463.321655999869,5464.822548999917,5464.860352499876,None,5464.860352499876,None,5464.860352499876,None,5464.860352499876,None,5464.860352499876,None,5464.860352499876,None,5464.860352499876,None,5464.860352499876,None,5464.860352499876,None,12,49,58,52,12,72,5467.37155609997,None,3.0,1.7061811999883503,5467.37155609997,None,5467.37155609997,None,5467.37155609997,None,5467.37155609997,None,None,None,5469.092833099887,None,,,,,,,127,f,1,2022_Dec_12_1342,RL,2021.2.3,59.86779990728128,
1,35,0,35,0,,,,,,,,,,,,,,,None,None,None,None,None,5470.896554799983,None,5470.896554799983,None,5470.896554799983,None,5470.896554799983,None,r,0.1582337999716401,5470.896554799983,None,5470.896554799983,None,5471.100387000013,None,5471.100387000013,None,5471.100387000013,None,5471.100387000013,None,5471.100387000013,None,5471.100387000013,None,5471.37726139999,5472.427759499988,5471.37726139999,5472.427759499988,5472.454924999969,None,5472.454924999969,None,5472.454924999969,None,5472.454924999969,None,5472.454924999969,None,5472.454924999969,None,5472.454924999969,None,5472.454924999969,None,5472.454924999969,None,13,42,58,52,13,62,5474.975136899855,None,2.0,1.404199899872765,5474.975136899855,None,5474.975136899855,None,5474.975136899855,None,5474.975136899855,None,None,None,5476.397651999956,None,,,,,,,127,f,1,2022_Dec_12_1342,RL,2021.2.3,59.86779990728128,
1,36,0,36,0,,,,,,,,,,,,,,,None,None,None,None,None,5478.3014616,None,5478.3014616,None,5478.3014616,None,5478.3014616,None,f,0.7530791000463068,5478.3014616,None,5478.3014616,None,5479.104362299899,None,5479.104362299899,None,5479.104362299899,None,5479.104362299899,None,5479.104362299899,None,5479.104362299899,None,5479.399445999879,None,5479.399445999879,None,5480.768918099813,None,5480.768918099813,None,5480.768918099813,None,5480.768918099813,None,5480.768918099813,None,5480.768918099813,None,5480.768918099813,None,5480.768918099813,None,5480.768918099813,None,13,36,67,55,36,66,5483.28355419985,None,3.0,1.3043897999450564,5483.28355419985,None,5483.28355419985,None,5483.28355419985,None,5483.28355419985,None,None,None,5484.605582699878,None,,,,,,,127,f,1,2022_Dec_12_1342,RL,2021.2.3,59.86779990728128,
1,37,0,37,0,,,,,,,,,,,,,,,None,None,None,None,None,5486.474066999974,None,5486.474066999974,None,5486.474066999974,None,5486.474066999974,None,j,0.4610411999747157,5486.474066999974,None,5486.474066999974,None,5486.976735999808,None,5486.976735999808,None,5486.976735999808,None,5486.976735999808,None,5486.976735999808,None,5486.976735999808,None,5487.271575899795,None,5487.271575899795,None,5488.802208299981,None,5488.802208299981,None,5488.802208299981,None,5488.802208299981,None,5488.802208299981,None,5488.802208299981,None,5488.802208299981,None,5488.802208299981,None,5488.802208299981,None,10,40,53,52,52,68,5491.324722399935,None,4.0,1.6003629001788795,5491.324722399935,None,5491.324722399935,None,5491.324722399935,None,5491.324722399935,None,None,None,5492.941710199928,None,,,,,,,127,f,1,2022_Dec_12_1342,RL,2021.2.3,59.86779990728128,
1,38,0,38,0,,,,,,,,,,,,,,,None,None,None,None,None,5494.596253699856,None,5494.596253699856,None,5494.596253699856,None,5494.596253699856,None,f,0.5787831000052392,5494.596253699856,None,5494.596253699856,None,5495.2157184998505,None,5495.2157184998505,None,5495.2157184998505,None,5495.2157184998505,None,5495.2157184998505,None,5495.2157184998505,None,5495.510655699996,5497.061616599793,5495.510655699996,5497.061616599793,5497.093206199817,None,5497.093206199817,None,5497.093206199817,None,5497.093206199817,None,5497.093206199817,None,5497.093206199817,None,5497.093206199817,None,5497.093206199817,None,5497.093206199817,None,13,28,49,43,28,71,5499.6091350999195,None,2.0,1.4563040998764336,5499.6091350999195,None,5499.6091350999195,None,5499.6091350999195,None,5499.6091350999195,None,None,None,5501.080760399811,None,,,,,,,127,f,1,2022_Dec_12_1342,RL,2021.2.3,59.86779990728128,
1,39,0,39,0,,,,,,,,,,,,,,,None,None,None,None,None,5502.91882729996,None,5502.91882729996,None,5502.91882729996,None,5502.91882729996,None,i,0.5659568998962641,5502.91882729996,None,5502.91882729996,None,5503.536135399947,None,5503.536135399947,None,5503.536135399947,None,5503.536135399947,None,5503.536135399947,None,5503.536135399947,None,5503.833190699806,None,5503.833190699806,None,5505.096627599793,None,5505.096627599793,None,5505.096627599793,None,5505.096627599793,None,5505.096627599793,None,5505.096627599793,None,5505.096627599793,None,5505.096627599793,None,5505.096627599793,None,14,35,51,51,51,61,5507.61398249981,None,4.0,1.0558966998942196,5507.61398249981,None,5507.61398249981,None,5507.61398249981,None,5507.61398249981,None,None,None,5508.6860787998885,None,,,,,,,127,f,1,2022_Dec_12_1342,RL,2021.2.3,59.86779990728128,
1,40,0,40,0,,,,,,,,,,,,,,,None,None,None,None,None,5510.35852229991,None,5510.35852229991,None,5510.35852229991,None,5510.35852229991,None,j,0.5465740000363439,5510.35852229991,None,5510.35852229991,None,5510.9417561998125,None,5510.9417561998125,None,5510.9417561998125,None,5510.9417561998125,None,5510.9417561998125,None,5510.9417561998125,None,5511.2381992000155,None,5511.2381992000155,None,5512.491311099846,None,5512.491311099846,None,5512.491311099846,None,5512.491311099846,None,5512.491311099846,None,5512.491311099846,None,5512.491311099846,None,5512.491311099846,None,5512.491311099846,None,6,42,48,54,54,61,5514.993870199891,None,3.0,1.1642467000056058,5514.993870199891,None,5514.993870199891,None,5514.993870199891,None,5514.993870199891,None,None,None,5516.174427699996,None,,,,,,,127,f,1,2022_Dec_12_1342,RL,2021.2.3,59.86779990728128,
1,41,0,41,0,,,,,,,,,,,,,,,None,None,None,None,None,5517.863300899975,None,5517.863300899975,None,5517.863300899975,None,5517.863300899975,None,f,0.6223222000990063,5517.863300899975,None,5517.863300899975,None,5518.529624399962,None,5518.529624399962,None,5518.529624399962,None,5518.529624399962,None,5518.529624399962,None,5518.529624399962,None,5518.826774599962,5520.344332499895,5518.826774599962,5520.344332499895,5520.37586089992,None,5520.37586089992,None,5520.37586089992,None,5520.37586089992,None,5520.37586089992,None,5520.37586089992,None,5520.37586089992,None,5520.37586089992,None,5520.37586089992,None,18,37,37,51,37,69,5522.893369599944,None,5.0,0.8205391000956297,5522.893369599944,None,5522.893369599944,None,5522.893369599944,None,5522.893369599944,None,None,None,5523.729838499799,None,,,,,,,127,f,1,2022_Dec_12_1342,RL,2021.2.3,59.86779990728128,
1,42,0,42,0,,,,,,,,,,,,,,,None,None,None,None,None,5525.634279399877,None,5525.634279399877,None,5525.634279399877,None,5525.634279399877,None,i,0.6208305000327528,5525.634279399877,None,5525.634279399877,None,5526.305793299805,None,5526.305793299805,None,5526.305793299805,None,5526.305793299805,None,5526.305793299805,None,5526.305793299805,None,5526.582166699925,5528.016515399795,5526.582166699925,5528.016515399795,5528.048391799908,None,5528.048391799908,None,5528.048391799908,None,5528.048391799908,None,5528.048391799908,None,5528.048391799908,None,5528.048391799908,None,5528.048391799908,None,5528.048391799908,None,8,36,39,54,39,57,5530.562824799912,None,3.0,0.907528200186789,5530.562824799912,None,5530.562824799912,None,5530.562824799912,None,5530.562824799912,None,None,None,5531.485179299954,None,,,,,,,127,f,1,2022_Dec_12_1342,RL,2021.2.3,59.86779990728128,
1,43,0,43,0,,,,,,,,,,,,,,,None,None,None,None,None,5533.0220296999905,None,5533.0220296999905,None,5533.0220296999905,None,5533.0220296999905,None,r,0.6229072001297027,5533.0220296999905,None,5533.0220296999905,None,5533.690592699917,None,5533.690592699917,None,5533.690592699917,None,5533.690592699917,None,5533.690592699917,None,5533.690592699917,None,5533.987219099887,None,5533.987219099887,None,5535.725400299998,None,5535.725400299998,None,5535.725400299998,None,5535.725400299998,None,5535.725400299998,None,5535.725400299998,None,5535.725400299998,None,5535.725400299998,None,5535.725400299998,None,12,39,42,48,12,65,5538.242963499855,None,3.0,1.1179561000317335,5538.242963499855,None,5538.242963499855,None,5538.242963499855,None,5538.242963499855,None,None,None,5539.376796799945,None,,,,,,,127,f,1,2022_Dec_12_1342,RL,2021.2.3,59.86779990728128,
1,44,0,44,0,,,,,,,,,,,,,,,None,None,None,None,None,5541.378960300004,None,5541.378960300004,None,5541.378960300004,None,5541.378960300004,None,i,0.6062447000294924,5541.378960300004,None,5541.378960300004,None,5542.029261699878,None,5542.029261699878,None,5542.029261699878,None,5542.029261699878,None,5542.029261699878,None,5542.029261699878,None,5542.326788799837,5543.160208999878,5542.326788799837,5543.160208999878,5543.192527699983,None,5543.192527699983,None,5543.192527699983,None,5543.192527699983,None,5543.192527699983,None,5543.192527699983,None,5543.192527699983,None,5543.192527699983,None,5543.192527699983,None,13,41,42,47,42,48,5545.716203299817,None,4.0,0.8306682999245822,5545.716203299817,None,5545.716203299817,None,5545.716203299817,None,5545.716203299817,None,None,None,5546.56196179986,None,,,,,,,127,f,1,2022_Dec_12_1342,RL,2021.2.3,59.86779990728128,
1,45,0,45,0,,,,,,,,,,,,,,,None,None,None,None,None,5548.416242099833,None,5548.416242099833,None,5548.416242099833,None,5548.416242099833,None,j,0.6687557001132518,5548.416242099833,None,5548.416242099833,None,5549.1385434998665,None,5549.1385434998665,None,5549.1385434998665,None,5549.1385434998665,None,5549.1385434998665,None,5549.1385434998665,None,5549.431274599861,None,5549.431274599861,None,5551.352487399941,None,5551.352487399941,None,5551.352487399941,None,5551.352487399941,None,5551.352487399941,None,5551.352487399941,None,5551.352487399941,None,5551.352487399941,None,5551.352487399941,None,17,54,43,50,50,60,5553.864625299815,None,5.0,0.9220612000208348,5553.864625299815,None,5553.864625299815,None,5553.864625299815,None,5553.864625299815,None,None,None,5554.803142799996,None,,,,,,,127,f,1,2022_Dec_12_1342,RL,2021.2.3,59.86779990728128,
1,46,0,46,0,,,,,,,,,,,,,,,None,None,None,None,None,5556.422279199818,None,5556.422279199818,None,5556.422279199818,None,5556.422279199818,None,r,0.4735997000243515,5556.422279199818,None,5556.422279199818,None,5556.942623300012,None,5556.942623300012,None,5556.942623300012,None,5556.942623300012,None,5556.942623300012,None,5556.942623300012,None,5557.237009999808,5558.187280599959,5557.237009999808,5558.187280599959,5558.223690500017,None,5558.223690500017,None,5558.223690500017,None,5558.223690500017,None,5558.223690500017,None,5558.223690500017,None,5558.223690500017,None,5558.223690500017,None,5558.223690500017,None,10,35,51,57,10,64,5560.734316099901,None,2.0,0.8886285000480711,5560.734316099901,None,5560.734316099901,None,5560.734316099901,None,5560.734316099901,None,None,None,5561.639175399905,None,,,,,,,127,f,1,2022_Dec_12_1342,RL,2021.2.3,59.86779990728128,
1,47,0,47,0,,,,,,,,,,,,,,,None,None,None,None,None,5563.227198899956,None,5563.227198899956,None,5563.227198899956,None,5563.227198899956,None,f,0.5781194001901895,5563.227198899956,None,5563.227198899956,None,5563.8465294998605,None,5563.8465294998605,None,5563.8465294998605,None,5563.8465294998605,None,5563.8465294998605,None,5563.8465294998605,None,5564.141500099795,None,5564.141500099795,None,5565.290144099854,None,5565.290144099854,None,5565.290144099854,None,5565.290144099854,None,5565.290144099854,None,5565.290144099854,None,5565.290144099854,None,5565.290144099854,None,5565.290144099854,None,11,31,45,56,31,75,5567.805652400013,None,3.0,1.4893492998089641,5567.805652400013,None,5567.805652400013,None,5567.805652400013,None,5567.805652400013,None,None,None,5569.31106629991,None,,,,,,,127,f,1,2022_Dec_12_1342,RL,2021.2.3,59.86779990728128,
1,48,0,48,0,,,,,,,,,,,,,,,None,None,None,None,None,5571.1654446998145,None,5571.1654446998145,None,5571.1654446998145,None,5571.1654446998145,None,j,0.4400848001241684,5571.1654446998145,None,5571.1654446998145,None,5571.652082499815,None,5571.652082499815,None,5571.652082499815,None,5571.652082499815,None,5571.652082499815,None,5571.652082499815,None,5571.947166399797,None,5571.947166399797,None,5572.8987453999,None,5572.8987453999,None,5572.8987453999,None,5572.8987453999,None,5572.8987453999,None,5572.8987453999,None,5572.8987453999,None,5572.8987453999,None,5572.8987453999,None,13,43,47,56,56,64,5575.413004599977,None,4.0,0.6374261998571455,5575.413004599977,None,5575.413004599977,None,5575.413004599977,None,5575.413004599977,None,None,None,5576.0662905999925,None,,,,,,,127,f,1,2022_Dec_12_1342,RL,2021.2.3,59.86779990728128,
1,49,0,49,0,,,,,,,,,,,,,,,None,None,None,None,None,5577.903779799817,None,5577.903779799817,None,5577.903779799817,None,5577.903779799817,None,i,0.43210960016585886,5577.903779799817,None,5577.903779799817,None,5578.374662999995,None,5578.374662999995,None,5578.374662999995,None,5578.374662999995,None,5578.374662999995,None,5578.374662999995,None,5578.668287999928,5579.969021699857,5578.668287999928,5579.969021699857,5580.0068973999005,None,5580.0068973999005,None,5580.0068973999005,None,5580.0068973999005,None,5580.0068973999005,None,5580.0068973999005,None,5580.0068973999005,None,5580.0068973999005,None,5580.0068973999005,None,8,37,37,62,37,75,5582.5356858999,None,5.0,0.6854962999932468,5582.5356858999,None,5582.5356858999,None,5582.5356858999,None,5582.5356858999,None,None,None,5583.237984899897,None,,,,,,,127,f,1,2022_Dec_12_1342,RL,2021.2.3,59.86779990728128,
1,50,0,50,0,,,,,,,,,,,,,,,None,None,None,None,None,5584.875725399936,None,5584.875725399936,None,5584.875725399936,None,5584.875725399936,None,r,0.3898505999241024,5584.875725399936,None,5584.875725399936,None,5585.311808199855,None,5585.311808199855,None,5585.311808199855,None,5585.311808199855,None,5585.311808199855,None,5585.311808199855,None,5585.6063060997985,None,5585.6063060997985,None,5587.024108199868,None,5587.024108199868,None,5587.024108199868,None,5587.024108199868,None,5587.024108199868,None,5587.024108199868,None,5587.024108199868,None,5587.024108199868,None,5587.024108199868,None,19,35,41,57,19,66,5589.539979599882,None,5.0,0.6863559999037534,5589.539979599882,None,5589.539979599882,None,5589.539979599882,None,5589.539979599882,None,None,None,5590.248292699922,None,,,,,,,127,f,1,2022_Dec_12_1342,RL,2021.2.3,59.86779990728128,
1,51,0,51,0,,,,,,,,,,,,,,,None,None,None,None,None,5591.897090599872,None,5591.897090599872,None,5591.897090599872,None,5591.897090599872,None,j,0.5184835998807102,5591.897090599872,None,5591.897090599872,None,5592.467390500009,None,5592.467390500009,None,5592.467390500009,None,5592.467390500009,None,5592.467390500009,None,5592.467390500009,None,5592.761333799921,None,5592.761333799921,None,5594.628759599989,None,5594.628759599989,None,5594.628759599989,None,5594.628759599989,None,5594.628759599989,None,5594.628759599989,None,5594.628759599989,None,5594.628759599989,None,5594.628759599989,None,21,49,37,57,57,71,5597.141684699804,None,3.0,1.1574723001103848,5597.141684699804,None,5597.141684699804,None,5597.141684699804,None,5597.141684699804,None,None,None,5598.324141599936,None,,,,,,,127,f,1,2022_Dec_12_1342,RL,2021.2.3,59.86779990728128,
1,52,0,52,0,,,,,,,,,,,,,,,None,None,None,None,None,5600.320879699895,None,5600.320879699895,None,5600.320879699895,None,5600.320879699895,None,f,0.3947323998436332,5600.320879699895,None,5600.320879699895,None,5600.759916299954,None,5600.759916299954,None,5600.759916299954,None,5600.759916299954,None,5600.759916299954,None,5600.759916299954,None,5601.050488399807,None,5601.050488399807,None,5602.41395109985,None,5602.41395109985,None,5602.41395109985,None,5602.41395109985,None,5602.41395109985,None,5602.41395109985,None,5602.41395109985,None,5602.41395109985,None,5602.41395109985,None,25,48,33,57,48,72,5604.932877499843,None,5.0,0.7715946999378502,5604.932877499843,None,5604.932877499843,None,5604.932877499843,None,5604.932877499843,None,None,None,5605.719902399927,None,,,,,,,127,f,1,2022_Dec_12_1342,RL,2021.2.3,59.86779990728128,
1,53,0,53,0,,,,,,,,,,,,,,,None,None,None,None,None,5607.459673399804,None,5607.459673399804,None,5607.459673399804,None,5607.459673399804,None,f,0.7358474999200553,5607.459673399804,None,5607.459673399804,None,5608.243759399978,None,5608.243759399978,None,5608.243759399978,None,5608.243759399978,None,5608.243759399978,None,5608.243759399978,None,5608.539013899863,5609.622777499957,5608.539013899863,5609.622777499957,5609.653241199907,None,5609.653241199907,None,5609.653241199907,None,5609.653241199907,None,5609.653241199907,None,5609.653241199907,None,5609.653241199907,None,5609.653241199907,None,5609.653241199907,None,17,47,43,59,47,64,5612.170306699816,None,4.0,0.7397016000468284,5612.170306699816,None,5612.170306699816,None,5612.170306699816,None,5612.170306699816,None,None,None,5612.924996799789,None,,,,,,,127,f,1,2022_Dec_12_1342,RL,2021.2.3,59.86779990728128,
1,54,0,54,0,,,,,,,,,,,,,,,None,None,None,None,None,5614.745707599912,None,5614.745707599912,None,5614.745707599912,None,5614.745707599912,None,f,0.29980799998156726,5614.745707599912,None,5614.745707599912,None,5615.098472799873,None,5615.098472799873,None,5615.098472799873,None,5615.098472799873,None,5615.098472799873,None,5615.098472799873,None,5615.393691399833,None,5615.393691399833,None,5617.110302499961,None,5617.110302499961,None,5617.110302499961,None,5617.110302499961,None,5617.110302499961,None,5617.110302499961,None,5617.110302499961,None,5617.110302499961,None,5617.110302499961,None,11,43,36,56,43,68,5619.635041299975,None,5.0,0.6465992000885308,5619.635041299975,None,5619.635041299975,None,5619.635041299975,None,5619.635041299975,None,None,None,5620.296558699803,None,,,,,,,127,f,1,2022_Dec_12_1342,RL,2021.2.3,59.86779990728128,
1,55,0,55,0,,,,,,,,,,,,,,,None,None,None,None,None,5621.867614999879,None,5621.867614999879,None,5621.867614999879,None,5621.867614999879,None,j,0.42893240018747747,5621.867614999879,None,5621.867614999879,None,5622.334682199871,None,5622.334682199871,None,5622.334682199871,None,5622.334682199871,None,5622.334682199871,None,5622.334682199871,None,5622.632065600017,None,5622.632065600017,None,5623.962621199898,None,5623.962621199898,None,5623.962621199898,None,5623.962621199898,None,5623.962621199898,None,5623.962621199898,None,5623.962621199898,None,5623.962621199898,None,5623.962621199898,None,13,49,40,60,60,81,5626.479511399986,None,3.0,1.1916961001697928,5626.479511399986,None,5626.479511399986,None,5626.479511399986,None,5626.479511399986,None,None,None,5627.685482499888,None,,,,,,,127,f,1,2022_Dec_12_1342,RL,2021.2.3,59.86779990728128,
1,56,0,56,0,,,,,,,,,,,,,,,None,None,None,None,None,5629.373108999804,None,5629.373108999804,None,5629.373108999804,None,5629.373108999804,None,i,0.5735643000807613,5629.373108999804,None,5629.373108999804,None,5629.993044900009,None,5629.993044900009,None,5629.993044900009,None,5629.993044900009,None,5629.993044900009,None,5629.993044900009,None,5630.28745669988,None,5630.28745669988,None,5631.485052899923,None,5631.485052899923,None,5631.485052899923,None,5631.485052899923,None,5631.485052899923,None,5631.485052899923,None,5631.485052899923,None,5631.485052899923,None,5631.485052899923,None,25,34,35,61,35,72,5634.000754099805,None,2.0,0.6562988001387566,5634.000754099805,None,5634.000754099805,None,5634.000754099805,None,5634.000754099805,None,None,None,5634.673156699864,None,,,,,,,127,f,1,2022_Dec_12_1342,RL,2021.2.3,59.86779990728128,
1,57,0,57,0,,,,,,,,,,,,,,,None,None,None,None,None,5636.377235499909,None,5636.377235499909,None,5636.377235499909,None,5636.377235499909,None,r,0.03960859985090792,5636.377235499909,None,5636.377235499909,None,5636.46463469998,None,5636.46463469998,None,5636.46463469998,None,5636.46463469998,None,5636.46463469998,None,5636.46463469998,None,5636.7588610998355,None,5636.7588610998355,None,5638.580963999964,None,5638.580963999964,None,5638.580963999964,None,5638.580963999964,None,5638.580963999964,None,5638.580963999964,None,5638.580963999964,None,5638.580963999964,None,5638.580963999964,None,24,41,35,62,24,71,5641.105707099894,None,2.0,0.4236133999656886,5641.105707099894,None,5641.105707099894,None,5641.105707099894,None,5641.105707099894,None,None,None,5641.544648699928,None,,,,,,,127,f,1,2022_Dec_12_1342,RL,2021.2.3,59.86779990728128,
1,58,0,58,0,,,,,,,,,,,,,,,None,None,None,None,None,5643.466300899861,None,5643.466300899861,None,5643.466300899861,None,5643.466300899861,None,f,0.5907990001142025,5643.466300899861,None,5643.466300899861,None,5644.108299899846,None,5644.108299899846,None,5644.108299899846,None,5644.108299899846,None,5644.108299899846,None,5644.108299899846,None,5644.39728159993,5645.764711899916,5644.39728159993,5645.764711899916,5645.795748899924,None,5645.795748899924,None,5645.795748899924,None,5645.795748899924,None,5645.795748899924,None,5645.795748899924,None,5645.795748899924,None,5645.795748899924,None,5645.795748899924,None,22,51,32,68,51,81,5648.316863499815,None,4.0,0.6668293999973685,5648.316863499815,None,5648.316863499815,None,5648.316863499815,None,5648.316863499815,None,None,None,5648.999649300007,None,,,,,,,127,f,1,2022_Dec_12_1342,RL,2021.2.3,59.86779990728128,
1,59,0,59,0,,,,,,,,,,,,,,,None,None,None,None,None,5650.654210799839,None,5650.654210799839,None,5650.654210799839,None,5650.654210799839,None,i,0.42292540008202195,5650.654210799839,None,5650.654210799839,None,5651.131585599855,None,5651.131585599855,None,5651.131585599855,None,5651.131585599855,None,5651.131585599855,None,5651.131585599855,None,5651.41891249991,5652.986316799885,5651.41891249991,5652.986316799885,5653.016232299851,None,5653.016232299851,None,5653.016232299851,None,5653.016232299851,None,5653.016232299851,None,5653.016232299851,None,5653.016232299851,None,5653.016232299851,None,5653.016232299851,None,33,36,43,62,43,58,5655.544178899843,None,3.0,1.0988841999787837,5655.544178899843,None,5655.544178899843,None,5655.544178899843,None,5655.544178899843,None,None,None,5656.6554543999955,None,,,,,,,127,f,1,2022_Dec_12_1342,RL,2021.2.3,59.86779990728128,
1,60,0,60,0,,,,,,,,,,,,,,,None,None,None,None,None,5658.426468799822,None,5658.426468799822,None,5658.426468799822,None,5658.426468799822,None,j,0.3304610999766737,5658.426468799822,None,5658.426468799822,None,5658.797366499901,None,5658.797366499901,None,5658.797366499901,None,5658.797366499901,None,5658.797366499901,None,5658.797366499901,None,5659.073979699984,5660.941711999942,5659.073979699984,5660.941711999942,5660.973337699892,None,5660.973337699892,None,5660.973337699892,None,5660.973337699892,None,5660.973337699892,None,5660.973337699892,None,5660.973337699892,None,5660.973337699892,None,5660.973337699892,None,33,34,36,59,59,67,5663.490945699858,None,4.0,0.9207067999523133,5663.490945699858,None,5663.490945699858,None,5663.490945699858,None,5663.490945699858,None,None,None,5664.427619899856,None,,,,,,,127,f,1,2022_Dec_12_1342,RL,2021.2.3,59.86779990728128,
1,61,0,61,0,,,,,,,,,,,,,,,None,None,None,None,None,5666.315410099924,None,5666.315410099924,None,5666.315410099924,None,5666.315410099924,None,r,0.3918218999169767,5666.315410099924,None,5666.315410099924,None,5666.7505760998465,None,5666.7505760998465,None,5666.7505760998465,None,5666.7505760998465,None,5666.7505760998465,None,5666.7505760998465,None,5667.04621319985,None,5667.04621319985,None,5668.076766100014,None,5668.076766100014,None,5668.076766100014,None,5668.076766100014,None,5668.076766100014,None,5668.076766100014,None,5668.076766100014,None,5668.076766100014,None,5668.076766100014,None,28,42,31,69,28,63,5670.583507000003,None,4.0,0.7115752999670804,5670.583507000003,None,5670.583507000003,None,5670.583507000003,None,5670.583507000003,None,None,None,5671.315241999924,None,,,,,,,127,f,1,2022_Dec_12_1342,RL,2021.2.3,59.86779990728128,
1,62,0,62,0,,,,,,,,,,,,,,,None,None,None,None,None,5673.099832599983,None,5673.099832599983,None,5673.099832599983,None,5673.099832599983,None,f,0.40612570010125637,5673.099832599983,None,5673.099832599983,None,5673.541860099882,None,5673.541860099882,None,5673.541860099882,None,5673.541860099882,None,5673.541860099882,None,5673.541860099882,None,5673.833865299821,None,5673.833865299821,None,5675.335584399989,None,5675.335584399989,None,5675.335584399989,None,5675.335584399989,None,5675.335584399989,None,5675.335584399989,None,5675.335584399989,None,5675.335584399989,None,5675.335584399989,None,32,41,34,72,41,66,5677.840028599836,None,5.0,0.7942193001508713,5677.840028599836,None,5677.840028599836,None,5677.840028599836,None,5677.840028599836,None,None,None,5678.653681699885,None,,,,,,,127,f,1,2022_Dec_12_1342,RL,2021.2.3,59.86779990728128,
1,63,0,63,0,,,,,,,,,,,,,,,None,None,None,None,None,5680.421836199937,None,5680.421836199937,None,5680.421836199937,None,5680.421836199937,None,j,1.3149230999406427,5680.421836199937,None,5680.421836199937,None,5681.7635476998985,None,5681.7635476998985,None,5681.7635476998985,None,5681.7635476998985,None,5681.7635476998985,None,5681.7635476998985,None,5682.056536299875,None,5682.056536299875,None,5683.997655799845,None,5683.997655799845,None,5683.997655799845,None,5683.997655799845,None,5683.997655799845,None,5683.997655799845,None,5683.997655799845,None,5683.997655799845,None,5683.997655799845,None,27,38,31,65,65,37,5686.512878199806,None,5.0,0.710114800138399,5686.512878199806,None,5686.512878199806,None,5686.512878199806,None,5686.512878199806,None,None,None,5687.242878999794,None,,,,,,,127,f,1,2022_Dec_12_1342,RL,2021.2.3,59.86779990728128,
1,64,0,64,0,,,,,,,,,,,,,,,None,None,None,None,None,5689.244575199904,None,5689.244575199904,None,5689.244575199904,None,5689.244575199904,None,j,0.62180389999412,5689.244575199904,None,5689.244575199904,None,5689.902932799887,None,5689.902932799887,None,5689.902932799887,None,5689.902932799887,None,5689.902932799887,None,5689.902932799887,None,5690.195255099796,None,5690.195255099796,None,5691.362793599954,None,5691.362793599954,None,5691.362793599954,None,5691.362793599954,None,5691.362793599954,None,5691.362793599954,None,5691.362793599954,None,5691.362793599954,None,5691.362793599954,None,22,45,27,82,82,66,5693.86937119998,None,6.0,0.7424836000427604,5693.86937119998,None,5693.86937119998,None,5693.86937119998,None,5693.86937119998,None,None,None,5694.631354599958,None,,,,,,,127,f,1,2022_Dec_12_1342,RL,2021.2.3,59.86779990728128,
1,65,0,65,0,,,,,,,,,,,,,,,None,None,None,None,None,5696.149289499968,None,5696.149289499968,None,5696.149289499968,None,5696.149289499968,None,j,0.5974699000362307,5696.149289499968,None,5696.149289499968,None,5696.773259499809,None,5696.773259499809,None,5696.773259499809,None,5696.773259499809,None,5696.773259499809,None,5696.773259499809,None,5697.066770899808,None,5697.066770899808,None,5698.614965299843,None,5698.614965299843,None,5698.614965299843,None,5698.614965299843,None,5698.614965299843,None,5698.614965299843,None,5698.614965299843,None,5698.614965299843,None,5698.614965299843,None,23,37,34,79,79,52,5701.129422899801,None,6.0,0.6885852999985218,5701.129422899801,None,5701.129422899801,None,5701.129422899801,None,5701.129422899801,None,None,None,5701.836325999815,None,,,,,,,127,f,1,2022_Dec_12_1342,RL,2021.2.3,59.86779990728128,
1,66,0,66,0,,,,,,,,,,,,,,,None,None,None,None,None,5703.391220599879,None,5703.391220599879,None,5703.391220599879,None,5703.391220599879,None,j,0.6658447000663728,5703.391220599879,None,5703.391220599879,None,5704.115071599837,None,5704.115071599837,None,5704.115071599837,None,5704.115071599837,None,5704.115071599837,None,5704.115071599837,None,5704.405495699961,5706.073205299908,5704.405495699961,5706.073205299908,5706.110577899963,None,5706.110577899963,None,5706.110577899963,None,5706.110577899963,None,5706.110577899963,None,5706.110577899963,None,5706.110577899963,None,5706.110577899963,None,5706.110577899963,None,25,40,34,76,76,46,5708.639310899889,None,7.0,1.219465099973604,5708.639310899889,None,5708.639310899889,None,5708.639310899889,None,5708.639310899889,None,None,None,5709.875379199861,None,,,,,,,127,f,1,2022_Dec_12_1342,RL,2021.2.3,59.86779990728128,
1,67,0,67,0,,,,,,,,,,,,,,,None,None,None,None,None,5711.479735899949,None,5711.479735899949,None,5711.479735899949,None,5711.479735899949,None,j,0.5973632000386715,5711.479735899949,None,5711.479735899949,None,5712.119192299899,None,5712.119192299899,None,5712.119192299899,None,5712.119192299899,None,5712.119192299899,None,5712.119192299899,None,5712.411212799838,5713.644959199941,5712.411212799838,5713.644959199941,5713.680740999989,None,5713.680740999989,None,5713.680740999989,None,5713.680740999989,None,5713.680740999989,None,5713.680740999989,None,5713.680740999989,None,5713.680740999989,None,5713.680740999989,None,33,28,31,74,74,62,5716.1827448999975,None,7.0,0.8004009001888335,5716.1827448999975,None,5716.1827448999975,None,5716.1827448999975,None,5716.1827448999975,None,None,None,5716.997104199836,None,,,,,,,127,f,1,2022_Dec_12_1342,RL,2021.2.3,59.86779990728128,
1,68,0,68,0,,,,,,,,,,,,,,,None,None,None,None,None,5718.835455799941,None,5718.835455799941,None,5718.835455799941,None,5718.835455799941,None,i,0.6015330001246184,5718.835455799941,None,5718.835455799941,None,5719.48710509995,None,5719.48710509995,None,5719.48710509995,None,5719.48710509995,None,5719.48710509995,None,5719.48710509995,None,5719.782782099908,None,5719.782782099908,None,5721.497492899885,None,5721.497492899885,None,5721.497492899885,None,5721.497492899885,None,5721.497492899885,None,5721.497492899885,None,5721.497492899885,None,5721.497492899885,None,5721.497492899885,None,28,43,29,69,29,70,5724.0146388998255,None,3.0,1.7873182999901474,5724.0146388998255,None,5724.0146388998255,None,5724.0146388998255,None,5724.0146388998255,None,None,None,5725.820103699807,None,,,,,,,127,f,1,2022_Dec_12_1342,RL,2021.2.3,59.86779990728128,
1,69,0,69,0,,,,,,,,,,,,,,,None,None,None,None,None,5727.474617199972,None,5727.474617199972,None,5727.474617199972,None,5727.474617199972,None,i,0.5726294000633061,5727.474617199972,None,5727.474617199972,None,5728.093143999809,None,5728.093143999809,None,5728.093143999809,None,5728.093143999809,None,5728.093143999809,None,5728.093143999809,None,5728.3888077999,None,5728.3888077999,None,5729.335906699998,None,5729.335906699998,None,5729.335906699998,None,5729.335906699998,None,5729.335906699998,None,5729.335906699998,None,5729.335906699998,None,5729.335906699998,None,5729.335906699998,None,20,34,35,60,35,55,5731.855616599787,None,3.0,0.7687837998382747,5731.855616599787,None,5731.855616599787,None,5731.855616599787,None,5731.855616599787,None,None,None,5732.6410281998105,None,,,,,,,127,f,1,2022_Dec_12_1342,RL,2021.2.3,59.86779990728128,
1,70,0,70,0,,,,,,,,,,,,,,,None,None,None,None,None,5734.246391499881,None,5734.246391499881,None,5734.246391499881,None,5734.246391499881,None,j,0.5813349999953061,5734.246391499881,None,5734.246391499881,None,5734.883132299874,None,5734.883132299874,None,5734.883132299874,None,5734.883132299874,None,5734.883132299874,None,5734.883132299874,None,5735.176954399794,None,5735.176954399794,None,5737.159702299861,None,5737.159702299861,None,5737.159702299861,None,5737.159702299861,None,5737.159702299861,None,5737.159702299861,None,5737.159702299861,None,5737.159702299861,None,5737.159702299861,None,37,35,36,62,62,60,5739.67611130001,None,6.0,1.289242200087756,5739.67611130001,None,5739.67611130001,None,5739.67611130001,None,5739.67611130001,None,None,None,5740.983583999798,None,,,,,,,127,f,1,2022_Dec_12_1342,RL,2021.2.3,59.86779990728128,
1,71,0,71,0,,,,,,,,,,,,,,,None,None,None,None,None,5742.6183711998165,None,5742.6183711998165,None,5742.6183711998165,None,5742.6183711998165,None,j,0.37933539994992316,5742.6183711998165,None,5742.6183711998165,None,5743.040660499828,None,5743.040660499828,None,5743.040660499828,None,5743.040660499828,None,5743.040660499828,None,5743.040660499828,None,5743.332326199859,5744.416489499854,5743.332326199859,5744.416489499854,5744.448627199978,None,5744.448627199978,None,5744.448627199978,None,5744.448627199978,None,5744.448627199978,None,5744.448627199978,None,5744.448627199978,None,5744.448627199978,None,5744.448627199978,None,18,36,28,65,65,65,5746.965560899815,None,6.0,0.7690006999764591,5746.965560899815,None,5746.965560899815,None,5746.965560899815,None,5746.965560899815,None,None,None,5747.751661399845,None,,,,,,,127,f,1,2022_Dec_12_1342,RL,2021.2.3,59.86779990728128,
1,72,0,72,0,,,,,,,,,,,,,,,None,None,None,None,None,5749.389197999844,None,5749.389197999844,None,5749.389197999844,None,5749.389197999844,None,r,1.1281260999385267,5749.389197999844,None,5749.389197999844,None,5750.563303899951,None,5750.563303899951,None,5750.563303899951,None,5750.563303899951,None,5750.563303899951,None,5750.563303899951,None,5750.854186999844,5752.555268399883,5750.854186999844,5752.555268399883,5752.58733699983,None,5752.58733699983,None,5752.58733699983,None,5752.58733699983,None,5752.58733699983,None,5752.58733699983,None,5752.58733699983,None,5752.58733699983,None,5752.58733699983,None,34,34,32,66,34,73,5755.106598699931,None,6.0,0.7861605999059975,5755.106598699931,None,5755.106598699931,None,5755.106598699931,None,5755.106598699931,None,None,None,5755.907403099816,None,,,,,,,127,f,1,2022_Dec_12_1342,RL,2021.2.3,59.86779990728128,
1,73,0,73,0,,,,,,,,,,,,,,,None,None,None,None,None,5757.662109699799,None,5757.662109699799,None,5757.662109699799,None,5757.662109699799,None,j,1.0449829001445323,5757.662109699799,None,5757.662109699799,None,5758.746142099844,None,5758.746142099844,None,5758.746142099844,None,5758.746142099844,None,5758.746142099844,None,5758.746142099844,None,5759.043320899829,None,5759.043320899829,None,5760.357462699991,None,5760.357462699991,None,5760.357462699991,None,5760.357462699991,None,5760.357462699991,None,5760.357462699991,None,5760.357462699991,None,5760.357462699991,None,5760.357462699991,None,27,33,32,63,63,69,5762.8758218998555,None,6.0,1.022460199892521,5762.8758218998555,None,5762.8758218998555,None,5762.8758218998555,None,5762.8758218998555,None,None,None,5763.91288089985,None,,,,,,,127,f,1,2022_Dec_12_1342,RL,2021.2.3,59.86779990728128,
1,74,0,74,0,,,,,,,,,,,,,,,None,None,None,None,None,5765.682351699797,None,5765.682351699797,None,5765.682351699797,None,5765.682351699797,None,f,0.4349853000603616,5765.682351699797,None,5765.682351699797,None,5766.178883999819,None,5766.178883999819,None,5766.178883999819,None,5766.178883999819,None,5766.178883999819,None,5766.178883999819,None,5766.465313799912,5768.166222699918,5766.465313799912,5768.166222699918,5768.1989637999795,None,5768.1989637999795,None,5768.1989637999795,None,5768.1989637999795,None,5768.1989637999795,None,5768.1989637999795,None,5768.1989637999795,None,5768.1989637999795,None,5768.1989637999795,None,29,54,25,67,54,60,5770.714536599815,None,6.0,0.6387161000166088,5770.714536599815,None,5770.714536599815,None,5770.714536599815,None,5770.714536599815,None,None,None,5771.368147899862,None,,,,,,,127,f,1,2022_Dec_12_1342,RL,2021.2.3,59.86779990728128,
1,75,0,75,0,,,,,,,,,,,,,,,5773.019361699931,None,q,5773.019361699931,None,5801.341343499953,None,5801.341343499953,None,5801.341343499953,None,5801.341343499953,None,f,1.457223900128156,5801.341343499953,None,5801.341343499953,None,5802.846887699794,None,5802.846887699794,None,5802.846887699794,None,5802.846887699794,None,5802.846887699794,None,5802.846887699794,None,5803.140443600016,None,5803.140443600016,None,5804.894565699855,None,5804.894565699855,None,5804.894565699855,None,5804.894565699855,None,5804.894565699855,None,5804.894565699855,None,5804.894565699855,None,5804.894565699855,None,5804.894565699855,None,28,38,27,68,38,59,5807.406750599854,None,3.0,1.2554187001660466,5807.406750599854,None,5807.406750599854,None,5807.406750599854,None,5807.406750599854,None,None,None,5808.6771538998,None,28.291078200098127,,,,,,127,f,1,2022_Dec_12_1342,RL,2021.2.3,59.86779990728128,
1,76,0,76,0,,,,,,,,,,,,,,,None,None,None,None,None,5810.665846499847,None,5810.665846499847,None,5810.665846499847,None,5810.665846499847,None,r,0.5829282000195235,5810.665846499847,None,5810.665846499847,None,5811.2992447,None,5811.2992447,None,5811.2992447,None,5811.2992447,None,5811.2992447,None,5811.2992447,None,5811.596433499828,None,5811.596433499828,None,5813.227305499837,None,5813.227305499837,None,5813.227305499837,None,5813.227305499837,None,5813.227305499837,None,5813.227305499837,None,5813.227305499837,None,5813.227305499837,None,5813.227305499837,None,28,28,24,64,28,74,5815.740740599809,None,2.0,1.24262629984878,5815.740740599809,None,5815.740740599809,None,5815.740740599809,None,5815.740740599809,None,None,None,5817.0020409999415,None,,,,,,,127,f,1,2022_Dec_12_1342,RL,2021.2.3,59.86779990728128,
1,77,0,77,0,,,,,,,,,,,,,,,None,None,None,None,None,5818.920847299974,None,5818.920847299974,None,5818.920847299974,None,5818.920847299974,None,f,0.577944700140506,5818.920847299974,None,5818.920847299974,None,5819.539013799978,None,5819.539013799978,None,5819.539013799978,None,5819.539013799978,None,5819.539013799978,None,5819.539013799978,None,5819.835401099874,None,5819.835401099874,None,5821.522266599815,None,5821.522266599815,None,5821.522266599815,None,5821.522266599815,None,5821.522266599815,None,5821.522266599815,None,5821.522266599815,None,5821.522266599815,None,5821.522266599815,None,33,39,23,66,39,45,5824.03333009989,None,3.0,1.522211599862203,5824.03333009989,None,5824.03333009989,None,5824.03333009989,None,5824.03333009989,None,None,None,5825.576673599891,None,,,,,,,127,f,1,2022_Dec_12_1342,RL,2021.2.3,59.86779990728128,
1,78,0,78,0,,,,,,,,,,,,,,,None,None,None,None,None,5827.359623699915,None,5827.359623699915,None,5827.359623699915,None,5827.359623699915,None,f,1.0690103000961244,5827.359623699915,None,5827.359623699915,None,5828.479884999804,None,5828.479884999804,None,5828.479884999804,None,5828.479884999804,None,5828.479884999804,None,5828.479884999804,None,5828.775050899945,None,5828.775050899945,None,5830.10624210001,None,5830.10624210001,None,5830.10624210001,None,5830.10624210001,None,5830.10624210001,None,5830.10624210001,None,5830.10624210001,None,5830.10624210001,None,5830.10624210001,None,24,31,27,69,31,52,5832.626869099913,None,6.0,0.5863230000250041,5832.626869099913,None,5832.626869099913,None,5832.626869099913,None,5832.626869099913,None,None,None,5833.227591899922,None,,,,,,,127,f,1,2022_Dec_12_1342,RL,2021.2.3,59.86779990728128,
1,79,0,79,0,,,,,,,,,,,,,,,None,None,None,None,None,5834.9826457998715,None,5834.9826457998715,None,5834.9826457998715,None,5834.9826457998715,None,i,1.1862401999533176,5834.9826457998715,None,5834.9826457998715,None,5836.216397000011,None,5836.216397000011,None,5836.216397000011,None,5836.216397000011,None,5836.216397000011,None,5836.216397000011,None,5836.513717099791,None,5836.513717099791,None,5837.579067199957,None,5837.579067199957,None,5837.579067199957,None,5837.579067199957,None,5837.579067199957,None,5837.579067199957,None,5837.579067199957,None,5837.579067199957,None,5837.579067199957,None,29,28,31,67,31,46,5840.0938520999625,None,4.0,1.1409104000777006,5840.0938520999625,None,5840.0938520999625,None,5840.0938520999625,None,5840.0938520999625,None,None,None,5841.252814899897,None,,,,,,,127,f,1,2022_Dec_12_1342,RL,2021.2.3,59.86779990728128,
1,80,0,80,0,,,,,,,,,,,,,,,None,None,None,None,None,5843.12083449983,None,5843.12083449983,None,5843.12083449983,None,5843.12083449983,None,j,0.5681721000000834,5843.12083449983,None,5843.12083449983,None,5843.739546399796,None,5843.739546399796,None,5843.739546399796,None,5843.739546399796,None,5843.739546399796,None,5843.739546399796,None,5844.035759199876,None,5844.035759199876,None,5845.566910099937,None,5845.566910099937,None,5845.566910099937,None,5845.566910099937,None,5845.566910099937,None,5845.566910099937,None,5845.566910099937,None,5845.566910099937,None,5845.566910099937,None,30,21,27,58,58,64,5848.085452499799,None,3.0,1.7386408997699618,5848.085452499799,None,5848.085452499799,None,5848.085452499799,None,5848.085452499799,None,None,None,5849.839147499995,None,,,,,,,127,f,1,2022_Dec_12_1342,RL,2021.2.3,59.86779990728128,
1,81,0,81,0,,,,,,,,,,,,,,,None,None,None,None,None,5851.4270181998145,None,5851.4270181998145,None,5851.4270181998145,None,5851.4270181998145,None,j,0.4133148000109941,5851.4270181998145,None,5851.4270181998145,None,5851.880903299898,None,5851.880903299898,None,5851.880903299898,None,5851.880903299898,None,5851.880903299898,None,5851.880903299898,None,5852.157868799986,5853.69208259997,5852.157868799986,5853.69208259997,5853.739699599799,None,5853.739699599799,None,5853.739699599799,None,5853.739699599799,None,5853.739699599799,None,5853.739699599799,None,5853.739699599799,None,5853.739699599799,None,5853.739699599799,None,34,33,34,65,65,62,5856.264642999973,None,6.0,0.7314026998355985,5856.264642999973,None,5856.264642999973,None,5856.264642999973,None,5856.264642999973,None,None,None,5857.011684299912,None,,,,,,,127,f,1,2022_Dec_12_1342,RL,2021.2.3,59.86779990728128,
1,82,0,82,0,,,,,,,,,,,,,,,None,None,None,None,None,5858.565541199874,None,5858.565541199874,None,5858.565541199874,None,5858.565541199874,None,j,0.5435321000404656,5858.565541199874,None,5858.565541199874,None,5859.159954799805,None,5859.159954799805,None,5859.159954799805,None,5859.159954799805,None,5859.159954799805,None,5859.159954799805,None,5859.446444799891,5860.546871999977,5859.446444799891,5860.546871999977,5860.577394899912,None,5860.577394899912,None,5860.577394899912,None,5860.577394899912,None,5860.577394899912,None,5860.577394899912,None,5860.577394899912,None,5860.577394899912,None,5860.577394899912,None,44,28,38,70,70,61,5863.102971300017,None,6.0,0.4986880999058485,5863.102971300017,None,5863.102971300017,None,5863.102971300017,None,5863.102971300017,None,None,None,5863.615389899816,None,,,,,,,127,f,1,2022_Dec_12_1342,RL,2021.2.3,59.86779990728128,
1,83,0,83,0,,,,,,,,,,,,,,,None,None,None,None,None,5865.352830499876,None,5865.352830499876,None,5865.352830499876,None,5865.352830499876,None,j,0.5462989001534879,5865.352830499876,None,5865.352830499876,None,5865.9371592998505,None,5865.9371592998505,None,5865.9371592998505,None,5865.9371592998505,None,5865.9371592998505,None,5865.9371592998505,None,5866.234350099927,None,5866.234350099927,None,5867.299015899887,None,5867.299015899887,None,5867.299015899887,None,5867.299015899887,None,5867.299015899887,None,5867.299015899887,None,5867.299015899887,None,5867.299015899887,None,5867.299015899887,None,41,33,48,61,61,64,5869.806832699804,None,5.0,1.5438637998886406,5869.806832699804,None,5869.806832699804,None,5869.806832699804,None,5869.806832699804,None,None,None,5871.370715299854,None,,,,,,,127,f,1,2022_Dec_12_1342,RL,2021.2.3,59.86779990728128,
1,84,0,84,0,,,,,,,,,,,,,,,None,None,None,None,None,5872.988530199975,None,5872.988530199975,None,5872.988530199975,None,5872.988530199975,None,j,0.6007912000641227,5872.988530199975,None,5872.988530199975,None,5873.6270638999995,None,5873.6270638999995,None,5873.6270638999995,None,5873.6270638999995,None,5873.6270638999995,None,5873.6270638999995,None,5873.922829899937,None,5873.922829899937,None,5875.103839999996,None,5875.103839999996,None,5875.103839999996,None,5875.103839999996,None,5875.103839999996,None,5875.103839999996,None,5875.103839999996,None,5875.103839999996,None,5875.103839999996,None,27,34,42,66,66,64,5877.622693100013,None,7.0,1.0187774999067187,5877.622693100013,None,5877.622693100013,None,5877.622693100013,None,5877.622693100013,None,None,None,5878.660133199999,None,,,,,,,127,f,1,2022_Dec_12_1342,RL,2021.2.3,59.86779990728128,
1,85,0,85,0,,,,,,,,,,,,,,,None,None,None,None,None,5880.210224299924,None,5880.210224299924,None,5880.210224299924,None,5880.210224299924,None,j,0.3989621999207884,5880.210224299924,None,5880.210224299924,None,5880.642107099993,None,5880.642107099993,None,5880.642107099993,None,5880.642107099993,None,5880.642107099993,None,5880.642107099993,None,5880.92781309993,5882.094993999926,5880.92781309993,5882.094993999926,5882.111799399834,None,5882.111799399834,None,5882.111799399834,None,5882.111799399834,None,5882.111799399834,None,5882.111799399834,None,5882.111799399834,None,5882.111799399834,None,5882.111799399834,None,30,31,37,68,68,52,5884.616156699834,None,6.0,1.160252199973911,5884.616156699834,None,5884.616156699834,None,5884.616156699834,None,5884.616156699834,None,None,None,5885.797249799827,None,,,,,,,127,f,1,2022_Dec_12_1342,RL,2021.2.3,59.86779990728128,
1,86,0,86,0,,,,,,,,,,,,,,,None,None,None,None,None,5887.498713299865,None,5887.498713299865,None,5887.498713299865,None,5887.498713299865,None,j,0.3397667999379337,5887.498713299865,None,5887.498713299865,None,5887.873809299897,None,5887.873809299897,None,5887.873809299897,None,5887.873809299897,None,5887.873809299897,None,5887.873809299897,None,5888.165958799887,None,5888.165958799887,None,5890.034089699853,None,5890.034089699853,None,5890.034089699853,None,5890.034089699853,None,5890.034089699853,None,5890.034089699853,None,5890.034089699853,None,5890.034089699853,None,5890.034089699853,None,33,36,39,60,60,50,5892.538880900014,None,7.0,0.8104572999291122,5892.538880900014,None,5892.538880900014,None,5892.538880900014,None,5892.538880900014,None,None,None,5893.36910469993,None,,,,,,,127,f,1,2022_Dec_12_1342,RL,2021.2.3,59.86779990728128,
1,87,0,87,0,,,,,,,,,,,,,,,None,None,None,None,None,5894.970385799883,None,5894.970385799883,None,5894.970385799883,None,5894.970385799883,None,j,0.39902950008399785,5894.970385799883,None,5894.970385799883,None,5895.404364799848,None,5895.404364799848,None,5895.404364799848,None,5895.404364799848,None,5895.404364799848,None,5895.404364799848,None,5895.704574099975,None,5895.704574099975,None,5896.555062199943,None,5896.555062199943,None,5896.555062199943,None,5896.555062199943,None,5896.555062199943,None,5896.555062199943,None,5896.555062199943,None,5896.555062199943,None,5896.555062199943,None,30,31,39,64,64,39,5899.060068399878,None,7.0,0.6767245000228286,5899.060068399878,None,5899.060068399878,None,5899.060068399878,None,5899.060068399878,None,None,None,5899.756912699901,None,,,,,,,127,f,1,2022_Dec_12_1342,RL,2021.2.3,59.86779990728128,
1,88,0,88,0,,,,,,,,,,,,,,,None,None,None,None,None,5901.491713199997,None,5901.491713199997,None,5901.491713199997,None,5901.491713199997,None,j,0.4473410998471081,5901.491713199997,None,5901.491713199997,None,5901.965880199801,None,5901.965880199801,None,5901.965880199801,None,5901.965880199801,None,5901.965880199801,None,5901.965880199801,None,5902.242306899978,5903.1263130998705,5902.242306899978,5903.1263130998705,5903.160123299807,None,5903.160123299807,None,5903.160123299807,None,5903.160123299807,None,5903.160123299807,None,5903.160123299807,None,5903.160123299807,None,5903.160123299807,None,5903.160123299807,None,33,20,41,54,54,43,5905.66490639979,None,7.0,0.5761897000484169,5905.66490639979,None,5905.66490639979,None,5905.66490639979,None,5905.66490639979,None,None,None,5906.261328999884,None,,,,,,,127,f,1,2022_Dec_12_1342,RL,2021.2.3,59.86779990728128,
1,89,0,89,0,,,,,,,,,,,,,,,None,None,None,None,None,5907.765773799969,None,5907.765773799969,None,5907.765773799969,None,5907.765773799969,None,j,0.3234905998688191,5907.765773799969,None,5907.765773799969,None,5908.12032649992,None,5908.12032649992,None,5908.12032649992,None,5908.12032649992,None,5908.12032649992,None,5908.12032649992,None,5908.413328599883,None,5908.413328599883,None,5909.415205099853,None,5909.415205099853,None,5909.415205099853,None,5909.415205099853,None,5909.415205099853,None,5909.415205099853,None,5909.415205099853,None,5909.415205099853,None,5909.415205099853,None,28,20,36,59,59,49,5911.931383299874,None,7.0,0.9030596001539379,5911.931383299874,None,5911.931383299874,None,5911.931383299874,None,5911.931383299874,None,None,None,5912.849360299995,None,,,,,,,127,f,1,2022_Dec_12_1342,RL,2021.2.3,59.86779990728128,
1,90,0,90,0,,,,,,,,,,,,,,,None,None,None,None,None,5914.770635999972,None,5914.770635999972,None,5914.770635999972,None,5914.770635999972,None,j,0.5387490000575781,5914.770635999972,None,5914.770635999972,None,5915.355525899911,None,5915.355525899911,None,5915.355525899911,None,5915.355525899911,None,5915.355525899911,None,5915.355525899911,None,5915.651925300015,None,5915.651925300015,None,5917.136228599818,None,5917.136228599818,None,5917.136228599818,None,5917.136228599818,None,5917.136228599818,None,5917.136228599818,None,5917.136228599818,None,5917.136228599818,None,5917.136228599818,None,29,26,37,62,62,53,5919.649841199862,None,7.0,0.5230259001255035,5919.649841199862,None,5919.649841199862,None,5919.649841199862,None,5919.649841199862,None,None,None,5920.187657099916,None,,,,,,,127,f,1,2022_Dec_12_1342,RL,2021.2.3,59.86779990728128,
1,91,0,91,0,,,,,,,,,,,,,,,None,None,None,None,None,5921.775603899965,None,5921.775603899965,None,5921.775603899965,None,5921.775603899965,None,j,0.593584000132978,5921.775603899965,None,5921.775603899965,None,5922.411707299994,None,5922.411707299994,None,5922.411707299994,None,5922.411707299994,None,5922.411707299994,None,5922.411707299994,None,5922.706765699899,5924.391118499916,5922.706765699899,5924.391118499916,5924.423743899912,None,5924.423743899912,None,5924.423743899912,None,5924.423743899912,None,5924.423743899912,None,5924.423743899912,None,5924.423743899912,None,5924.423743899912,None,5924.423743899912,None,26,32,42,59,59,47,5926.941846499918,None,7.0,0.552750000031665,5926.941846499918,None,5926.941846499918,None,5926.941846499918,None,5926.941846499918,None,None,None,5927.509846499888,None,,,,,,,127,f,1,2022_Dec_12_1342,RL,2021.2.3,59.86779990728128,
1,92,0,92,0,,,,,,,,,,,,,,,None,None,None,None,None,5929.231210900005,None,5929.231210900005,None,5929.231210900005,None,5929.231210900005,None,r,0.3495525000616908,5929.231210900005,None,5929.231210900005,None,5929.6335339997895,None,5929.6335339997895,None,5929.6335339997895,None,5929.6335339997895,None,5929.6335339997895,None,5929.6335339997895,None,5929.92828439991,5931.2291007998865,5929.92828439991,5931.2291007998865,5931.259373700013,None,5931.259373700013,None,5931.259373700013,None,5931.259373700013,None,5931.259373700013,None,5931.259373700013,None,5931.259373700013,None,5931.259373700013,None,5931.259373700013,None,30,27,48,63,30,46,5933.7749906999525,None,4.0,1.1242009000852704,5933.7749906999525,None,5933.7749906999525,None,5933.7749906999525,None,5933.7749906999525,None,None,None,5934.921704699984,None,,,,,,,127,f,1,2022_Dec_12_1342,RL,2021.2.3,59.86779990728128,
1,93,0,93,0,,,,,,,,,,,,,,,None,None,None,None,None,5936.552866999991,None,5936.552866999991,None,5936.552866999991,None,5936.552866999991,None,j,0.6078097999561578,5936.552866999991,None,5936.552866999991,None,5937.21083129989,None,5937.21083129989,None,5937.21083129989,None,5937.21083129989,None,5937.21083129989,None,5937.21083129989,None,5937.500309399795,5938.500929599861,5937.500309399795,5938.500929599861,5938.532391499961,None,5938.532391499961,None,5938.532391499961,None,5938.532391499961,None,5938.532391499961,None,5938.532391499961,None,5938.532391499961,None,5938.532391499961,None,5938.532391499961,None,33,32,47,54,54,49,5941.04730389989,None,7.0,0.6062590999063104,5941.04730389989,None,5941.04730389989,None,5941.04730389989,None,5941.04730389989,None,None,None,5941.669779199874,None,,,,,,,127,f,1,2022_Dec_12_1342,RL,2021.2.3,59.86779990728128,
1,94,0,94,0,,,,,,,,,,,,,,,None,None,None,None,None,5943.424906199798,None,5943.424906199798,None,5943.424906199798,None,5943.424906199798,None,j,0.33554460015147924,5943.424906199798,None,5943.424906199798,None,5943.809853799874,None,5943.809853799874,None,5943.809853799874,None,5943.809853799874,None,5943.809853799874,None,5943.809853799874,None,5944.1049213998485,None,5944.1049213998485,None,5945.1020500999875,None,5945.1020500999875,None,5945.1020500999875,None,5945.1020500999875,None,5945.1020500999875,None,5945.1020500999875,None,5945.1020500999875,None,5945.1020500999875,None,5945.1020500999875,None,26,26,57,61,61,47,5947.6245108,None,6.0,0.7689991001971066,5947.6245108,None,5947.6245108,None,5947.6245108,None,5947.6245108,None,None,None,5948.407602499938,None,,,,,,,127,f,1,2022_Dec_12_1342,RL,2021.2.3,59.86779990728128,
1,95,0,95,0,,,,,,,,,,,,,,,None,None,None,None,None,5950.312400199939,None,5950.312400199939,None,5950.312400199939,None,5950.312400199939,None,j,0.2781236998271197,5950.312400199939,None,5950.312400199939,None,5950.630413699895,None,5950.630413699895,None,5950.630413699895,None,5950.630413699895,None,5950.630413699895,None,5950.630413699895,None,5950.926343299914,None,5950.926343299914,None,5951.821992099984,None,5951.821992099984,None,5951.821992099984,None,5951.821992099984,None,5951.821992099984,None,5951.821992099984,None,5951.821992099984,None,5951.821992099984,None,5951.821992099984,None,29,33,59,63,63,47,5954.341254399857,None,6.0,0.5881898999214172,5954.341254399857,None,5954.341254399857,None,5954.341254399857,None,5954.341254399857,None,None,None,5954.945293099852,None,,,,,,,127,f,1,2022_Dec_12_1342,RL,2021.2.3,59.86779990728128,
1,96,0,96,0,,,,,,,,,,,,,,,None,None,None,None,None,5956.69811769994,None,5956.69811769994,None,5956.69811769994,None,5956.69811769994,None,i,0.5325443001929671,5956.69811769994,None,5956.69811769994,None,5957.273225700017,None,5957.273225700017,None,5957.273225700017,None,5957.273225700017,None,5957.273225700017,None,5957.273225700017,None,5957.5642012998,5958.88192919991,5957.5642012998,5958.88192919991,5958.91383619979,None,5958.91383619979,None,5958.91383619979,None,5958.91383619979,None,5958.91383619979,None,5958.91383619979,None,5958.91383619979,None,5958.91383619979,None,5958.91383619979,None,28,28,50,49,50,42,5961.429606199963,None,7.0,0.5051792999729514,5961.429606199963,None,5961.429606199963,None,5961.429606199963,None,5961.429606199963,None,None,None,5961.950148399919,None,,,,,,,127,f,1,2022_Dec_12_1342,RL,2021.2.3,59.86779990728128,
1,97,0,97,0,,,,,,,,,,,,,,,None,None,None,None,None,5963.8883125998545,None,5963.8883125998545,None,5963.8883125998545,None,5963.8883125998545,None,i,0.3923168000765145,5963.8883125998545,None,5963.8883125998545,None,5964.327860999852,None,5964.327860999852,None,5964.327860999852,None,5964.327860999852,None,5964.327860999852,None,5964.327860999852,None,5964.619384099962,None,5964.619384099962,None,5966.41544669983,None,5966.41544669983,None,5966.41544669983,None,5966.41544669983,None,5966.41544669983,None,5966.41544669983,None,5966.41544669983,None,5966.41544669983,None,5966.41544669983,None,18,30,54,65,54,48,5968.934543799842,None,7.0,0.7725736999418586,5968.934543799842,None,5968.934543799842,None,5968.934543799842,None,5968.934543799842,None,None,None,5969.723235799931,None,,,,,,,127,f,1,2022_Dec_12_1342,RL,2021.2.3,59.86779990728128,
1,98,0,98,0,,,,,,,,,,,,,,,None,None,None,None,None,5971.476989099989,None,5971.476989099989,None,5971.476989099989,None,5971.476989099989,None,j,0.41372679988853633,5971.476989099989,None,5971.476989099989,None,5971.94832299999,None,5971.94832299999,None,5971.94832299999,None,5971.94832299999,None,5971.94832299999,None,5971.94832299999,None,5972.241055499995,None,5972.241055499995,None,5974.089795999927,None,5974.089795999927,None,5974.089795999927,None,5974.089795999927,None,5974.089795999927,None,5974.089795999927,None,5974.089795999927,None,5974.089795999927,None,5974.089795999927,None,23,35,51,68,68,49,5976.609755499987,None,7.0,0.48114549997262657,5976.609755499987,None,5976.609755499987,None,5976.609755499987,None,5976.609755499987,None,None,None,5977.116563499905,None,,,,,,,127,f,1,2022_Dec_12_1342,RL,2021.2.3,59.86779990728128,
1,99,0,99,0,,,,,,,,,,,,,,,None,None,None,None,None,5978.681395499967,None,5978.681395499967,None,5978.681395499967,None,5978.681395499967,None,f,0.5592626000288874,5978.681395499967,None,5978.681395499967,None,5979.2845344999805,None,5979.2845344999805,None,5979.2845344999805,None,5979.2845344999805,None,5979.2845344999805,None,5979.2845344999805,None,5979.579461499816,None,5979.579461499816,None,5981.1336244998965,None,5981.1336244998965,None,5981.1336244998965,None,5981.1336244998965,None,5981.1336244998965,None,5981.1336244998965,None,5981.1336244998965,None,5981.1336244998965,None,5981.1336244998965,None,18,35,53,59,35,49,5983.653191899881,None,7.0,0.44582040002569556,5983.653191899881,None,5983.653191899881,None,5983.653191899881,None,5983.653191899881,None,None,None,5984.115720399888,None,,,,,,,127,f,1,2022_Dec_12_1342,RL,2021.2.3,59.86779990728128,
1,100,0,100,0,,,,,,,,,,,,,,,None,None,None,None,None,5985.7700914999,None,5985.7700914999,None,5985.7700914999,None,5985.7700914999,None,r,0.4504976999014616,5985.7700914999,None,5985.7700914999,None,5986.272099299822,None,5986.272099299822,None,5986.272099299822,None,5986.272099299822,None,5986.272099299822,None,5986.272099299822,None,5986.5677565999795,5987.818410699954,5986.5677565999795,5987.818410699954,5987.849626099924,None,5987.849626099924,None,5987.849626099924,None,5987.849626099924,None,5987.849626099924,None,5987.849626099924,None,5987.849626099924,None,5987.849626099924,None,5987.849626099924,None,14,36,54,57,14,44,5990.367845400004,None,7.0,1.0193191000726074,5990.367845400004,None,5990.367845400004,None,5990.367845400004,None,5990.367845400004,None,None,None,5991.4037436998915,None,,,,,,,127,f,1,2022_Dec_12_1342,RL,2021.2.3,59.86779990728128,
1,101,0,101,0,,,,,,,,,,,,,,,None,None,None,None,None,5992.938444099855,None,5992.938444099855,None,5992.938444099855,None,5992.938444099855,None,i,0.32238960009999573,5992.938444099855,None,5992.938444099855,None,5993.313248899998,None,5993.313248899998,None,5993.313248899998,None,5993.313248899998,None,5993.313248899998,None,5993.313248899998,None,5993.605859299889,None,5993.605859299889,None,5994.553457099944,None,5994.553457099944,None,5994.553457099944,None,5994.553457099944,None,5994.553457099944,None,5994.553457099944,None,5994.553457099944,None,5994.553457099944,None,5994.553457099944,None,19,37,56,60,56,57,5997.071728099836,None,4.0,0.7047501001507044,5997.071728099836,None,5997.071728099836,None,5997.071728099836,None,5997.071728099836,None,None,None,5997.795217399951,None,,,,,,,127,f,1,2022_Dec_12_1342,RL,2021.2.3,59.86779990728128,
1,102,0,102,0,,,,,,,,,,,,,,,None,None,None,None,None,5999.746671599802,None,5999.746671599802,None,5999.746671599802,None,5999.746671599802,None,j,0.414256599964574,5999.746671599802,None,5999.746671599802,None,6000.203188599786,None,6000.203188599786,None,6000.203188599786,None,6000.203188599786,None,6000.203188599786,None,6000.203188599786,None,6000.493917000014,None,6000.493917000014,None,6001.34097229992,None,6001.34097229992,None,6001.34097229992,None,6001.34097229992,None,6001.34097229992,None,6001.34097229992,None,6001.34097229992,None,6001.34097229992,None,6001.34097229992,None,25,38,58,57,57,45,6003.858900399879,None,6.0,0.5550316998269409,6003.858900399879,None,6003.858900399879,None,6003.858900399879,None,6003.858900399879,None,None,None,6004.430030499818,None,,,,,,,127,f,1,2022_Dec_12_1342,RL,2021.2.3,59.86779990728128,
1,103,0,103,0,,,,,,,,,,,,,,,None,None,None,None,None,6006.167340799933,None,6006.167340799933,None,6006.167340799933,None,6006.167340799933,None,j,0.30338599998503923,6006.167340799933,None,6006.167340799933,None,6006.524347599829,None,6006.524347599829,None,6006.524347599829,None,6006.524347599829,None,6006.524347599829,None,6006.524347599829,None,6006.815043499926,6008.432824299904,6006.815043499926,6008.432824299904,6008.46464999998,None,6008.46464999998,None,6008.46464999998,None,6008.46464999998,None,6008.46464999998,None,6008.46464999998,None,6008.46464999998,None,6008.46464999998,None,6008.46464999998,None,14,40,55,61,61,45,6010.980950099882,None,7.0,0.8389419999439269,6010.980950099882,None,6010.980950099882,None,6010.980950099882,None,6010.980950099882,None,None,None,6011.836583099794,None,,,,,,,127,f,1,2022_Dec_12_1342,RL,2021.2.3,59.86779990728128,
1,104,0,104,0,,,,,,,,,,,,,,,None,None,None,None,None,6013.806037299801,None,6013.806037299801,None,6013.806037299801,None,6013.806037299801,None,j,0.3546445998363197,6013.806037299801,None,6013.806037299801,None,6014.210266199894,None,6014.210266199894,None,6014.210266199894,None,6014.210266199894,None,6014.210266199894,None,6014.210266199894,None,6014.503717300016,6015.571146899834,6014.503717300016,6015.571146899834,6015.607896399917,None,6015.607896399917,None,6015.607896399917,None,6015.607896399917,None,6015.607896399917,None,6015.607896399917,None,6015.607896399917,None,6015.607896399917,None,6015.607896399917,None,25,46,52,58,58,33,6018.119165799813,None,6.0,1.2550252000801265,6018.119165799813,None,6018.119165799813,None,6018.119165799813,None,6018.119165799813,None,None,None,6019.389874199871,None,,,,,,,127,f,1,2022_Dec_12_1342,RL,2021.2.3,59.86779990728128,
1,105,0,105,0,,,,,,,,,,,,,,,None,None,None,None,None,6021.011476599844,None,6021.011476599844,None,6021.011476599844,None,6021.011476599844,None,i,0.8094906001351774,6021.011476599844,None,6021.011476599844,None,6021.870461999904,None,6021.870461999904,None,6021.870461999904,None,6021.870461999904,None,6021.870461999904,None,6021.870461999904,None,6022.159059299855,None,6022.159059299855,None,6023.472714199917,None,6023.472714199917,None,6023.472714199917,None,6023.472714199917,None,6023.472714199917,None,6023.472714199917,None,6023.472714199917,None,6023.472714199917,None,6023.472714199917,None,26,47,58,63,58,48,6025.991267999867,None,7.0,0.6392071999143809,6025.991267999867,None,6025.991267999867,None,6025.991267999867,None,6025.991267999867,None,None,None,6026.645352899795,None,,,,,,,127,f,1,2022_Dec_12_1342,RL,2021.2.3,59.86779990728128,
1,106,0,106,0,,,,,,,,,,,,,,,None,None,None,None,None,6028.449455899885,None,6028.449455899885,None,6028.449455899885,None,6028.449455899885,None,i,0.4513878000434488,6028.449455899885,None,6028.449455899885,None,6028.95139159984,None,6028.95139159984,None,6028.95139159984,None,6028.95139159984,None,6028.95139159984,None,6028.95139159984,None,6029.247459699865,None,6029.247459699865,None,6030.986293799942,None,6030.986293799942,None,6030.986293799942,None,6030.986293799942,None,6030.986293799942,None,6030.986293799942,None,6030.986293799942,None,6030.986293799942,None,6030.986293799942,None,30,45,51,52,51,34,6033.503021599958,None,7.0,0.5634202999062836,6033.503021599958,None,6033.503021599958,None,6033.503021599958,None,6033.503021599958,None,None,None,6034.089162799995,None,,,,,,,127,f,1,2022_Dec_12_1342,RL,2021.2.3,59.86779990728128,
1,107,0,107,0,,,,,,,,,,,,,,,None,None,None,None,None,6036.088260899996,None,6036.088260899996,None,6036.088260899996,None,6036.088260899996,None,i,0.7927935000043362,6036.088260899996,None,6036.088260899996,None,6036.9320074999705,None,6036.9320074999705,None,6036.9320074999705,None,6036.9320074999705,None,6036.9320074999705,None,6036.9320074999705,None,6037.219537899829,6038.820391200017,6037.219537899829,6038.820391200017,6038.851793699898,None,6038.851793699898,None,6038.851793699898,None,6038.851793699898,None,6038.851793699898,None,6038.851793699898,None,6038.851793699898,None,6038.851793699898,None,6038.851793699898,None,26,51,51,60,51,49,6041.368955399841,None,6.0,0.5369307000655681,6041.368955399841,None,6041.368955399841,None,6041.368955399841,None,6041.368955399841,None,None,None,6041.9227102999575,None,,,,,,,127,f,1,2022_Dec_12_1342,RL,2021.2.3,59.86779990728128,
1,108,0,108,0,,,,,,,,,,,,,,,None,None,None,None,None,6043.610114199808,None,6043.610114199808,None,6043.610114199808,None,6043.610114199808,None,j,0.400774700101465,6043.610114199808,None,6043.610114199808,None,6044.065118899802,None,6044.065118899802,None,6044.065118899802,None,6044.065118899802,None,6044.065118899802,None,6044.065118899802,None,6044.357765199849,6045.658538599964,6044.357765199849,6045.658538599964,6045.690171099966,None,6045.690171099966,None,6045.690171099966,None,6045.690171099966,None,6045.690171099966,None,6045.690171099966,None,6045.690171099966,None,6045.690171099966,None,6045.690171099966,None,16,55,63,58,58,37,6048.208821599837,None,6.0,1.2722167000174522,6048.208821599837,None,6048.208821599837,None,6048.208821599837,None,6048.208821599837,None,None,None,6049.505274299998,None,,,,,,,127,f,1,2022_Dec_12_1342,RL,2021.2.3,59.86779990728128,
1,109,0,109,0,,,,,,,,,,,,,,,None,None,None,None,None,6051.148813299835,None,6051.148813299835,None,6051.148813299835,None,6051.148813299835,None,i,0.3623678002040833,6051.148813299835,None,6051.148813299835,None,6051.553141399985,None,6051.553141399985,None,6051.553141399985,None,6051.553141399985,None,6051.553141399985,None,6051.553141399985,None,6051.829659599811,6052.86358019989,6051.829659599811,6052.86358019989,6052.899456899846,None,6052.899456899846,None,6052.899456899846,None,6052.899456899846,None,6052.899456899846,None,6052.899456899846,None,6052.899456899846,None,6052.899456899846,None,6052.899456899846,None,17,54,58,63,58,29,6055.411192599917,None,7.0,0.5221551998984069,6055.411192599917,None,6055.411192599917,None,6055.411192599917,None,6055.411192599917,None,None,None,6055.948599499883,None,,,,,,,127,f,1,2022_Dec_12_1342,RL,2021.2.3,59.86779990728128,
1,110,0,110,0,,,,,,,,,,,,,,,None,None,None,None,None,6057.853648199933,None,6057.853648199933,None,6057.853648199933,None,6057.853648199933,None,i,0.2775065000168979,6057.853648199933,None,6057.853648199933,None,6058.172905899817,None,6058.172905899817,None,6058.172905899817,None,6058.172905899817,None,6058.172905899817,None,6058.172905899817,None,6058.467527400004,6059.48483849992,6058.467527400004,6059.48483849992,6059.517888699891,None,6059.517888699891,None,6059.517888699891,None,6059.517888699891,None,6059.517888699891,None,6059.517888699891,None,6059.517888699891,None,6059.517888699891,None,6059.517888699891,None,23,49,59,57,59,28,6062.037589799846,None,7.0,0.6376379001885653,6062.037589799846,None,6062.037589799846,None,6062.037589799846,None,6062.037589799846,None,None,None,6062.689692899818,None,,,,,,,127,f,1,2022_Dec_12_1342,RL,2021.2.3,59.86779990728128,
1,111,0,111,0,,,,,,,,,,,,,,,None,None,None,None,None,6064.54169959994,None,6064.54169959994,None,6064.54169959994,None,6064.54169959994,None,j,0.6192237001378089,6064.54169959994,None,6064.54169959994,None,6065.211042799987,None,6065.211042799987,None,6065.211042799987,None,6065.211042799987,None,6065.211042799987,None,6065.211042799987,None,6065.505589599954,6066.623004999943,6065.505589599954,6066.623004999943,6066.654938899912,None,6066.654938899912,None,6066.654938899912,None,6066.654938899912,None,6066.654938899912,None,6066.654938899912,None,6066.654938899912,None,6066.654938899912,None,6066.654938899912,None,25,45,66,59,59,56,6069.172202899819,None,5.0,0.702397899935022,6069.172202899819,None,6069.172202899819,None,6069.172202899819,None,6069.172202899819,None,None,None,6069.892037799815,None,,,,,,,127,f,1,2022_Dec_12_1342,RL,2021.2.3,59.86779990728128,
1,112,0,112,0,,,,,,,,,,,,,,,None,None,None,None,None,6071.646959499922,None,6071.646959499922,None,6071.646959499922,None,6071.646959499922,None,i,0.4145356002263725,6071.646959499922,None,6071.646959499922,None,6072.121912200004,None,6072.121912200004,None,6072.121912200004,None,6072.121912200004,None,6072.121912200004,None,6072.121912200004,None,6072.410501000006,6074.04494549986,6072.410501000006,6074.04494549986,6074.075469899923,None,6074.075469899923,None,6074.075469899923,None,6074.075469899923,None,6074.075469899923,None,6074.075469899923,None,6074.075469899923,None,6074.075469899923,None,6074.075469899923,None,25,57,63,53,63,61,6076.602000299841,None,6.0,0.5493147999513894,6076.602000299841,None,6076.602000299841,None,6076.602000299841,None,6076.602000299841,None,None,None,6077.163264599862,None,,,,,,,127,f,1,2022_Dec_12_1342,RL,2021.2.3,59.86779990728128,
