bandit,trials.thisRepN,trials.thisTrialN,trials.thisN,trials.thisIndex,instru_img1.started,instru_resp.started,instru_resp.keys,instru_resp.rt,instru_img2.started,instru_resp2.started,instru_resp2.keys,instru_resp2.rt,fixbefore_2.started,rest_response.keys,red.started,green.started,yellow.started,blue.started,choose_bandit.started,Fixation.started,choose_bandit.keys,choose_bandit.rt,black.started,red_2.started,green_2.started,yellow_2.started,blue_2.started,fixation_2.started,docs.started,image_2.started,docs.stopped,image_2.stopped,black.stopped,red_2.stopped,green_2.stopped,yellow_2.stopped,blue_2.stopped,fixation_2.stopped,black_com.started,reward_sub.started,palyerb.started,reward__sub.started,compare.started,red_compare.started,green_com.started,yellow_com.started,blue_com.started,image_3.started,slider.started,text.started,image_4.started,image_5.started,rewardyellow,rewardred,rewardblue,rewardgreen,subchoose,playerb,slider.response,slider.rt,intertrialfix.started,intertrialfix.stopped,rest_image.started,rest_response.started,rest_response.rt,bigx.started,bigx.stopped,image.started,key_resp.started,key_resp.keys,participant,Gender,Age,date,expName,psychopyVersion,frameRate,
,,,,,47.22704839985818,47.22704839985818,space,61.65867900010198,,,,,,,,,,,,,,,,,,,,,,,,,,,,,,,,,,,,,,,,,,,,,,,,,,,,,,,,,,,,,,,128,f,1,2022-12-12_13h42.39.440,RL,2022.2.4,60.09842918720978,
,,,,,,,,,108.92084919987246,108.92084919987246,space,33.704110600054264,,,,,,,,,,,,,,,,,,,,,,,,,,,,,,,,,,,,,,,,,,,,,,,,,,,,,,,,,,,128,f,1,2022-12-12_13h42.39.440,RL,2022.2.4,60.09842918720978,
1,0,0,0,0,,,,,,,,,142.65345069998875,None,143.6891000997275,143.6891000997275,143.6891000997275,143.6891000997275,143.6891000997275,143.6891000997275,i,0.34436290012672544,144.13320209970698,144.13320209970698,144.13320209970698,144.13320209970698,144.13320209970698,144.13320209970698,144.36666229972616,144.36666229972616,146.11162719968706,146.11162719968706,146.18657479994,146.18657479994,146.18657479994,146.18657479994,146.18657479994,146.18657479994,146.18657479994,146.18657479994,146.18657479994,146.18657479994,146.18657479994,146.18657479994,146.18657479994,146.18657479994,146.18657479994,148.68791639991105,148.68791639991105,148.68791639991105,148.68791639991105,148.68791639991105,74,40,52,50,52,55,4.0,8.90881079994142,157.66236729966477,159.27576159965247,,,,,,,,,128,f,1,2022-12-12_13h42.39.440,RL,2022.2.4,60.09842918720978,
1,1,0,1,0,,,,,,,,,,None,159.27576159965247,159.27576159965247,159.27576159965247,159.27576159965247,159.27576159965247,159.27576159965247,f,0.779967799782753,160.07712999964133,160.07712999964133,160.07712999964133,160.07712999964133,160.07712999964133,160.07712999964133,160.37276070006192,160.37276070006192,161.2539726998657,161.2539726998657,161.2698341999203,161.2698341999203,161.2698341999203,161.2698341999203,161.2698341999203,161.2698341999203,161.2698341999203,161.2698341999203,161.2698341999203,161.2698341999203,161.2698341999203,161.2698341999203,161.2698341999203,161.2698341999203,161.2698341999203,163.77933959988877,163.77933959988877,163.77933959988877,163.77933959988877,163.77933959988877,70,44,48,45,44,47,4.0,0.6466555995866656,164.44430019985884,166.1565777999349,,,,,,,,,128,f,1,2022-12-12_13h42.39.440,RL,2022.2.4,60.09842918720978,
1,2,0,2,0,,,,,,,,,,None,166.1565777999349,166.1565777999349,166.1565777999349,166.1565777999349,166.1565777999349,166.1565777999349,i,0.5049429000355303,166.69047359982505,166.69047359982505,166.69047359982505,166.69047359982505,166.69047359982505,166.69047359982505,166.98828589962795,166.98828589962795,168.13459130004048,168.13459130004048,168.13459130004048,168.13459130004048,168.13459130004048,168.13459130004048,168.13459130004048,168.13459130004048,168.13459130004048,168.13459130004048,168.13459130004048,168.13459130004048,168.13459130004048,168.13459130004048,168.13459130004048,168.13459130004048,168.13459130004048,170.64400189975277,170.64400189975277,170.64400189975277,170.64400189975277,170.64400189975277,64,22,56,48,56,42,4.0,2.143108000047505,172.8049233998172,174.46754310000688,,,,,,,,,128,f,1,2022-12-12_13h42.39.440,RL,2022.2.4,60.09842918720978,
1,3,0,3,0,,,,,,,,,,None,174.46754310000688,174.46754310000688,174.46754310000688,174.46754310000688,174.46754310000688,174.46754310000688,r,1.047544900327921,175.55308779980987,175.55308779980987,175.55308779980987,175.55308779980987,175.55308779980987,175.55308779980987,175.84754869993776,175.84754869993776,176.86109260004014,176.86109260004014,176.86109260004014,176.86109260004014,176.86109260004014,176.86109260004014,176.86109260004014,176.86109260004014,176.86109260004014,176.86109260004014,176.86109260004014,176.86109260004014,176.86109260004014,176.86109260004014,176.86109260004014,176.86109260004014,176.86109260004014,179.37031519971788,179.37031519971788,179.37031519971788,179.37031519971788,179.37031519971788,69,40,59,46,69,66,5.0,1.0966163999401033,180.48363359970972,182.14637749968097,,,,,,,,,128,f,1,2022-12-12_13h42.39.440,RL,2022.2.4,60.09842918720978,
1,4,0,4,0,,,,,,,,,,None,182.14637749968097,182.14637749968097,182.14637749968097,182.14637749968097,182.14637749968097,182.14637749968097,j,0.9237459995783865,183.09452829975635,183.09452829975635,183.09452829975635,183.09452829975635,183.09452829975635,183.09452829975635,183.39366679964587,183.39366679964587,184.29069359973073,184.29069359973073,184.29069359973073,184.29069359973073,184.29069359973073,184.29069359973073,184.29069359973073,184.29069359973073,184.29069359973073,184.29069359973073,184.29069359973073,184.29069359973073,184.29069359973073,184.29069359973073,184.29069359973073,184.29069359973073,184.29069359973073,186.79998289979994,186.79998289979994,186.79998289979994,186.79998289979994,186.79998289979994,63,43,63,49,49,61,3.0,0.9297384000383317,187.74755089962855,189.35997039964423,,,,,,,,,128,f,1,2022-12-12_13h42.39.440,RL,2022.2.4,60.09842918720978,
1,5,0,5,0,,,,,,,,,,None,189.35997039964423,189.35997039964423,189.35997039964423,189.35997039964423,189.35997039964423,189.35997039964423,r,0.6311842002905905,190.02822689991444,190.02822689991444,190.02822689991444,190.02822689991444,190.02822689991444,190.02822689991444,190.32430189987645,190.32430189987645,192.01967739965767,192.01967739965767,192.03637299966067,192.03637299966067,192.03637299966067,192.03637299966067,192.03637299966067,192.03637299966067,192.03637299966067,192.03637299966067,192.03637299966067,192.03637299966067,192.03637299966067,192.03637299966067,192.03637299966067,192.03637299966067,192.03637299966067,194.54565119976178,194.54565119976178,194.54565119976178,194.54565119976178,194.54565119976178,60,32,60,51,60,62,3.0,1.693922699894756,196.25774889998138,198.20259299967438,,,,,,,,,128,f,1,2022-12-12_13h42.39.440,RL,2022.2.4,60.09842918720978,
1,6,0,6,0,,,,,,,,,,None,198.20259299967438,198.20259299967438,198.20259299967438,198.20259299967438,198.20259299967438,198.20259299967438,f,0.3861082000657916,198.6230448000133,198.6230448000133,198.6230448000133,198.6230448000133,198.6230448000133,198.6230448000133,198.9179083998315,198.9179083998315,200.6461021997966,200.6461021997966,200.662645699922,200.662645699922,200.662645699922,200.662645699922,200.662645699922,200.662645699922,200.662645699922,200.662645699922,200.662645699922,200.662645699922,200.662645699922,200.662645699922,200.662645699922,200.662645699922,200.662645699922,203.17216259986162,203.17216259986162,203.17216259986162,203.17216259986162,203.17216259986162,65,42,65,44,42,56,4.0,1.9265995998866856,205.1164187998511,206.92911170003936,,,,,,,,,128,f,1,2022-12-12_13h42.39.440,RL,2022.2.4,60.09842918720978,
1,7,0,7,0,,,,,,,,,,None,206.92911170003936,206.92911170003936,206.92911170003936,206.92911170003936,206.92911170003936,206.92911170003936,j,0.32533139968290925,207.2805642997846,207.2805642997846,207.2805642997846,207.2805642997846,207.2805642997846,207.2805642997846,207.57765539968386,207.57765539968386,209.17295269994065,209.17295269994065,209.17295269994065,209.17295269994065,209.17295269994065,209.17295269994065,209.17295269994065,209.17295269994065,209.17295269994065,209.17295269994065,209.17295269994065,209.17295269994065,209.17295269994065,209.17295269994065,209.17295269994065,209.17295269994065,209.17295269994065,211.681905800011,211.681905800011,211.681905800011,211.681905800011,211.681905800011,62,41,67,46,46,61,4.0,0.5477108000777662,212.24714399967343,213.77673209970817,,,,,,,,,128,f,1,2022-12-12_13h42.39.440,RL,2022.2.4,60.09842918720978,
1,8,0,8,0,,,,,,,,,,None,213.77673209970817,213.77673209970817,213.77673209970817,213.77673209970817,213.77673209970817,213.77673209970817,r,0.7816606997512281,214.59491469990462,214.59491469990462,214.59491469990462,214.59491469990462,214.59491469990462,214.59491469990462,214.89060879964381,214.89060879964381,216.83518609963357,216.83518609963357,216.85202929982916,216.85202929982916,216.85202929982916,216.85202929982916,216.85202929982916,216.85202929982916,216.85202929982916,216.85202929982916,216.85202929982916,216.85202929982916,216.85202929982916,216.85202929982916,216.85202929982916,216.85202929982916,216.85202929982916,219.3610759000294,219.3610759000294,219.3610759000294,219.3610759000294,219.3610759000294,65,32,57,42,65,55,4.0,1.1126020001247525,220.49151559965685,222.30349669978023,,,,,,,,,128,f,1,2022-12-12_13h42.39.440,RL,2022.2.4,60.09842918720978,
1,9,0,9,0,,,,,,,,,,None,222.30349669978023,222.30349669978023,222.30349669978023,222.30349669978023,222.30349669978023,222.30349669978023,r,0.4047841001302004,222.73820400005206,222.73820400005206,222.73820400005206,222.73820400005206,222.73820400005206,222.73820400005206,223.03547160001472,223.03547160001472,224.88014720007777,224.88014720007777,224.88014720007777,224.88014720007777,224.88014720007777,224.88014720007777,224.88014720007777,224.88014720007777,224.88014720007777,224.88014720007777,224.88014720007777,224.88014720007777,224.88014720007777,224.88014720007777,224.88014720007777,224.88014720007777,224.88014720007777,227.38904540007934,227.38904540007934,227.38904540007934,227.38904540007934,227.38904540007934,51,31,56,35,51,54,4.0,0.6470199995674193,228.05383299989626,230.01603129971772,,,,,,,,,128,f,1,2022-12-12_13h42.39.440,RL,2022.2.4,60.09842918720978,
1,10,0,10,0,,,,,,,,,,None,230.01603129971772,230.01603129971772,230.01603129971772,230.01603129971772,230.01603129971772,230.01603129971772,r,0.7562098000198603,230.7976134000346,230.7976134000346,230.7976134000346,230.7976134000346,230.7976134000346,230.7976134000346,231.09656760003418,231.09656760003418,232.27681729989126,232.27681729989126,232.27681729989126,232.27681729989126,232.27681729989126,232.27681729989126,232.27681729989126,232.27681729989126,232.27681729989126,232.27681729989126,232.27681729989126,232.27681729989126,232.27681729989126,232.27681729989126,232.27681729989126,232.27681729989126,232.27681729989126,234.78585839970037,234.78585839970037,234.78585839970037,234.78585839970037,234.78585839970037,53,32,57,32,53,65,4.0,0.4979811003431678,235.30117049999535,237.013284499757,,,,,,,,,128,f,1,2022-12-12_13h42.39.440,RL,2022.2.4,60.09842918720978,
1,11,0,11,0,,,,,,,,,,None,237.013284499757,237.013284499757,237.013284499757,237.013284499757,237.013284499757,237.013284499757,j,0.84953109966591,237.89612989965826,237.89612989965826,237.89612989965826,237.89612989965826,237.89612989965826,237.89612989965826,238.19390709977597,238.19390709977597,239.19078260008246,239.19078260008246,239.19078260008246,239.19078260008246,239.19078260008246,239.19078260008246,239.19078260008246,239.19078260008246,239.19078260008246,239.19078260008246,239.19078260008246,239.19078260008246,239.19078260008246,239.19078260008246,239.19078260008246,239.19078260008246,239.19078260008246,241.7001259997487,241.7001259997487,241.7001259997487,241.7001259997487,241.7001259997487,55,29,58,32,32,62,2.0,0.4812994999811053,242.1986667998135,244.21032689977437,,,,,,,,,128,f,1,2022-12-12_13h42.39.440,RL,2022.2.4,60.09842918720978,
1,12,0,12,0,,,,,,,,,,None,244.21032689977437,244.21032689977437,244.21032689977437,244.21032689977437,244.21032689977437,244.21032689977437,r,0.4641970000229776,244.6932270997204,244.6932270997204,244.6932270997204,244.6932270997204,244.6932270997204,244.6932270997204,244.9918672000058,244.9918672000058,246.88673450006172,246.88673450006172,246.88673450006172,246.88673450006172,246.88673450006172,246.88673450006172,246.88673450006172,246.88673450006172,246.88673450006172,246.88673450006172,246.88673450006172,246.88673450006172,246.88673450006172,246.88673450006172,246.88673450006172,246.88673450006172,246.88673450006172,249.3960575996898,249.3960575996898,249.3960575996898,249.3960575996898,249.3960575996898,55,30,62,31,55,55,4.0,0.44810840021818876,249.86110839992762,251.39111949969083,,,,,,,,,128,f,1,2022-12-12_13h42.39.440,RL,2022.2.4,60.09842918720978,
1,13,0,13,0,,,,,,,,,,None,251.39111949969083,251.39111949969083,251.39111949969083,251.39111949969083,251.39111949969083,251.39111949969083,f,0.3585759000852704,251.7747974996455,251.7747974996455,251.7747974996455,251.7747974996455,251.7747974996455,251.7747974996455,252.07264259969816,252.07264259969816,253.36945870006457,253.36945870006457,253.36945870006457,253.36945870006457,253.36945870006457,253.36945870006457,253.36945870006457,253.36945870006457,253.36945870006457,253.36945870006457,253.36945870006457,253.36945870006457,253.36945870006457,253.36945870006457,253.36945870006457,253.36945870006457,253.36945870006457,255.87817109981552,255.87817109981552,255.87817109981552,255.87817109981552,255.87817109981552,57,19,60,39,19,51,1.0,0.6321115996688604,256.5265405997634,258.2722793999128,,,,,,,,,128,f,1,2022-12-12_13h42.39.440,RL,2022.2.4,60.09842918720978,
1,14,0,14,0,,,,,,,,,,None,258.2722793999128,258.2722793999128,258.2722793999128,258.2722793999128,258.2722793999128,258.2722793999128,i,0.4076379998587072,258.70486869988963,258.70486869988963,258.70486869988963,258.70486869988963,258.70486869988963,258.70486869988963,259.0035887998529,259.0035887998529,260.3996510999277,260.3996510999277,260.4165626997128,260.4165626997128,260.4165626997128,260.4165626997128,260.4165626997128,260.4165626997128,260.4165626997128,260.4165626997128,260.4165626997128,260.4165626997128,260.4165626997128,260.4165626997128,260.4165626997128,260.4165626997128,260.4165626997128,262.92554719978943,262.92554719978943,262.92554719978943,262.92554719978943,262.92554719978943,50,23,64,34,64,34,4.0,0.7142683998681605,263.6570989000611,265.61925589991733,,,,,,,,,128,f,1,2022-12-12_13h42.39.440,RL,2022.2.4,60.09842918720978,
1,15,0,15,0,,,,,,,,,,None,265.61925589991733,265.61925589991733,265.61925589991733,265.61925589991733,265.61925589991733,265.61925589991733,r,0.3659157999791205,266.0187840000726,266.0187840000726,266.0187840000726,266.0187840000726,266.0187840000726,266.0187840000726,266.3173593999818,266.3173593999818,267.89646949991584,267.89646949991584,267.89646949991584,267.89646949991584,267.89646949991584,267.89646949991584,267.89646949991584,267.89646949991584,267.89646949991584,267.89646949991584,267.89646949991584,267.89646949991584,267.89646949991584,267.89646949991584,267.89646949991584,267.89646949991584,267.89646949991584,270.40531850000843,270.40531850000843,270.40531850000843,270.40531850000843,270.40531850000843,50,28,74,34,50,56,4.0,0.44786479976028204,270.87044889992103,272.6993859997019,,,,,,,,,128,f,1,2022-12-12_13h42.39.440,RL,2022.2.4,60.09842918720978,
1,16,0,16,0,,,,,,,,,,None,272.6993859997019,272.6993859997019,272.6993859997019,272.6993859997019,272.6993859997019,272.6993859997019,i,0.8967820000834763,273.6160136000253,273.6160136000253,273.6160136000253,273.6160136000253,273.6160136000253,273.6160136000253,273.91341120004654,273.91341120004654,275.8414425998926,275.8414425998926,275.8414425998926,275.8414425998926,275.8414425998926,275.8414425998926,275.8414425998926,275.8414425998926,275.8414425998926,275.8414425998926,275.8414425998926,275.8414425998926,275.8414425998926,275.8414425998926,275.8414425998926,275.8414425998926,275.8414425998926,278.35017499979585,278.35017499979585,278.35017499979585,278.35017499979585,278.35017499979585,56,23,63,37,63,63,4.0,0.43038540007546544,278.7988783996552,280.56113919988275,,,,,,,,,128,f,1,2022-12-12_13h42.39.440,RL,2022.2.4,60.09842918720978,
1,17,0,17,0,,,,,,,,,,None,280.56113919988275,280.56113919988275,280.56113919988275,280.56113919988275,280.56113919988275,280.56113919988275,i,0.4344508000649512,281.02849979978055,281.02849979978055,281.02849979978055,281.02849979978055,281.02849979978055,281.02849979978055,281.326330000069,281.326330000069,283.3039603000507,283.3039603000507,283.3039603000507,283.3039603000507,283.3039603000507,283.3039603000507,283.3039603000507,283.3039603000507,283.3039603000507,283.3039603000507,283.3039603000507,283.3039603000507,283.3039603000507,283.3039603000507,283.3039603000507,283.3039603000507,283.3039603000507,285.81343459989876,285.81343459989876,285.81343459989876,285.81343459989876,285.81343459989876,63,29,66,44,66,55,4.0,0.3811703999526799,286.2118460997008,287.75850249966606,,,,,,,,,128,f,1,2022-12-12_13h42.39.440,RL,2022.2.4,60.09842918720978,
1,18,0,18,0,,,,,,,,,,None,287.75850249966606,287.75850249966606,287.75850249966606,287.75850249966606,287.75850249966606,287.75850249966606,j,0.3030855003744364,288.0928660999052,288.0928660999052,288.0928660999052,288.0928660999052,288.0928660999052,288.0928660999052,288.39012279966846,288.39012279966846,289.7697717999108,289.7697717999108,289.7697717999108,289.7697717999108,289.7697717999108,289.7697717999108,289.7697717999108,289.7697717999108,289.7697717999108,289.7697717999108,289.7697717999108,289.7697717999108,289.7697717999108,289.7697717999108,289.7697717999108,289.7697717999108,289.7697717999108,292.278935899958,292.278935899958,292.278935899958,292.278935899958,292.278935899958,62,29,67,49,49,65,4.0,0.6302332002669573,292.92686089966446,294.5900301998481,,,,,,,,,128,f,1,2022-12-12_13h42.39.440,RL,2022.2.4,60.09842918720978,
1,19,0,19,0,,,,,,,,,,None,294.5900301998481,294.5900301998481,294.5900301998481,294.5900301998481,294.5900301998481,294.5900301998481,r,1.1558800004422665,295.7723186998628,295.7723186998628,295.7723186998628,295.7723186998628,295.7723186998628,295.7723186998628,296.0696999998763,296.0696999998763,297.34930589981377,297.34930589981377,297.3659405000508,297.3659405000508,297.3659405000508,297.3659405000508,297.3659405000508,297.3659405000508,297.3659405000508,297.3659405000508,297.3659405000508,297.3659405000508,297.3659405000508,297.3659405000508,297.3659405000508,297.3659405000508,297.3659405000508,299.87516199983656,299.87516199983656,299.87516199983656,299.87516199983656,299.87516199983656,61,34,60,33,61,34,5.0,0.4643248999491334,300.35695399995893,302.30218099988997,,,,,,,,,128,f,1,2022-12-12_13h42.39.440,RL,2022.2.4,60.09842918720978,
1,20,0,20,0,,,,,,,,,,None,302.30218099988997,302.30218099988997,302.30218099988997,302.30218099988997,302.30218099988997,302.30218099988997,r,0.3444933001883328,302.6681158998981,302.6681158998981,302.6681158998981,302.6681158998981,302.6681158998981,302.6681158998981,302.9674354996532,302.9674354996532,304.0307681998238,304.0307681998238,304.0307681998238,304.0307681998238,304.0307681998238,304.0307681998238,304.0307681998238,304.0307681998238,304.0307681998238,304.0307681998238,304.0307681998238,304.0307681998238,304.0307681998238,304.0307681998238,304.0307681998238,304.0307681998238,304.0307681998238,306.5396853000857,306.5396853000857,306.5396853000857,306.5396853000857,306.5396853000857,62,41,70,36,62,53,5.0,0.8296229001134634,307.38782459963113,309.18316769972444,,,,,,,,,128,f,1,2022-12-12_13h42.39.440,RL,2022.2.4,60.09842918720978,
1,21,0,21,0,,,,,,,,,,None,309.18316769972444,309.18316769972444,309.18316769972444,309.18316769972444,309.18316769972444,309.18316769972444,j,0.854791299905628,310.0663993000053,310.0663993000053,310.0663993000053,310.0663993000053,310.0663993000053,310.0663993000053,310.36377499997616,310.36377499997616,311.543791399803,311.543791399803,311.543791399803,311.543791399803,311.543791399803,311.543791399803,311.543791399803,311.543791399803,311.543791399803,311.543791399803,311.543791399803,311.543791399803,311.543791399803,311.543791399803,311.543791399803,311.543791399803,311.543791399803,314.05292110005394,314.05292110005394,314.05292110005394,314.05292110005394,314.05292110005394,53,40,71,40,40,65,3.0,0.7629730999469757,314.8338643000461,316.6464623999782,,,,,,,,,128,f,1,2022-12-12_13h42.39.440,RL,2022.2.4,60.09842918720978,
1,22,0,22,0,,,,,,,,,,None,316.6464623999782,316.6464623999782,316.6464623999782,316.6464623999782,316.6464623999782,316.6464623999782,r,0.326401200145483,316.9971010000445,316.9971010000445,316.9971010000445,316.9971010000445,316.9971010000445,316.9971010000445,317.2947395998053,317.2947395998053,319.1898325998336,319.1898325998336,319.1898325998336,319.1898325998336,319.1898325998336,319.1898325998336,319.1898325998336,319.1898325998336,319.1898325998336,319.1898325998336,319.1898325998336,319.1898325998336,319.1898325998336,319.1898325998336,319.1898325998336,319.1898325998336,319.1898325998336,321.6989811998792,321.6989811998792,321.6989811998792,321.6989811998792,321.6989811998792,61,39,71,43,61,52,4.0,0.9134460003115237,322.62945199990645,324.14235749980435,,,,,,,,,128,f,1,2022-12-12_13h42.39.440,RL,2022.2.4,60.09842918720978,
1,23,0,23,0,,,,,,,,,,None,324.14235749980435,324.14235749980435,324.14235749980435,324.14235749980435,324.14235749980435,324.14235749980435,r,0.5756640997715294,324.7452173996717,324.7452173996717,324.7452173996717,324.7452173996717,324.7452173996717,324.7452173996717,325.0401236996986,325.0401236996986,326.3695839997381,326.3695839997381,326.38682419992983,326.38682419992983,326.38682419992983,326.38682419992983,326.38682419992983,326.38682419992983,326.38682419992983,326.38682419992983,326.38682419992983,326.38682419992983,326.38682419992983,326.38682419992983,326.38682419992983,326.38682419992983,326.38682419992983,328.8958196998574,328.8958196998574,328.8958196998574,328.8958196998574,328.8958196998574,51,38,68,45,51,55,5.0,1.3614616999402642,330.27530330000445,331.8218525000848,,,,,,,,,128,f,1,2022-12-12_13h42.39.440,RL,2022.2.4,60.09842918720978,
1,24,0,24,0,,,,,,,,,,None,331.8218525000848,331.8218525000848,331.8218525000848,331.8218525000848,331.8218525000848,331.8218525000848,f,0.3101098998449743,332.1545853000134,332.1545853000134,332.1545853000134,332.1545853000134,332.1545853000134,332.1545853000134,332.4536594999954,332.4536594999954,334.3813906996511,334.3813906996511,334.3813906996511,334.3813906996511,334.3813906996511,334.3813906996511,334.3813906996511,334.3813906996511,334.3813906996511,334.3813906996511,334.3813906996511,334.3813906996511,334.3813906996511,334.3813906996511,334.3813906996511,334.3813906996511,334.3813906996511,336.8902439000085,336.8902439000085,336.8902439000085,336.8902439000085,336.8902439000085,52,31,69,38,31,52,2.0,0.564058200456202,337.47213449981064,339.0353931998834,,,,,,,,,128,f,1,2022-12-12_13h42.39.440,RL,2022.2.4,60.09842918720978,
1,25,0,25,0,,,,,,,,,,None,339.0353931998834,339.0353931998834,339.0353931998834,339.0353931998834,339.0353931998834,339.0353931998834,i,1.4610943999141455,340.51494979998097,340.51494979998097,340.51494979998097,340.51494979998097,340.51494979998097,340.51494979998097,340.81396559998393,340.81396559998393,342.01052800007164,342.01052800007164,342.01052800007164,342.01052800007164,342.01052800007164,342.01052800007164,342.01052800007164,342.01052800007164,342.01052800007164,342.01052800007164,342.01052800007164,342.01052800007164,342.01052800007164,342.01052800007164,342.01052800007164,342.01052800007164,342.01052800007164,344.51952919969335,344.51952919969335,344.51952919969335,344.51952919969335,344.51952919969335,54,37,66,51,66,60,4.0,1.0462299999780953,345.58316999999806,347.312435799744,,,,,,,,,128,f,1,2022-12-12_13h42.39.440,RL,2022.2.4,60.09842918720978,
1,26,0,26,0,,,,,,,,,,None,347.312435799744,347.312435799744,347.312435799744,347.312435799744,347.312435799744,347.312435799744,j,0.3585057002492249,347.6984887998551,347.6984887998551,347.6984887998551,347.6984887998551,347.6984887998551,347.6984887998551,347.99414849979803,347.99414849979803,349.6564786997624,349.6564786997624,349.6729383999482,349.6729383999482,349.6729383999482,349.6729383999482,349.6729383999482,349.6729383999482,349.6729383999482,349.6729383999482,349.6729383999482,349.6729383999482,349.6729383999482,349.6729383999482,349.6729383999482,349.6729383999482,349.6729383999482,352.18211309984326,352.18211309984326,352.18211309984326,352.18211309984326,352.18211309984326,52,39,73,46,46,62,3.0,1.3287579002790153,353.5282403999008,355.1579525996931,,,,,,,,,128,f,1,2022-12-12_13h42.39.440,RL,2022.2.4,60.09842918720978,
1,27,0,27,0,,,,,,,,,,None,355.1579525996931,355.1579525996931,355.1579525996931,355.1579525996931,355.1579525996931,355.1579525996931,r,0.3077149000018835,355.4914619997144,355.4914619997144,355.4914619997144,355.4914619997144,355.4914619997144,355.4914619997144,355.79009129991755,355.79009129991755,356.68713840004057,356.68713840004057,356.68713840004057,356.68713840004057,356.68713840004057,356.68713840004057,356.68713840004057,356.68713840004057,356.68713840004057,356.68713840004057,356.68713840004057,356.68713840004057,356.68713840004057,356.68713840004057,356.68713840004057,356.68713840004057,356.68713840004057,359.19676459999755,359.19676459999755,359.19676459999755,359.19676459999755,359.19676459999755,58,38,66,44,58,48,4.0,0.6307022999972105,359.8443578998558,361.5239462000318,,,,,,,,,128,f,1,2022-12-12_13h42.39.440,RL,2022.2.4,60.09842918720978,
1,28,0,28,0,,,,,,,,,,None,361.5239462000318,361.5239462000318,361.5239462000318,361.5239462000318,361.5239462000318,361.5239462000318,r,0.2984685003757477,361.8412989997305,361.8412989997305,361.8412989997305,361.8412989997305,361.8412989997305,361.8412989997305,362.138927699998,362.138927699998,363.5017987000756,363.5017987000756,363.5017987000756,363.5017987000756,363.5017987000756,363.5017987000756,363.5017987000756,363.5017987000756,363.5017987000756,363.5017987000756,363.5017987000756,363.5017987000756,363.5017987000756,363.5017987000756,363.5017987000756,363.5017987000756,363.5017987000756,366.0113601000048,366.0113601000048,366.0113601000048,366.0113601000048,366.0113601000048,61,41,65,40,61,39,6.0,0.7305995002388954,366.7592188999988,368.5878387996927,,,,,,,,,128,f,1,2022-12-12_13h42.39.440,RL,2022.2.4,60.09842918720978,
1,29,0,29,0,,,,,,,,,,None,368.5878387996927,368.5878387996927,368.5878387996927,368.5878387996927,368.5878387996927,368.5878387996927,r,0.3405225998722017,368.95427539991215,368.95427539991215,368.95427539991215,368.95427539991215,368.95427539991215,368.95427539991215,369.25316119985655,369.25316119985655,370.46647129999474,370.46647129999474,370.46647129999474,370.46647129999474,370.46647129999474,370.46647129999474,370.46647129999474,370.46647129999474,370.46647129999474,370.46647129999474,370.46647129999474,370.46647129999474,370.46647129999474,370.46647129999474,370.46647129999474,370.46647129999474,370.46647129999474,372.97536409972236,372.97536409972236,372.97536409972236,372.97536409972236,372.97536409972236,59,44,59,43,59,58,4.0,1.3467524996958673,374.338522200007,376.0839423998259,,,,,,,,,128,f,1,2022-12-12_13h42.39.440,RL,2022.2.4,60.09842918720978,
1,30,0,30,0,,,,,,,,,,None,376.0839423998259,376.0839423998259,376.0839423998259,376.0839423998259,376.0839423998259,376.0839423998259,r,0.3235232997685671,376.43506649974734,376.43506649974734,376.43506649974734,376.43506649974734,376.43506649974734,376.43506649974734,376.73273009993136,376.73273009993136,378.727026599925,378.727026599925,378.727026599925,378.727026599925,378.727026599925,378.727026599925,378.727026599925,378.727026599925,378.727026599925,378.727026599925,378.727026599925,378.727026599925,378.727026599925,378.727026599925,378.727026599925,378.727026599925,378.727026599925,381.236027199775,381.236027199775,381.236027199775,381.236027199775,381.236027199775,54,41,54,43,54,61,3.0,0.6801228001713753,381.93439689977095,383.44754000008106,,,,,,,,,128,f,1,2022-12-12_13h42.39.440,RL,2022.2.4,60.09842918720978,
1,31,0,31,0,,,,,,,,,,None,383.44754000008106,383.44754000008106,383.44754000008106,383.44754000008106,383.44754000008106,383.44754000008106,r,0.3750261999666691,383.84865569975227,383.84865569975227,383.84865569975227,383.84865569975227,383.84865569975227,383.84865569975227,384.1455072998069,384.1455072998069,385.3255775999278,385.3255775999278,385.3424303997308,385.3424303997308,385.3424303997308,385.3424303997308,385.3424303997308,385.3424303997308,385.3424303997308,385.3424303997308,385.3424303997308,385.3424303997308,385.3424303997308,385.3424303997308,385.3424303997308,385.3424303997308,385.3424303997308,387.85174759989604,387.85174759989604,387.85174759989604,387.85174759989604,387.85174759989604,54,27,68,42,54,57,3.0,0.43101130006834865,388.3005487998016,390.27889799978584,,,,,,,,,128,f,1,2022-12-12_13h42.39.440,RL,2022.2.4,60.09842918720978,
1,32,0,32,0,,,,,,,,,,None,390.27889799978584,390.27889799978584,390.27889799978584,390.27889799978584,390.27889799978584,390.27889799978584,j,0.973687999881804,391.2771048997529,391.2771048997529,391.2771048997529,391.2771048997529,391.2771048997529,391.2771048997529,391.5756635996513,391.5756635996513,392.4233043999411,392.4233043999411,392.4233043999411,392.4233043999411,392.4233043999411,392.4233043999411,392.4233043999411,392.4233043999411,392.4233043999411,392.4233043999411,392.4233043999411,392.4233043999411,392.4233043999411,392.4233043999411,392.4233043999411,392.4233043999411,392.4233043999411,394.9320529997349,394.9320529997349,394.9320529997349,394.9320529997349,394.9320529997349,50,33,65,51,51,41,5.0,0.5643273997120559,395.5135971000418,397.22659029997885,,,,,,,,,128,f,1,2022-12-12_13h42.39.440,RL,2022.2.4,60.09842918720978,
1,33,0,33,0,,,,,,,,,,None,397.22659029997885,397.22659029997885,397.22659029997885,397.22659029997885,397.22659029997885,397.22659029997885,f,0.4277357002720237,397.67764010000974,397.67764010000974,397.67764010000974,397.67764010000974,397.67764010000974,397.67764010000974,397.97448089998215,397.97448089998215,398.85578779969364,398.85578779969364,398.85578779969364,398.85578779969364,398.85578779969364,398.85578779969364,398.85578779969364,398.85578779969364,398.85578779969364,398.85578779969364,398.85578779969364,398.85578779969364,398.85578779969364,398.85578779969364,398.85578779969364,398.85578779969364,398.85578779969364,401.3646643999964,401.3646643999964,401.3646643999964,401.3646643999964,401.3646643999964,59,37,64,39,37,43,3.0,0.6640672003850341,402.0462070996873,403.5757204997353,,,,,,,,,128,f,1,2022-12-12_13h42.39.440,RL,2022.2.4,60.09842918720978,
1,34,0,34,0,,,,,,,,,,None,403.5757204997353,403.5757204997353,403.5757204997353,403.5757204997353,403.5757204997353,403.5757204997353,r,0.38551050005480647,403.9921808000654,403.9921808000654,403.9921808000654,403.9921808000654,403.9921808000654,403.9921808000654,404.290908199735,404.290908199735,405.9524749000557,405.9524749000557,405.9524749000557,405.9524749000557,405.9524749000557,405.9524749000557,405.9524749000557,405.9524749000557,405.9524749000557,405.9524749000557,405.9524749000557,405.9524749000557,405.9524749000557,405.9524749000557,405.9524749000557,405.9524749000557,405.9524749000557,408.4620542000048,408.4620542000048,408.4620542000048,408.4620542000048,408.4620542000048,51,39,61,46,51,60,3.0,0.44767719972878695,408.9275308996439,410.7560057998635,,,,,,,,,128,f,1,2022-12-12_13h42.39.440,RL,2022.2.4,60.09842918720978,
1,35,0,35,0,,,,,,,,,,None,410.7560057998635,410.7560057998635,410.7560057998635,410.7560057998635,410.7560057998635,410.7560057998635,j,1.1997429998591542,411.9866265999153,411.9866265999153,411.9866265999153,411.9866265999153,411.9866265999153,411.9866265999153,412.2860070997849,412.2860070997849,413.88110699970275,413.88110699970275,413.88110699970275,413.88110699970275,413.88110699970275,413.88110699970275,413.88110699970275,413.88110699970275,413.88110699970275,413.88110699970275,413.88110699970275,413.88110699970275,413.88110699970275,413.88110699970275,413.88110699970275,413.88110699970275,413.88110699970275,416.39044889993966,416.39044889993966,416.39044889993966,416.39044889993966,416.39044889993966,61,41,65,55,55,46,5.0,0.5646510999649763,416.97175829997286,418.7016155999154,,,,,,,,,128,f,1,2022-12-12_13h42.39.440,RL,2022.2.4,60.09842918720978,
1,36,0,36,0,,,,,,,,,,None,418.7016155999154,418.7016155999154,418.7016155999154,418.7016155999154,418.7016155999154,418.7016155999154,i,0.2891203002072871,419.01909080008045,419.01909080008045,419.01909080008045,419.01909080008045,419.01909080008045,419.01909080008045,419.31637819996104,419.31637819996104,421.04525259975344,421.04525259975344,421.04525259975344,421.04525259975344,421.04525259975344,421.04525259975344,421.04525259975344,421.04525259975344,421.04525259975344,421.04525259975344,421.04525259975344,421.04525259975344,421.04525259975344,421.04525259975344,421.04525259975344,421.04525259975344,421.04525259975344,423.5540883997455,423.5540883997455,423.5540883997455,423.5540883997455,423.5540883997455,65,40,53,50,53,70,2.0,0.8964172997511923,424.46850889967754,426.313406100031,,,,,,,,,128,f,1,2022-12-12_13h42.39.440,RL,2022.2.4,60.09842918720978,
1,37,0,37,0,,,,,,,,,,None,426.313406100031,426.313406100031,426.313406100031,426.313406100031,426.313406100031,426.313406100031,r,0.49079499999061227,426.8324644998647,426.8324644998647,426.8324644998647,426.8324644998647,426.8324644998647,426.8324644998647,427.12852740008384,427.12852740008384,428.29192119976506,428.29192119976506,428.3084962000139,428.3084962000139,428.3084962000139,428.3084962000139,428.3084962000139,428.3084962000139,428.3084962000139,428.3084962000139,428.3084962000139,428.3084962000139,428.3084962000139,428.3084962000139,428.3084962000139,428.3084962000139,428.3084962000139,430.81736580003053,430.81736580003053,430.81736580003053,430.81736580003053,430.81736580003053,66,41,53,54,66,50,6.0,1.0633642999455333,431.8979178997688,433.7435777997598,,,,,,,,,128,f,1,2022-12-12_13h42.39.440,RL,2022.2.4,60.09842918720978,
1,38,0,38,0,,,,,,,,,,None,433.7435777997598,433.7435777997598,433.7435777997598,433.7435777997598,433.7435777997598,433.7435777997598,r,0.300180499907583,434.0772682996467,434.0772682996467,434.0772682996467,434.0772682996467,434.0772682996467,434.0772682996467,434.37565439986065,434.37565439986065,436.2869775998406,436.2869775998406,436.2869775998406,436.2869775998406,436.2869775998406,436.2869775998406,436.2869775998406,436.2869775998406,436.2869775998406,436.2869775998406,436.2869775998406,436.2869775998406,436.2869775998406,436.2869775998406,436.2869775998406,436.2869775998406,436.2869775998406,438.79588910005987,438.79588910005987,438.79588910005987,438.79588910005987,438.79588910005987,63,40,45,51,63,47,6.0,0.33160379994660616,439.14509629970416,441.07326079998165,,,,,,,,,128,f,1,2022-12-12_13h42.39.440,RL,2022.2.4,60.09842918720978,
1,39,0,39,0,,,,,,,,,,None,441.07326079998165,441.07326079998165,441.07326079998165,441.07326079998165,441.07326079998165,441.07326079998165,r,0.31093959975987673,441.4084405996837,441.4084405996837,441.4084405996837,441.4084405996837,441.4084405996837,441.4084405996837,441.7052507000044,441.7052507000044,442.6363380998373,442.6363380998373,442.6363380998373,442.6363380998373,442.6363380998373,442.6363380998373,442.6363380998373,442.6363380998373,442.6363380998373,442.6363380998373,442.6363380998373,442.6363380998373,442.6363380998373,442.6363380998373,442.6363380998373,442.6363380998373,442.6363380998373,445.14525489974767,445.14525489974767,445.14525489974767,445.14525489974767,445.14525489974767,67,37,54,46,67,44,6.0,0.3648425000719726,445.52769539970905,447.0905446000397,,,,,,,,,128,f,1,2022-12-12_13h42.39.440,RL,2022.2.4,60.09842918720978,
1,40,0,40,0,,,,,,,,,,None,447.0905446000397,447.0905446000397,447.0905446000397,447.0905446000397,447.0905446000397,447.0905446000397,r,0.28069179970771074,447.3909081998281,447.3909081998281,447.3909081998281,447.3909081998281,447.3909081998281,447.3909081998281,447.6887982999906,447.6887982999906,448.70262190001085,448.70262190001085,448.70262190001085,448.70262190001085,448.70262190001085,448.70262190001085,448.70262190001085,448.70262190001085,448.70262190001085,448.70262190001085,448.70262190001085,448.70262190001085,448.70262190001085,448.70262190001085,448.70262190001085,448.70262190001085,448.70262190001085,451.2118599996902,451.2118599996902,451.2118599996902,451.2118599996902,451.2118599996902,54,35,48,40,54,41,6.0,0.365297700278461,451.5943612996489,453.5062703997828,,,,,,,,,128,f,1,2022-12-12_13h42.39.440,RL,2022.2.4,60.09842918720978,
1,41,0,41,0,,,,,,,,,,None,453.5062703997828,453.5062703997828,453.5062703997828,453.5062703997828,453.5062703997828,453.5062703997828,r,0.276399000082165,453.8070534998551,453.8070534998551,453.8070534998551,453.8070534998551,453.8070534998551,453.8070534998551,454.104765499942,454.104765499942,455.118499299977,455.118499299977,455.1353980000131,455.1353980000131,455.1353980000131,455.1353980000131,455.1353980000131,455.1353980000131,455.1353980000131,455.1353980000131,455.1353980000131,455.1353980000131,455.1353980000131,455.1353980000131,455.1353980000131,455.1353980000131,455.1353980000131,457.6442736000754,457.6442736000754,457.6442736000754,457.6442736000754,457.6442736000754,62,38,48,42,62,50,6.0,0.3639060999266803,458.0266738999635,459.8888351996429,,,,,,,,,128,f,1,2022-12-12_13h42.39.440,RL,2022.2.4,60.09842918720978,
1,42,0,42,0,,,,,,,,,,None,459.8888351996429,459.8888351996429,459.8888351996429,459.8888351996429,459.8888351996429,459.8888351996429,r,0.3206221000291407,460.239736400079,460.239736400079,460.239736400079,460.239736400079,460.239736400079,460.239736400079,460.5375083000399,460.5375083000399,462.3324059997685,462.3324059997685,462.3324059997685,462.3324059997685,462.3324059997685,462.3324059997685,462.3324059997685,462.3324059997685,462.3324059997685,462.3324059997685,462.3324059997685,462.3324059997685,462.3324059997685,462.3324059997685,462.3324059997685,462.3324059997685,462.3324059997685,464.84166849963367,464.84166849963367,464.84166849963367,464.84166849963367,464.84166849963367,57,41,52,43,57,58,4.0,1.128072100225836,465.98807720001787,467.78367429971695,,,,,,,,,128,f,1,2022-12-12_13h42.39.440,RL,2022.2.4,60.09842918720978,
1,43,0,43,0,,,,,,,,,,None,467.78367429971695,467.78367429971695,467.78367429971695,467.78367429971695,467.78367429971695,467.78367429971695,r,0.24014629982411861,468.0507216998376,468.0507216998376,468.0507216998376,468.0507216998376,468.0507216998376,468.0507216998376,468.3496786998585,468.3496786998585,469.9283750997856,469.9283750997856,469.9283750997856,469.9283750997856,469.9283750997856,469.9283750997856,469.9283750997856,469.9283750997856,469.9283750997856,469.9283750997856,469.9283750997856,469.9283750997856,469.9283750997856,469.9283750997856,469.9283750997856,469.9283750997856,469.9283750997856,472.4375913999975,472.4375913999975,472.4375913999975,472.4375913999975,472.4375913999975,57,32,54,32,57,61,4.0,1.062999099958688,473.51779319997877,475.2467776997946,,,,,,,,,128,f,1,2022-12-12_13h42.39.440,RL,2022.2.4,60.09842918720978,
1,44,0,44,0,,,,,,,,,,None,475.2467776997946,475.2467776997946,475.2467776997946,475.2467776997946,475.2467776997946,475.2467776997946,i,0.5212783999741077,475.799898899626,475.799898899626,475.799898899626,475.799898899626,475.799898899626,475.799898899626,476.09469499997795,476.09469499997795,477.9729430000298,477.9729430000298,477.9729430000298,477.9729430000298,477.9729430000298,477.9729430000298,477.9729430000298,477.9729430000298,477.9729430000298,477.9729430000298,477.9729430000298,477.9729430000298,477.9729430000298,477.9729430000298,477.9729430000298,477.9729430000298,477.9729430000298,480.4820105000399,480.4820105000399,480.4820105000399,480.4820105000399,480.4820105000399,66,39,52,41,52,60,3.0,1.2961387000977993,481.7947820997797,483.35791180003434,,,,,,,,,128,f,1,2022-12-12_13h42.39.440,RL,2022.2.4,60.09842918720978,
1,45,0,45,0,,,,,,,,,,None,483.35791180003434,483.35791180003434,483.35791180003434,483.35791180003434,483.35791180003434,483.35791180003434,j,0.34905359987169504,483.74332759995013,483.74332759995013,483.74332759995013,483.74332759995013,483.74332759995013,483.74332759995013,484.0397401000373,484.0397401000373,485.58540700003505,485.58540700003505,485.60238379985094,485.60238379985094,485.60238379985094,485.60238379985094,485.60238379985094,485.60238379985094,485.60238379985094,485.60238379985094,485.60238379985094,485.60238379985094,485.60238379985094,485.60238379985094,485.60238379985094,485.60238379985094,485.60238379985094,488.11133959982544,488.11133959982544,488.11133959982544,488.11133959982544,488.11133959982544,60,39,49,36,36,70,1.0,0.913101099897176,489.0417383997701,491.0037377998233,,,,,,,,,128,f,1,2022-12-12_13h42.39.440,RL,2022.2.4,60.09842918720978,
1,46,0,46,0,,,,,,,,,,None,491.0037377998233,491.0037377998233,491.0037377998233,491.0037377998233,491.0037377998233,491.0037377998233,r,0.2830774001777172,491.3218896999024,491.3218896999024,491.3218896999024,491.3218896999024,491.3218896999024,491.3218896999024,491.619523299858,491.619523299858,492.5995885999873,492.5995885999873,492.5995885999873,492.5995885999873,492.5995885999873,492.5995885999873,492.5995885999873,492.5995885999873,492.5995885999873,492.5995885999873,492.5995885999873,492.5995885999873,492.5995885999873,492.5995885999873,492.5995885999873,492.5995885999873,492.5995885999873,495.10929999966174,495.10929999966174,495.10929999966174,495.10929999966174,495.10929999966174,57,31,60,39,57,68,2.0,1.146559199783951,496.2721533998847,498.26773109985515,,,,,,,,,128,f,1,2022-12-12_13h42.39.440,RL,2022.2.4,60.09842918720978,
1,47,0,47,0,,,,,,,,,,None,498.26773109985515,498.26773109985515,498.26773109985515,498.26773109985515,498.26773109985515,498.26773109985515,f,0.2892890996299684,498.5852057999,498.5852057999,498.5852057999,498.5852057999,498.5852057999,498.5852057999,498.88261569989845,498.88261569989845,500.69418899994344,500.69418899994344,500.69418899994344,500.69418899994344,500.69418899994344,500.69418899994344,500.69418899994344,500.69418899994344,500.69418899994344,500.69418899994344,500.69418899994344,500.69418899994344,500.69418899994344,500.69418899994344,500.69418899994344,500.69418899994344,500.69418899994344,503.2034201999195,503.2034201999195,503.2034201999195,503.2034201999195,503.2034201999195,52,35,53,41,35,67,1.0,0.6976386997848749,503.9179996997118,505.564033200033,,,,,,,,,128,f,1,2022-12-12_13h42.39.440,RL,2022.2.4,60.09842918720978,
1,48,0,48,0,,,,,,,,,,None,505.564033200033,505.564033200033,505.564033200033,505.564033200033,505.564033200033,505.564033200033,i,0.40758190024644136,506.0008956999518,506.0008956999518,506.0008956999518,506.0008956999518,506.0008956999518,506.0008956999518,506.2961609996855,506.2961609996855,507.7585376999341,507.7585376999341,507.77524709980935,507.77524709980935,507.77524709980935,507.77524709980935,507.77524709980935,507.77524709980935,507.77524709980935,507.77524709980935,507.77524709980935,507.77524709980935,507.77524709980935,507.77524709980935,507.77524709980935,507.77524709980935,507.77524709980935,510.2839543996379,510.2839543996379,510.2839543996379,510.2839543996379,510.2839543996379,51,34,65,42,65,68,4.0,0.730980500113219,511.0318092997186,512.8279253998771,,,,,,,,,128,f,1,2022-12-12_13h42.39.440,RL,2022.2.4,60.09842918720978,
1,49,0,49,0,,,,,,,,,,None,512.8279253998771,512.8279253998771,512.8279253998771,512.8279253998771,512.8279253998771,512.8279253998771,r,0.3494728999212384,513.2110035996884,513.2110035996884,513.2110035996884,513.2110035996884,513.2110035996884,513.2110035996884,513.50953879999,513.50953879999,515.2045613997616,515.2045613997616,515.2045613997616,515.2045613997616,515.2045613997616,515.2045613997616,515.2045613997616,515.2045613997616,515.2045613997616,515.2045613997616,515.2045613997616,515.2045613997616,515.2045613997616,515.2045613997616,515.2045613997616,515.2045613997616,515.2045613997616,517.7137809996493,517.7137809996493,517.7137809996493,517.7137809996493,517.7137809996493,61,36,51,39,61,70,3.0,1.1114142001606524,518.8441476998851,520.739398600068,,,,,,,,,128,f,1,2022-12-12_13h42.39.440,RL,2022.2.4,60.09842918720978,
1,50,0,50,0,,,,,,,,,,None,520.739398600068,520.739398600068,520.739398600068,520.739398600068,520.739398600068,520.739398600068,j,0.29782099975273013,521.0569809996523,521.0569809996523,521.0569809996523,521.0569809996523,521.0569809996523,521.0569809996523,521.3545840997249,521.3545840997249,522.8007955998182,522.8007955998182,522.8007955998182,522.8007955998182,522.8007955998182,522.8007955998182,522.8007955998182,522.8007955998182,522.8007955998182,522.8007955998182,522.8007955998182,522.8007955998182,522.8007955998182,522.8007955998182,522.8007955998182,522.8007955998182,522.8007955998182,525.3095811000094,525.3095811000094,525.3095811000094,525.3095811000094,525.3095811000094,65,44,56,35,35,50,1.0,0.5958448001183569,525.9245988000184,527.4546281998046,,,,,,,,,128,f,1,2022-12-12_13h42.39.440,RL,2022.2.4,60.09842918720978,
1,51,0,51,0,,,,,,,,,,None,527.4546281998046,527.4546281998046,527.4546281998046,527.4546281998046,527.4546281998046,527.4546281998046,j,0.338932900223881,527.8207366997376,527.8207366997376,527.8207366997376,527.8207366997376,527.8207366997376,527.8207366997376,528.1199870998971,528.1199870998971,529.3328546998091,529.3328546998091,529.3328546998091,529.3328546998091,529.3328546998091,529.3328546998091,529.3328546998091,529.3328546998091,529.3328546998091,529.3328546998091,529.3328546998091,529.3328546998091,529.3328546998091,529.3328546998091,529.3328546998091,529.3328546998091,529.3328546998091,531.8419421999715,531.8419421999715,531.8419421999715,531.8419421999715,531.8419421999715,65,40,55,37,37,49,1.0,0.3642455996014178,532.2244770997204,533.7705334997736,,,,,,,,,128,f,1,2022-12-12_13h42.39.440,RL,2022.2.4,60.09842918720978,
1,52,0,52,0,,,,,,,,,,None,533.7705334997736,533.7705334997736,533.7705334997736,533.7705334997736,533.7705334997736,533.7705334997736,f,0.3643245999701321,534.1535461996682,534.1535461996682,534.1535461996682,534.1535461996682,534.1535461996682,534.1535461996682,534.4522786997259,534.4522786997259,536.3138057999313,536.3138057999313,536.3138057999313,536.3138057999313,536.3138057999313,536.3138057999313,536.3138057999313,536.3138057999313,536.3138057999313,536.3138057999313,536.3138057999313,536.3138057999313,536.3138057999313,536.3138057999313,536.3138057999313,536.3138057999313,536.3138057999313,538.8228426999412,538.8228426999412,538.8228426999412,538.8228426999412,538.8228426999412,57,37,59,30,37,73,1.0,0.7131953001953661,539.554409599863,541.1502986000851,,,,,,,,,128,f,1,2022-12-12_13h42.39.440,RL,2022.2.4,60.09842918720978,
1,53,0,53,0,,,,,,,,,,None,541.1502986000851,541.1502986000851,541.1502986000851,541.1502986000851,541.1502986000851,541.1502986000851,r,0.3485088003799319,541.517972599715,541.517972599715,541.517972599715,541.517972599715,541.517972599715,541.517972599715,541.8154501998797,541.8154501998797,542.8294464997016,542.8294464997016,542.8294464997016,542.8294464997016,542.8294464997016,542.8294464997016,542.8294464997016,542.8294464997016,542.8294464997016,542.8294464997016,542.8294464997016,542.8294464997016,542.8294464997016,542.8294464997016,542.8294464997016,542.8294464997016,542.8294464997016,545.3381769997068,545.3381769997068,545.3381769997068,545.3381769997068,545.3381769997068,70,40,62,39,70,70,4.0,0.7976522999815643,546.1526008998044,547.881939899642,,,,,,,,,128,f,1,2022-12-12_13h42.39.440,RL,2022.2.4,60.09842918720978,
1,54,0,54,0,,,,,,,,,,None,547.881939899642,547.881939899642,547.881939899642,547.881939899642,547.881939899642,547.881939899642,r,0.31809299997985363,548.231809400022,548.231809400022,548.231809400022,548.231809400022,548.231809400022,548.231809400022,548.5303730997257,548.5303730997257,550.4915457000025,550.4915457000025,550.4915457000025,550.4915457000025,550.4915457000025,550.4915457000025,550.4915457000025,550.4915457000025,550.4915457000025,550.4915457000025,550.4915457000025,550.4915457000025,550.4915457000025,550.4915457000025,550.4915457000025,550.4915457000025,550.4915457000025,553.0013732998632,553.0013732998632,553.0013732998632,553.0013732998632,553.0013732998632,60,45,61,24,60,74,3.0,0.5815356001257896,553.5993697997183,555.1787323998287,,,,,,,,,128,f,1,2022-12-12_13h42.39.440,RL,2022.2.4,60.09842918720978,
1,55,0,55,0,,,,,,,,,,None,555.1787323998287,555.1787323998287,555.1787323998287,555.1787323998287,555.1787323998287,555.1787323998287,r,0.3158237999305129,555.5286641996354,555.5286641996354,555.5286641996354,555.5286641996354,555.5286641996354,555.5286641996354,555.8274054997601,555.8274054997601,556.9076755996794,556.9076755996794,556.9076755996794,556.9076755996794,556.9076755996794,556.9076755996794,556.9076755996794,556.9076755996794,556.9076755996794,556.9076755996794,556.9076755996794,556.9076755996794,556.9076755996794,556.9076755996794,556.9076755996794,556.9076755996794,556.9076755996794,559.4169136998244,559.4169136998244,559.4169136998244,559.4169136998244,559.4169136998244,64,31,50,34,64,72,4.0,0.514115400146693,559.9487522998825,561.6612257999368,,,,,,,,,128,f,1,2022-12-12_13h42.39.440,RL,2022.2.4,60.09842918720978,
1,56,0,56,0,,,,,,,,,,None,561.6612257999368,561.6612257999368,561.6612257999368,561.6612257999368,561.6612257999368,561.6612257999368,i,0.3499564998783171,562.0452612997033,562.0452612997033,562.0452612997033,562.0452612997033,562.0452612997033,562.0452612997033,562.3427986996248,562.3427986996248,563.5395403997973,563.5395403997973,563.5395403997973,563.5395403997973,563.5395403997973,563.5395403997973,563.5395403997973,563.5395403997973,563.5395403997973,563.5395403997973,563.5395403997973,563.5395403997973,563.5395403997973,563.5395403997973,563.5395403997973,563.5395403997973,563.5395403997973,566.0487413997762,566.0487413997762,566.0487413997762,566.0487413997762,566.0487413997762,64,37,49,31,49,87,1.0,0.9787771999835968,567.0457961000502,568.6917364997789,,,,,,,,,128,f,1,2022-12-12_13h42.39.440,RL,2022.2.4,60.09842918720978,
1,57,0,57,0,,,,,,,,,,None,568.6917364997789,568.6917364997789,568.6917364997789,568.6917364997789,568.6917364997789,568.6917364997789,j,0.28508790023624897,569.0128885000013,569.0128885000013,569.0128885000013,569.0128885000013,569.0128885000013,569.0128885000013,569.3072031997144,569.3072031997144,571.052460399922,571.052460399922,571.052460399922,571.052460399922,571.052460399922,571.052460399922,571.052460399922,571.052460399922,571.052460399922,571.052460399922,571.052460399922,571.052460399922,571.052460399922,571.052460399922,571.052460399922,571.052460399922,571.052460399922,573.5618329998106,573.5618329998106,573.5618329998106,573.5618329998106,573.5618329998106,65,38,51,25,25,83,1.0,1.179360999725759,574.7583782998845,576.487524099648,,,,,,,,,128,f,1,2022-12-12_13h42.39.440,RL,2022.2.4,60.09842918720978,
1,58,0,58,0,,,,,,,,,,None,576.487524099648,576.487524099648,576.487524099648,576.487524099648,576.487524099648,576.487524099648,f,0.3890728000551462,576.9047143999487,576.9047143999487,576.9047143999487,576.9047143999487,576.9047143999487,576.9047143999487,577.2023391998373,577.2023391998373,578.914168999996,578.914168999996,578.914168999996,578.914168999996,578.914168999996,578.914168999996,578.914168999996,578.914168999996,578.914168999996,578.914168999996,578.914168999996,578.914168999996,578.914168999996,578.914168999996,578.914168999996,578.914168999996,578.914168999996,581.4232780998573,581.4232780998573,581.4232780998573,581.4232780998573,581.4232780998573,57,31,41,30,31,72,1.0,0.6296518999151886,582.0715206000023,583.867342100013,,,,,,,,,128,f,1,2022-12-12_13h42.39.440,RL,2022.2.4,60.09842918720978,
1,59,0,59,0,,,,,,,,,,None,583.867342100013,583.867342100013,583.867342100013,583.867342100013,583.867342100013,583.867342100013,r,0.3392694001086056,584.2341930000111,584.2341930000111,584.2341930000111,584.2341930000111,584.2341930000111,584.2341930000111,584.532370199915,584.532370199915,585.7622267999686,585.7622267999686,585.7622267999686,585.7622267999686,585.7622267999686,585.7622267999686,585.7622267999686,585.7622267999686,585.7622267999686,585.7622267999686,585.7622267999686,585.7622267999686,585.7622267999686,585.7622267999686,585.7622267999686,585.7622267999686,585.7622267999686,588.2716296999715,588.2716296999715,588.2716296999715,588.2716296999715,588.2716296999715,59,43,48,31,59,83,1.0,1.013297500088811,589.3020633999258,590.8978741997853,,,,,,,,,128,f,1,2022-12-12_13h42.39.440,RL,2022.2.4,60.09842918720978,
1,60,0,60,0,,,,,,,,,,None,590.8978741997853,590.8978741997853,590.8978741997853,590.8978741997853,590.8978741997853,590.8978741997853,j,1.1786313997581601,592.0967497997917,592.0967497997917,592.0967497997917,592.0967497997917,592.0967497997917,592.0967497997917,592.3942937999964,592.3942937999964,593.8570455000736,593.8570455000736,593.8570455000736,593.8570455000736,593.8570455000736,593.8570455000736,593.8570455000736,593.8570455000736,593.8570455000736,593.8570455000736,593.8570455000736,593.8570455000736,593.8570455000736,593.8570455000736,593.8570455000736,593.8570455000736,593.8570455000736,596.3662223997526,596.3662223997526,596.3662223997526,596.3662223997526,596.3662223997526,59,38,50,32,32,77,1.0,0.4479070999659598,596.8313976996578,598.4442278998904,,,,,,,,,128,f,1,2022-12-12_13h42.39.440,RL,2022.2.4,60.09842918720978,
1,61,0,61,0,,,,,,,,,,None,598.4442278998904,598.4442278998904,598.4442278998904,598.4442278998904,598.4442278998904,598.4442278998904,i,0.38785549998283386,598.8601205996238,598.8601205996238,598.8601205996238,598.8601205996238,598.8601205996238,598.8601205996238,599.159528600052,599.159528600052,600.5056157996878,600.5056157996878,600.5056157996878,600.5056157996878,600.5056157996878,600.5056157996878,600.5056157996878,600.5056157996878,600.5056157996878,600.5056157996878,600.5056157996878,600.5056157996878,600.5056157996878,600.5056157996878,600.5056157996878,600.5056157996878,600.5056157996878,603.0142393996939,603.0142393996939,603.0142393996939,603.0142393996939,603.0142393996939,61,43,52,43,52,52,2.0,2.0778907998465,605.1089639998972,606.6712573999539,,,,,,,,,128,f,1,2022-12-12_13h42.39.440,RL,2022.2.4,60.09842918720978,
1,62,0,62,0,,,,,,,,,,None,606.6712573999539,606.6712573999539,606.6712573999539,606.6712573999539,606.6712573999539,606.6712573999539,i,0.46891159983351827,607.1709352997132,607.1709352997132,607.1709352997132,607.1709352997132,607.1709352997132,607.1709352997132,607.469273599796,607.469273599796,608.3167610997334,608.3167610997334,608.3335444997065,608.3335444997065,608.3335444997065,608.3335444997065,608.3335444997065,608.3335444997065,608.3335444997065,608.3335444997065,608.3335444997065,608.3335444997065,608.3335444997065,608.3335444997065,608.3335444997065,608.3335444997065,608.3335444997065,610.8425966999494,610.8425966999494,610.8425966999494,610.8425966999494,610.8425966999494,58,36,60,43,60,78,2.0,0.3982139998115599,611.2580964998342,613.2199321999215,,,,,,,,,128,f,1,2022-12-12_13h42.39.440,RL,2022.2.4,60.09842918720978,
1,63,0,63,0,,,,,,,,,,None,613.2199321999215,613.2199321999215,613.2199321999215,613.2199321999215,613.2199321999215,613.2199321999215,f,0.5607968000695109,613.8023144998588,613.8023144998588,613.8023144998588,613.8023144998588,613.8023144998588,613.8023144998588,614.1012025997043,614.1012025997043,615.0151976998895,615.0151976998895,615.0151976998895,615.0151976998895,615.0151976998895,615.0151976998895,615.0151976998895,615.0151976998895,615.0151976998895,615.0151976998895,615.0151976998895,615.0151976998895,615.0151976998895,615.0151976998895,615.0151976998895,615.0151976998895,615.0151976998895,617.5244024996646,617.5244024996646,617.5244024996646,617.5244024996646,617.5244024996646,60,34,49,42,34,79,1.0,0.5812460002489388,618.122646200005,619.6357391998172,,,,,,,,,128,f,1,2022-12-12_13h42.39.440,RL,2022.2.4,60.09842918720978,
1,64,0,64,0,,,,,,,,,,None,619.6357391998172,619.6357391998172,619.6357391998172,619.6357391998172,619.6357391998172,619.6357391998172,r,0.2865706002339721,619.9521522000432,619.9521522000432,619.9521522000432,619.9521522000432,619.9521522000432,619.9521522000432,620.2510321997106,620.2510321997106,621.5307645997964,621.5307645997964,621.5307645997964,621.5307645997964,621.5307645997964,621.5307645997964,621.5307645997964,621.5307645997964,621.5307645997964,621.5307645997964,621.5307645997964,621.5307645997964,621.5307645997964,621.5307645997964,621.5307645997964,621.5307645997964,621.5307645997964,624.0399242998101,624.0399242998101,624.0399242998101,624.0399242998101,624.0399242998101,57,36,43,36,57,73,2.0,0.4315590998157859,624.48861079989,626.0349530996755,,,,,,,,,128,f,1,2022-12-12_13h42.39.440,RL,2022.2.4,60.09842918720978,
1,65,0,65,0,,,,,,,,,,None,626.0349530996755,626.0349530996755,626.0349530996755,626.0349530996755,626.0349530996755,626.0349530996755,i,0.33311810018494725,626.4012074996717,626.4012074996717,626.4012074996717,626.4012074996717,626.4012074996717,626.4012074996717,626.7000996000133,626.7000996000133,627.7471541999839,627.7471541999839,627.7471541999839,627.7471541999839,627.7471541999839,627.7471541999839,627.7471541999839,627.7471541999839,627.7471541999839,627.7471541999839,627.7471541999839,627.7471541999839,627.7471541999839,627.7471541999839,627.7471541999839,627.7471541999839,627.7471541999839,630.2563235997222,630.2563235997222,630.2563235997222,630.2563235997222,630.2563235997222,52,36,46,36,46,59,2.0,0.43122100038453937,630.7049850998446,632.450800599996,,,,,,,,,128,f,1,2022-12-12_13h42.39.440,RL,2022.2.4,60.09842918720978,
1,66,0,66,0,,,,,,,,,,None,632.450800599996,632.450800599996,632.450800599996,632.450800599996,632.450800599996,632.450800599996,r,0.8979798997752368,633.3822115999646,633.3822115999646,633.3822115999646,633.3822115999646,633.3822115999646,633.3822115999646,633.6811110996641,633.6811110996641,635.2101292996667,635.2101292996667,635.2101292996667,635.2101292996667,635.2101292996667,635.2101292996667,635.2101292996667,635.2101292996667,635.2101292996667,635.2101292996667,635.2101292996667,635.2101292996667,635.2101292996667,635.2101292996667,635.2101292996667,635.2101292996667,635.2101292996667,637.71929119993,637.71929119993,637.71929119993,637.71929119993,637.71929119993,63,39,49,29,63,64,3.0,0.4492232999764383,638.1846441999078,640.113235599827,,,,,,,,,128,f,1,2022-12-12_13h42.39.440,RL,2022.2.4,60.09842918720978,
1,67,0,67,0,,,,,,,,,,None,640.113235599827,640.113235599827,640.113235599827,640.113235599827,640.113235599827,640.113235599827,j,0.44067650008946657,640.5792972999625,640.5792972999625,640.5792972999625,640.5792972999625,640.5792972999625,640.5792972999625,640.8781705996953,640.8781705996953,642.4238533996977,642.4238533996977,642.4238533996977,642.4238533996977,642.4238533996977,642.4238533996977,642.4238533996977,642.4238533996977,642.4238533996977,642.4238533996977,642.4238533996977,642.4238533996977,642.4238533996977,642.4238533996977,642.4238533996977,642.4238533996977,642.4238533996977,644.932902299799,644.932902299799,644.932902299799,644.932902299799,644.932902299799,51,37,49,35,35,63,1.0,0.7307656998746097,645.6807556999847,647.6095373998396,,,,,,,,,128,f,1,2022-12-12_13h42.39.440,RL,2022.2.4,60.09842918720978,
1,68,0,68,0,,,,,,,,,,None,647.6095373998396,647.6095373998396,647.6095373998396,647.6095373998396,647.6095373998396,647.6095373998396,r,0.2892905003391206,647.9259232999757,647.9259232999757,647.9259232999757,647.9259232999757,647.9259232999757,647.9259232999757,648.2248344998807,648.2248344998807,649.5711030997336,649.5711030997336,649.5711030997336,649.5711030997336,649.5711030997336,649.5711030997336,649.5711030997336,649.5711030997336,649.5711030997336,649.5711030997336,649.5711030997336,649.5711030997336,649.5711030997336,649.5711030997336,649.5711030997336,649.5711030997336,649.5711030997336,652.08009629976,652.08009629976,652.08009629976,652.08009629976,652.08009629976,55,37,42,32,55,66,4.0,0.6475629000924528,652.7449035998434,654.6073269997723,,,,,,,,,128,f,1,2022-12-12_13h42.39.440,RL,2022.2.4,60.09842918720978,
1,69,0,69,0,,,,,,,,,,None,654.6073269997723,654.6073269997723,654.6073269997723,654.6073269997723,654.6073269997723,654.6073269997723,r,0.3020154000259936,654.9400780997239,654.9400780997239,654.9400780997239,654.9400780997239,654.9400780997239,654.9400780997239,655.2394248996861,655.2394248996861,656.7017480996437,656.7017480996437,656.7017480996437,656.7017480996437,656.7017480996437,656.7017480996437,656.7017480996437,656.7017480996437,656.7017480996437,656.7017480996437,656.7017480996437,656.7017480996437,656.7017480996437,656.7017480996437,656.7017480996437,656.7017480996437,656.7017480996437,659.2112924996763,659.2112924996763,659.2112924996763,659.2112924996763,659.2112924996763,44,34,47,27,44,76,3.0,0.6137133003212512,659.8428257000633,661.83808710007,,,,,,,,,128,f,1,2022-12-12_13h42.39.440,RL,2022.2.4,60.09842918720978,
1,70,0,70,0,,,,,,,,,,None,661.83808710007,661.83808710007,661.83808710007,661.83808710007,661.83808710007,661.83808710007,r,0.7971435999497771,662.6537555996329,662.6537555996329,662.6537555996329,662.6537555996329,662.6537555996329,662.6537555996329,662.9518196000718,662.9518196000718,664.0981526998803,664.0981526998803,664.0981526998803,664.0981526998803,664.0981526998803,664.0981526998803,664.0981526998803,664.0981526998803,664.0981526998803,664.0981526998803,664.0981526998803,664.0981526998803,664.0981526998803,664.0981526998803,664.0981526998803,664.0981526998803,664.0981526998803,666.6078057996929,666.6078057996929,666.6078057996929,666.6078057996929,666.6078057996929,50,46,52,23,50,55,1.0,0.6304830000735819,667.255827399902,669.0679760999046,,,,,,,,,128,f,1,2022-12-12_13h42.39.440,RL,2022.2.4,60.09842918720978,
1,71,0,71,0,,,,,,,,,,None,669.0679760999046,669.0679760999046,669.0679760999046,669.0679760999046,669.0679760999046,669.0679760999046,r,0.33175079990178347,669.4181610997766,669.4181610997766,669.4181610997766,669.4181610997766,669.4181610997766,669.4181610997766,669.7164277997799,669.7164277997799,671.5120450998656,671.5120450998656,671.5120450998656,671.5120450998656,671.5120450998656,671.5120450998656,671.5120450998656,671.5120450998656,671.5120450998656,671.5120450998656,671.5120450998656,671.5120450998656,671.5120450998656,671.5120450998656,671.5120450998656,671.5120450998656,671.5120450998656,674.0207775998861,674.0207775998861,674.0207775998861,674.0207775998861,674.0207775998861,39,40,54,32,39,69,2.0,1.1477789003401995,675.1843776996247,677.1131233000197,,,,,,,,,128,f,1,2022-12-12_13h42.39.440,RL,2022.2.4,60.09842918720978,
1,72,0,72,0,,,,,,,,,,None,677.1131233000197,677.1131233000197,677.1131233000197,677.1131233000197,677.1131233000197,677.1131233000197,f,0.37064089998602867,677.5141225000843,677.5141225000843,677.5141225000843,677.5141225000843,677.5141225000843,677.5141225000843,677.8111203000881,677.8111203000881,679.0576542997733,679.0576542997733,679.0576542997733,679.0576542997733,679.0576542997733,679.0576542997733,679.0576542997733,679.0576542997733,679.0576542997733,679.0576542997733,679.0576542997733,679.0576542997733,679.0576542997733,679.0576542997733,679.0576542997733,679.0576542997733,679.0576542997733,681.5667964997701,681.5667964997701,681.5667964997701,681.5667964997701,681.5667964997701,50,44,51,28,44,49,4.0,0.5633057998493314,682.1488818000071,684.0277002998628,,,,,,,,,128,f,1,2022-12-12_13h42.39.440,RL,2022.2.4,60.09842918720978,
1,73,0,73,0,,,,,,,,,,None,684.0277002998628,684.0277002998628,684.0277002998628,684.0277002998628,684.0277002998628,684.0277002998628,j,0.32186749996617436,684.3767691999674,684.3767691999674,684.3767691999674,684.3767691999674,684.3767691999674,684.3767691999674,684.6758649996482,684.6758649996482,686.3046301999129,686.3046301999129,686.3046301999129,686.3046301999129,686.3046301999129,686.3046301999129,686.3046301999129,686.3046301999129,686.3046301999129,686.3046301999129,686.3046301999129,686.3046301999129,686.3046301999129,686.3046301999129,686.3046301999129,686.3046301999129,686.3046301999129,688.8138796999119,688.8138796999119,688.8138796999119,688.8138796999119,688.8138796999119,50,50,58,16,16,75,2.0,1.5450988998636603,690.3760011997074,692.3546507996507,,,,,,,,,128,f,1,2022-12-12_13h42.39.440,RL,2022.2.4,60.09842918720978,
1,74,0,74,0,,,,,,,,,,None,692.3546507996507,692.3546507996507,692.3546507996507,692.3546507996507,692.3546507996507,692.3546507996507,i,0.318017499987036,692.7045187000185,692.7045187000185,692.7045187000185,692.7045187000185,692.7045187000185,692.7045187000185,693.0032516997308,693.0032516997308,694.2163489996456,694.2163489996456,694.2163489996456,694.2163489996456,694.2163489996456,694.2163489996456,694.2163489996456,694.2163489996456,694.2163489996456,694.2163489996456,694.2163489996456,694.2163489996456,694.2163489996456,694.2163489996456,694.2163489996456,694.2163489996456,694.2163489996456,696.7258345000446,696.7258345000446,696.7258345000446,696.7258345000446,696.7258345000446,40,48,56,28,56,66,2.0,0.44701230013743043,697.1910137999803,698.9864131999202,,,,,,,,,128,f,1,2022-12-12_13h42.39.440,RL,2022.2.4,60.09842918720978,
1,75,0,75,0,,,,,,,,,,q,756.2633521999232,756.2633521999232,756.2633521999232,756.2633521999232,756.2633521999232,756.2633521999232,f,0.6545772003009915,756.9491714998148,756.9491714998148,756.9491714998148,756.9491714998148,756.9491714998148,756.9491714998148,757.2442983998917,757.2442983998917,759.0725671998225,759.0725671998225,759.0725671998225,759.0725671998225,759.0725671998225,759.0725671998225,759.0725671998225,759.0725671998225,759.0725671998225,759.0725671998225,759.0725671998225,759.0725671998225,759.0725671998225,759.0725671998225,759.0725671998225,759.0725671998225,759.0725671998225,761.5817877999507,761.5817877999507,761.5817877999507,761.5817877999507,761.5817877999507,47,41,54,23,41,76,2.0,1.345402400009334,762.9447967000306,764.4915101998486,698.9864131999202,698.9864131999202,57.25696610007435,,,,,,128,f,1,2022-12-12_13h42.39.440,RL,2022.2.4,60.09842918720978,
1,76,0,76,0,,,,,,,,,,None,764.4915101998486,764.4915101998486,764.4915101998486,764.4915101998486,764.4915101998486,764.4915101998486,r,0.5896046003326774,765.1106920000166,765.1106920000166,765.1106920000166,765.1106920000166,765.1106920000166,765.1106920000166,765.4055821998045,765.4055821998045,766.8184348996729,766.8184348996729,766.8184348996729,766.8184348996729,766.8184348996729,766.8184348996729,766.8184348996729,766.8184348996729,766.8184348996729,766.8184348996729,766.8184348996729,766.8184348996729,766.8184348996729,766.8184348996729,766.8184348996729,766.8184348996729,766.8184348996729,769.3273322000168,769.3273322000168,769.3273322000168,769.3273322000168,769.3273322000168,51,53,52,25,51,64,2.0,0.39789129979908466,769.7427177000791,771.7382396999747,,,,,,,,,128,f,1,2022-12-12_13h42.39.440,RL,2022.2.4,60.09842918720978,
1,77,0,77,0,,,,,,,,,,None,771.7382396999747,771.7382396999747,771.7382396999747,771.7382396999747,771.7382396999747,771.7382396999747,i,0.3636734001338482,772.1209320998751,772.1209320998751,772.1209320998751,772.1209320998751,772.1209320998751,772.1209320998751,772.4201680999249,772.4201680999249,773.7824995997362,773.7824995997362,773.7824995997362,773.7824995997362,773.7824995997362,773.7824995997362,773.7824995997362,773.7824995997362,773.7824995997362,773.7824995997362,773.7824995997362,773.7824995997362,773.7824995997362,773.7824995997362,773.7824995997362,773.7824995997362,773.7824995997362,776.2917885999195,776.2917885999195,776.2917885999195,776.2917885999195,776.2917885999195,57,46,56,20,56,53,4.0,0.37948969984427094,776.6903697997332,778.3537408998236,,,,,,,,,128,f,1,2022-12-12_13h42.39.440,RL,2022.2.4,60.09842918720978,
1,78,0,78,0,,,,,,,,,,None,778.3537408998236,778.3537408998236,778.3537408998236,778.3537408998236,778.3537408998236,778.3537408998236,j,0.31912369979545474,778.7035024999641,778.7035024999641,778.7035024999641,778.7035024999641,778.7035024999641,778.7035024999641,779.0017707999796,779.0017707999796,780.3150225998834,780.3150225998834,780.3150225998834,780.3150225998834,780.3150225998834,780.3150225998834,780.3150225998834,780.3150225998834,780.3150225998834,780.3150225998834,780.3150225998834,780.3150225998834,780.3150225998834,780.3150225998834,780.3150225998834,780.3150225998834,780.3150225998834,782.8238522997126,782.8238522997126,782.8238522997126,782.8238522997126,782.8238522997126,46,50,52,29,29,66,1.0,0.49672089982777834,783.3389888000675,785.3011583997868,,,,,,,,,128,f,1,2022-12-12_13h42.39.440,RL,2022.2.4,60.09842918720978,
1,79,0,79,0,,,,,,,,,,None,785.3011583997868,785.3011583997868,785.3011583997868,785.3011583997868,785.3011583997868,785.3011583997868,i,0.30752010038122535,785.6351191997528,785.6351191997528,785.6351191997528,785.6351191997528,785.6351191997528,785.6351191997528,785.9331747996621,785.9331747996621,787.6283260998316,787.6283260998316,787.6283260998316,787.6283260998316,787.6283260998316,787.6283260998316,787.6283260998316,787.6283260998316,787.6283260998316,787.6283260998316,787.6283260998316,787.6283260998316,787.6283260998316,787.6283260998316,787.6283260998316,787.6283260998316,787.6283260998316,790.1374496999197,790.1374496999197,790.1374496999197,790.1374496999197,790.1374496999197,48,48,62,33,62,68,4.0,0.4644090998917818,790.6191690000705,792.3151282998733,,,,,,,,,128,f,1,2022-12-12_13h42.39.440,RL,2022.2.4,60.09842918720978,
1,80,0,80,0,,,,,,,,,,None,792.3151282998733,792.3151282998733,792.3151282998733,792.3151282998733,792.3151282998733,792.3151282998733,i,0.309328599832952,792.6497420999222,792.6497420999222,792.6497420999222,792.6497420999222,792.6497420999222,792.6497420999222,792.9473461997695,792.9473461997695,793.877655999735,793.877655999735,793.877655999735,793.877655999735,793.877655999735,793.877655999735,793.877655999735,793.877655999735,793.877655999735,793.877655999735,793.877655999735,793.877655999735,793.877655999735,793.877655999735,793.877655999735,793.877655999735,793.877655999735,796.3871518997476,796.3871518997476,796.3871518997476,796.3871518997476,796.3871518997476,47,52,68,32,68,64,4.0,0.4140964997932315,796.8189651998691,798.6813345998526,,,,,,,,,128,f,1,2022-12-12_13h42.39.440,RL,2022.2.4,60.09842918720978,
1,81,0,81,0,,,,,,,,,,None,798.6813345998526,798.6813345998526,798.6813345998526,798.6813345998526,798.6813345998526,798.6813345998526,i,0.2746710004284978,798.9810881996527,798.9810881996527,798.9810881996527,798.9810881996527,798.9810881996527,798.9810881996527,799.2802074998617,799.2802074998617,800.6426659999415,800.6426659999415,800.6426659999415,800.6426659999415,800.6426659999415,800.6426659999415,800.6426659999415,800.6426659999415,800.6426659999415,800.6426659999415,800.6426659999415,800.6426659999415,800.6426659999415,800.6426659999415,800.6426659999415,800.6426659999415,800.6426659999415,803.1516184997745,803.1516184997745,803.1516184997745,803.1516184997745,803.1516184997745,47,55,64,41,64,62,4.0,0.41459110006690025,803.5840460998006,805.3957728999667,,,,,,,,,128,f,1,2022-12-12_13h42.39.440,RL,2022.2.4,60.09842918720978,
1,82,0,82,0,,,,,,,,,,None,805.3957728999667,805.3957728999667,805.3957728999667,805.3957728999667,805.3957728999667,805.3957728999667,i,0.2960603996179998,805.7122921999544,805.7122921999544,805.7122921999544,805.7122921999544,805.7122921999544,805.7122921999544,806.0111769000068,806.0111769000068,807.6568273999728,807.6568273999728,807.6568273999728,807.6568273999728,807.6568273999728,807.6568273999728,807.6568273999728,807.6568273999728,807.6568273999728,807.6568273999728,807.6568273999728,807.6568273999728,807.6568273999728,807.6568273999728,807.6568273999728,807.6568273999728,807.6568273999728,810.1661968999542,810.1661968999542,810.1661968999542,810.1661968999542,810.1661968999542,49,55,63,36,63,39,5.0,0.863011899869889,811.0470046000555,813.0090735000558,,,,,,,,,128,f,1,2022-12-12_13h42.39.440,RL,2022.2.4,60.09842918720978,
1,83,0,83,0,,,,,,,,,,None,813.0090735000558,813.0090735000558,813.0090735000558,813.0090735000558,813.0090735000558,813.0090735000558,i,0.25360869988799095,813.2944797999226,813.2944797999226,813.2944797999226,813.2944797999226,813.2944797999226,813.2944797999226,813.5906738997437,813.5906738997437,815.3693657997064,815.3693657997064,815.3693657997064,815.3693657997064,815.3693657997064,815.3693657997064,815.3693657997064,815.3693657997064,815.3693657997064,815.3693657997064,815.3693657997064,815.3693657997064,815.3693657997064,815.3693657997064,815.3693657997064,815.3693657997064,815.3693657997064,817.8781661996618,817.8781661996618,817.8781661996618,817.8781661996618,817.8781661996618,49,59,67,39,67,67,4.0,0.7640092000365257,818.6593411997892,820.3222292996943,,,,,,,,,128,f,1,2022-12-12_13h42.39.440,RL,2022.2.4,60.09842918720978,
1,84,0,84,0,,,,,,,,,,None,820.3222292996943,820.3222292996943,820.3222292996943,820.3222292996943,820.3222292996943,820.3222292996943,i,0.2707092999480665,820.6223442000337,820.6223442000337,820.6223442000337,820.6223442000337,820.6223442000337,820.6223442000337,820.9207641999237,820.9207641999237,821.8185812998563,821.8185812998563,821.8185812998563,821.8185812998563,821.8185812998563,821.8185812998563,821.8185812998563,821.8185812998563,821.8185812998563,821.8185812998563,821.8185812998563,821.8185812998563,821.8185812998563,821.8185812998563,821.8185812998563,821.8185812998563,821.8185812998563,824.32769249985,824.32769249985,824.32769249985,824.32769249985,824.32769249985,49,55,62,35,62,60,4.0,0.5309309996664524,824.8759436998516,826.4890335998498,,,,,,,,,128,f,1,2022-12-12_13h42.39.440,RL,2022.2.4,60.09842918720978,
1,85,0,85,0,,,,,,,,,,None,826.4890335998498,826.4890335998498,826.4890335998498,826.4890335998498,826.4890335998498,826.4890335998498,i,0.30550310015678406,826.8222946999595,826.8222946999595,826.8222946999595,826.8222946999595,826.8222946999595,826.8222946999595,827.1204593000002,827.1204593000002,828.7990680998191,828.7990680998191,828.7990680998191,828.7990680998191,828.7990680998191,828.7990680998191,828.7990680998191,828.7990680998191,828.7990680998191,828.7990680998191,828.7990680998191,828.7990680998191,828.7990680998191,828.7990680998191,828.7990680998191,828.7990680998191,828.7990680998191,831.3087734999135,831.3087734999135,831.3087734999135,831.3087734999135,831.3087734999135,48,62,64,40,64,79,3.0,0.6304359999485314,831.9568205997348,833.9348172000609,,,,,,,,,128,f,1,2022-12-12_13h42.39.440,RL,2022.2.4,60.09842918720978,
1,86,0,86,0,,,,,,,,,,None,833.9348172000609,833.9348172000609,833.9348172000609,833.9348172000609,833.9348172000609,833.9348172000609,r,0.35449529998004436,834.3180016996339,834.3180016996339,834.3180016996339,834.3180016996339,834.3180016996339,834.3180016996339,834.616756899748,834.616756899748,836.411652599927,836.411652599927,836.411652599927,836.411652599927,836.411652599927,836.411652599927,836.411652599927,836.411652599927,836.411652599927,836.411652599927,836.411652599927,836.411652599927,836.411652599927,836.411652599927,836.411652599927,836.411652599927,836.411652599927,838.9213409996592,838.9213409996592,838.9213409996592,838.9213409996592,838.9213409996592,53,60,59,42,53,63,3.0,0.3970347000285983,839.3363999999128,841.2815251997672,,,,,,,,,128,f,1,2022-12-12_13h42.39.440,RL,2022.2.4,60.09842918720978,
1,87,0,87,0,,,,,,,,,,None,841.2815251997672,841.2815251997672,841.2815251997672,841.2815251997672,841.2815251997672,841.2815251997672,f,0.8914553998038173,842.1962184999138,842.1962184999138,842.1962184999138,842.1962184999138,842.1962184999138,842.1962184999138,842.4953768998384,842.4953768998384,843.4924158998765,843.4924158998765,843.4924158998765,843.4924158998765,843.4924158998765,843.4924158998765,843.4924158998765,843.4924158998765,843.4924158998765,843.4924158998765,843.4924158998765,843.4924158998765,843.4924158998765,843.4924158998765,843.4924158998765,843.4924158998765,843.4924158998765,846.0018320996314,846.0018320996314,846.0018320996314,846.0018320996314,846.0018320996314,55,53,66,43,53,69,3.0,0.5306625999510288,846.5499737998471,848.279132399708,,,,,,,,,128,f,1,2022-12-12_13h42.39.440,RL,2022.2.4,60.09842918720978,
1,88,0,88,0,,,,,,,,,,None,848.279132399708,848.279132399708,848.279132399708,848.279132399708,848.279132399708,848.279132399708,i,0.38599379966035485,848.6958010997623,848.6958010997623,848.6958010997623,848.6958010997623,848.6958010997623,848.6958010997623,848.9940227000043,848.9940227000043,850.8894458999857,850.8894458999857,850.8894458999857,850.8894458999857,850.8894458999857,850.8894458999857,850.8894458999857,850.8894458999857,850.8894458999857,850.8894458999857,850.8894458999857,850.8894458999857,850.8894458999857,850.8894458999857,850.8894458999857,850.8894458999857,850.8894458999857,853.3979039997794,853.3979039997794,853.3979039997794,853.3979039997794,853.3979039997794,48,60,56,35,56,66,3.0,0.7137913000769913,854.1292917998508,856.0744766998105,,,,,,,,,128,f,1,2022-12-12_13h42.39.440,RL,2022.2.4,60.09842918720978,
1,89,0,89,0,,,,,,,,,,None,856.0744766998105,856.0744766998105,856.0744766998105,856.0744766998105,856.0744766998105,856.0744766998105,j,0.2762162000872195,856.3752329000272,856.3752329000272,856.3752329000272,856.3752329000272,856.3752329000272,856.3752329000272,856.673508499749,856.673508499749,857.9366164999083,857.9366164999083,857.9366164999083,857.9366164999083,857.9366164999083,857.9366164999083,857.9366164999083,857.9366164999083,857.9366164999083,857.9366164999083,857.9366164999083,857.9366164999083,857.9366164999083,857.9366164999083,857.9366164999083,857.9366164999083,857.9366164999083,860.4455896997824,860.4455896997824,860.4455896997824,860.4455896997824,860.4455896997824,58,58,51,43,43,60,3.0,0.43016690015792847,860.8942227000371,862.5738769997843,,,,,,,,,128,f,1,2022-12-12_13h42.39.440,RL,2022.2.4,60.09842918720978,
1,90,0,90,0,,,,,,,,,,None,862.5738769997843,862.5738769997843,862.5738769997843,862.5738769997843,862.5738769997843,862.5738769997843,r,0.2771142995916307,862.8749061999843,862.8749061999843,862.8749061999843,862.8749061999843,862.8749061999843,862.8749061999843,863.1721636997536,863.1721636997536,864.7513925000094,864.7513925000094,864.7513925000094,864.7513925000094,864.7513925000094,864.7513925000094,864.7513925000094,864.7513925000094,864.7513925000094,864.7513925000094,864.7513925000094,864.7513925000094,864.7513925000094,864.7513925000094,864.7513925000094,864.7513925000094,864.7513925000094,867.2602208000608,867.2602208000608,867.2602208000608,867.2602208000608,867.2602208000608,48,58,49,44,48,66,3.0,0.41535890009254217,867.6922792997211,869.5712763997726,,,,,,,,,128,f,1,2022-12-12_13h42.39.440,RL,2022.2.4,60.09842918720978,
1,91,0,91,0,,,,,,,,,,None,869.5712763997726,869.5712763997726,869.5712763997726,869.5712763997726,869.5712763997726,869.5712763997726,f,0.3954782001674175,869.9871005997993,869.9871005997993,869.9871005997993,869.9871005997993,869.9871005997993,869.9871005997993,870.2861509998329,870.2861509998329,871.7822179999202,871.7822179999202,871.7822179999202,871.7822179999202,871.7822179999202,871.7822179999202,871.7822179999202,871.7822179999202,871.7822179999202,871.7822179999202,871.7822179999202,871.7822179999202,871.7822179999202,871.7822179999202,871.7822179999202,871.7822179999202,871.7822179999202,874.2909172000363,874.2909172000363,874.2909172000363,874.2909172000363,874.2909172000363,44,52,49,50,52,69,3.0,0.5809326996095479,874.8892303998582,876.8345547998324,,,,,,,,,128,f,1,2022-12-12_13h42.39.440,RL,2022.2.4,60.09842918720978,
1,92,0,92,0,,,,,,,,,,None,876.8345547998324,876.8345547998324,876.8345547998324,876.8345547998324,876.8345547998324,876.8345547998324,i,0.32222899980843067,877.185989999678,877.185989999678,877.185989999678,877.185989999678,877.185989999678,877.185989999678,877.4832303998992,877.4832303998992,878.447164400015,878.447164400015,878.447164400015,878.447164400015,878.447164400015,878.447164400015,878.447164400015,878.447164400015,878.447164400015,878.447164400015,878.447164400015,878.447164400015,878.447164400015,878.447164400015,878.447164400015,878.447164400015,878.447164400015,880.9563135998324,880.9563135998324,880.9563135998324,880.9563135998324,880.9563135998324,56,54,51,55,51,62,3.0,0.4809743999503553,881.4545410000719,883.4333048998378,,,,,,,,,128,f,1,2022-12-12_13h42.39.440,RL,2022.2.4,60.09842918720978,
1,93,0,93,0,,,,,,,,,,None,883.4333048998378,883.4333048998378,883.4333048998378,883.4333048998378,883.4333048998378,883.4333048998378,j,0.2891951999627054,883.7509381999262,883.7509381999262,883.7509381999262,883.7509381999262,883.7509381999262,883.7509381999262,884.048824199941,884.048824199941,884.8961922996677,884.8961922996677,884.8961922996677,884.8961922996677,884.8961922996677,884.8961922996677,884.8961922996677,884.8961922996677,884.8961922996677,884.8961922996677,884.8961922996677,884.8961922996677,884.8961922996677,884.8961922996677,884.8961922996677,884.8961922996677,884.8961922996677,887.4055253998376,887.4055253998376,887.4055253998376,887.4055253998376,887.4055253998376,52,50,39,47,47,87,3.0,0.4484733999706805,887.8704785997979,889.467094199732,,,,,,,,,128,f,1,2022-12-12_13h42.39.440,RL,2022.2.4,60.09842918720978,
1,94,0,94,0,,,,,,,,,,None,889.467094199732,889.467094199732,889.467094199732,889.467094199732,889.467094199732,889.467094199732,r,0.4721850003115833,889.968704899773,889.968704899773,889.968704899773,889.968704899773,889.968704899773,889.968704899773,890.2650667997077,890.2650667997077,891.1124019999988,891.1124019999988,891.1295391996391,891.1295391996391,891.1295391996391,891.1295391996391,891.1295391996391,891.1295391996391,891.1295391996391,891.1295391996391,891.1295391996391,891.1295391996391,891.1295391996391,891.1295391996391,891.1295391996391,891.1295391996391,891.1295391996391,893.6387227000669,893.6387227000669,893.6387227000669,893.6387227000669,893.6387227000669,55,53,39,55,55,72,3.0,0.5155345997773111,894.1703264997341,896.0822544996627,,,,,,,,,128,f,1,2022-12-12_13h42.39.440,RL,2022.2.4,60.09842918720978,
1,95,0,95,0,,,,,,,,,,None,896.0822544996627,896.0822544996627,896.0822544996627,896.0822544996627,896.0822544996627,896.0822544996627,None,,,,,,,,,,,,,,,,,,,,,,,,,,,,,,,,47,43,43,47,0,**,None,None,902.1151443999261,904.076796699781,,,,897.6026897998527,902.1151443999261,,,,128,f,1,2022-12-12_13h42.39.440,RL,2022.2.4,60.09842918720978,
1,96,0,96,0,,,,,,,,,,None,904.076796699781,904.076796699781,904.076796699781,904.076796699781,904.076796699781,904.076796699781,j,0.40786750009283423,904.5108212996274,904.5108212996274,904.5108212996274,904.5108212996274,904.5108212996274,904.5108212996274,904.808488599956,904.808488599956,905.9223206997849,905.9223206997849,905.9223206997849,905.9223206997849,905.9223206997849,905.9223206997849,905.9223206997849,905.9223206997849,905.9223206997849,905.9223206997849,905.9223206997849,905.9223206997849,905.9223206997849,905.9223206997849,905.9223206997849,905.9223206997849,905.9223206997849,908.4314468000084,908.4314468000084,908.4314468000084,908.4314468000084,908.4314468000084,53,57,38,53,53,65,2.0,1.1459059999324381,909.5945472000167,911.3074713000096,,,,,,,,,128,f,1,2022-12-12_13h42.39.440,RL,2022.2.4,60.09842918720978,
1,97,0,97,0,,,,,,,,,,None,911.3074713000096,911.3074713000096,911.3074713000096,911.3074713000096,911.3074713000096,911.3074713000096,f,0.2774777002632618,911.6094034998678,911.6094034998678,911.6094034998678,911.6094034998678,911.6094034998678,911.6094034998678,911.9061300000176,911.9061300000176,913.8339569000527,913.8339569000527,913.8339569000527,913.8339569000527,913.8339569000527,913.8339569000527,913.8339569000527,913.8339569000527,913.8339569000527,913.8339569000527,913.8339569000527,913.8339569000527,913.8339569000527,913.8339569000527,913.8339569000527,913.8339569000527,913.8339569000527,916.3429568000138,916.3429568000138,916.3429568000138,916.3429568000138,916.3429568000138,56,49,36,40,49,59,2.0,0.6636865995824337,917.0246486999094,918.7535028997809,,,,,,,,,128,f,1,2022-12-12_13h42.39.440,RL,2022.2.4,60.09842918720978,
1,98,0,98,0,,,,,,,,,,None,918.7535028997809,918.7535028997809,918.7535028997809,918.7535028997809,918.7535028997809,918.7535028997809,r,0.2615653001703322,919.0390523998067,919.0390523998067,919.0390523998067,919.0390523998067,919.0390523998067,919.0390523998067,919.3358755996451,919.3358755996451,920.4322486999445,920.4322486999445,920.4322486999445,920.4322486999445,920.4322486999445,920.4322486999445,920.4322486999445,920.4322486999445,920.4322486999445,920.4322486999445,920.4322486999445,920.4322486999445,920.4322486999445,920.4322486999445,920.4322486999445,920.4322486999445,920.4322486999445,922.9417334999889,922.9417334999889,922.9417334999889,922.9417334999889,922.9417334999889,64,53,33,36,64,65,2.0,0.4478785004466772,923.4069375996478,925.0534517997876,,,,,,,,,128,f,1,2022-12-12_13h42.39.440,RL,2022.2.4,60.09842918720978,
1,99,0,99,0,,,,,,,,,,None,925.0534517997876,925.0534517997876,925.0534517997876,925.0534517997876,925.0534517997876,925.0534517997876,j,0.3478568000718951,925.4219987997785,925.4219987997785,925.4219987997785,925.4219987997785,925.4219987997785,925.4219987997785,925.7180802999064,925.7180802999064,927.5633164998144,927.5633164998144,927.5633164998144,927.5633164998144,927.5633164998144,927.5633164998144,927.5633164998144,927.5633164998144,927.5633164998144,927.5633164998144,927.5633164998144,927.5633164998144,927.5633164998144,927.5633164998144,927.5633164998144,927.5633164998144,927.5633164998144,930.0725920996629,930.0725920996629,930.0725920996629,930.0725920996629,930.0725920996629,46,40,30,40,40,69,2.0,0.3812232003547251,930.470998399891,932.2170983999968,,,,,,,,,128,f,1,2022-12-12_13h42.39.440,RL,2022.2.4,60.09842918720978,
1,100,0,100,0,,,,,,,,,,None,932.2170983999968,932.2170983999968,932.2170983999968,932.2170983999968,932.2170983999968,932.2170983999968,r,0.2544410000555217,932.5004692999646,932.5004692999646,932.5004692999646,932.5004692999646,932.5004692999646,932.5004692999646,932.7992968996987,932.7992968996987,934.7769049997441,934.7769049997441,934.7769049997441,934.7769049997441,934.7769049997441,934.7769049997441,934.7769049997441,934.7769049997441,934.7769049997441,934.7769049997441,934.7769049997441,934.7769049997441,934.7769049997441,934.7769049997441,934.7769049997441,934.7769049997441,934.7769049997441,937.2859792998061,937.2859792998061,937.2859792998061,937.2859792998061,937.2859792998061,46,47,25,49,46,77,2.0,1.2450518002733588,938.5488171000034,940.2116898996755,,,,,,,,,128,f,1,2022-12-12_13h42.39.440,RL,2022.2.4,60.09842918720978,
1,101,0,101,0,,,,,,,,,,None,940.2116898996755,940.2116898996755,940.2116898996755,940.2116898996755,940.2116898996755,940.2116898996755,i,0.3093789997510612,940.5467388997786,940.5467388997786,940.5467388997786,940.5467388997786,940.5467388997786,940.5467388997786,940.844014399685,940.844014399685,941.6582869999111,941.6582869999111,941.6582869999111,941.6582869999111,941.6582869999111,941.6582869999111,941.6582869999111,941.6582869999111,941.6582869999111,941.6582869999111,941.6582869999111,941.6582869999111,941.6582869999111,941.6582869999111,941.6582869999111,941.6582869999111,941.6582869999111,944.1669231997803,944.1669231997803,944.1669231997803,944.1669231997803,944.1669231997803,52,54,26,41,26,61,2.0,0.6309405998326838,944.8152570999227,946.6610928000882,,,,,,,,,128,f,1,2022-12-12_13h42.39.440,RL,2022.2.4,60.09842918720978,
1,102,0,102,0,,,,,,,,,,None,946.6610928000882,946.6610928000882,946.6610928000882,946.6610928000882,946.6610928000882,946.6610928000882,j,0.28704930003732443,946.9785712999292,946.9785712999292,946.9785712999292,946.9785712999292,946.9785712999292,946.9785712999292,947.275937399827,947.275937399827,948.9714982998557,948.9714982998557,948.9714982998557,948.9714982998557,948.9714982998557,948.9714982998557,948.9714982998557,948.9714982998557,948.9714982998557,948.9714982998557,948.9714982998557,948.9714982998557,948.9714982998557,948.9714982998557,948.9714982998557,948.9714982998557,948.9714982998557,951.4807666996494,951.4807666996494,951.4807666996494,951.4807666996494,951.4807666996494,44,52,29,44,44,74,1.0,0.5141452997922897,952.0123689998873,954.0073645999655,,,,,,,,,128,f,1,2022-12-12_13h42.39.440,RL,2022.2.4,60.09842918720978,
1,103,0,103,0,,,,,,,,,,None,954.0073645999655,954.0073645999655,954.0073645999655,954.0073645999655,954.0073645999655,954.0073645999655,r,0.21665719989687204,954.2571817999706,954.2571817999706,954.2571817999706,954.2571817999706,954.2571817999706,954.2571817999706,954.5564194996841,954.5564194996841,956.2018708996475,956.2018708996475,956.2018708996475,956.2018708996475,956.2018708996475,956.2018708996475,956.2018708996475,956.2018708996475,956.2018708996475,956.2018708996475,956.2018708996475,956.2018708996475,956.2018708996475,956.2018708996475,956.2018708996475,956.2018708996475,956.2018708996475,958.7109228000045,958.7109228000045,958.7109228000045,958.7109228000045,958.7109228000045,41,54,31,45,41,71,1.0,0.3645492000505328,959.0929197999649,960.7222380000167,,,,,,,,,128,f,1,2022-12-12_13h42.39.440,RL,2022.2.4,60.09842918720978,
1,104,0,104,0,,,,,,,,,,None,960.7222380000167,960.7222380000167,960.7222380000167,960.7222380000167,960.7222380000167,960.7222380000167,i,0.31677669985219836,961.0742675997317,961.0742675997317,961.0742675997317,961.0742675997317,961.0742675997317,961.0742675997317,961.3709418997169,961.3709418997169,962.8499487000518,962.8499487000518,962.8499487000518,962.8499487000518,962.8499487000518,962.8499487000518,962.8499487000518,962.8499487000518,962.8499487000518,962.8499487000518,962.8499487000518,962.8499487000518,962.8499487000518,962.8499487000518,962.8499487000518,962.8499487000518,962.8499487000518,965.3593242997304,965.3593242997304,965.3593242997304,965.3593242997304,965.3593242997304,48,45,38,40,38,64,1.0,0.39793739980086684,965.7746430998668,967.5536794997752,,,,,,,,,128,f,1,2022-12-12_13h42.39.440,RL,2022.2.4,60.09842918720978,
1,105,0,105,0,,,,,,,,,,None,967.5536794997752,967.5536794997752,967.5536794997752,967.5536794997752,967.5536794997752,967.5536794997752,j,0.3465044000186026,967.9213326997124,967.9213326997124,967.9213326997124,967.9213326997124,967.9213326997124,967.9213326997124,968.2193988999352,968.2193988999352,970.2133590998128,970.2133590998128,970.2133590998128,970.2133590998128,970.2133590998128,970.2133590998128,970.2133590998128,970.2133590998128,970.2133590998128,970.2133590998128,970.2133590998128,970.2133590998128,970.2133590998128,970.2133590998128,970.2133590998128,970.2133590998128,970.2133590998128,972.7228000997566,972.7228000997566,972.7228000997566,972.7228000997566,972.7228000997566,45,46,32,45,45,70,1.0,0.36475769989192486,973.1047270996496,974.9335587997921,,,,,,,,,128,f,1,2022-12-12_13h42.39.440,RL,2022.2.4,60.09842918720978,
1,106,0,106,0,,,,,,,,,,None,974.9335587997921,974.9335587997921,974.9335587997921,974.9335587997921,974.9335587997921,974.9335587997921,f,0.39694100013002753,975.3501491998322,975.3501491998322,975.3501491998322,975.3501491998322,975.3501491998322,975.3501491998322,975.6485635000281,975.6485635000281,977.1614723000675,977.1614723000675,977.1614723000675,977.1614723000675,977.1614723000675,977.1614723000675,977.1614723000675,977.1614723000675,977.1614723000675,977.1614723000675,977.1614723000675,977.1614723000675,977.1614723000675,977.1614723000675,977.1614723000675,977.1614723000675,977.1614723000675,979.6706385998987,979.6706385998987,979.6706385998987,979.6706385998987,979.6706385998987,47,53,38,35,53,74,1.0,0.41515300003811717,980.1025483999401,982.0477108997293,,,,,,,,,128,f,1,2022-12-12_13h42.39.440,RL,2022.2.4,60.09842918720978,
1,107,0,107,0,,,,,,,,,,None,982.0477108997293,982.0477108997293,982.0477108997293,982.0477108997293,982.0477108997293,982.0477108997293,f,0.2833043998107314,982.3644550996833,982.3644550996833,982.3644550996833,982.3644550996833,982.3644550996833,982.3644550996833,982.6628534998745,982.6628534998745,984.5740290996619,984.5740290996619,984.5740290996619,984.5740290996619,984.5740290996619,984.5740290996619,984.5740290996619,984.5740290996619,984.5740290996619,984.5740290996619,984.5740290996619,984.5740290996619,984.5740290996619,984.5740290996619,984.5740290996619,984.5740290996619,984.5740290996619,987.0832761996426,987.0832761996426,987.0832761996426,987.0832761996426,987.0832761996426,57,51,45,49,51,66,1.0,0.4640504000708461,987.5652814996429,989.3110551000573,,,,,,,,,128,f,1,2022-12-12_13h42.39.440,RL,2022.2.4,60.09842918720978,
1,108,0,108,0,,,,,,,,,,None,989.3110551000573,989.3110551000573,989.3110551000573,989.3110551000573,989.3110551000573,989.3110551000573,f,0.48981310008093715,989.8313027997501,989.8313027997501,989.8313027997501,989.8313027997501,989.8313027997501,989.8313027997501,990.1259630997665,990.1259630997665,991.0567491999827,991.0567491999827,991.0567491999827,991.0567491999827,991.0567491999827,991.0567491999827,991.0567491999827,991.0567491999827,991.0567491999827,991.0567491999827,991.0567491999827,991.0567491999827,991.0567491999827,991.0567491999827,991.0567491999827,991.0567491999827,991.0567491999827,993.5660585998558,993.5660585998558,993.5660585998558,993.5660585998558,993.5660585998558,55,52,47,50,52,45,1.0,0.381612999830395,993.9645982999355,995.8932073996402,,,,,,,,,128,f,1,2022-12-12_13h42.39.440,RL,2022.2.4,60.09842918720978,
1,109,0,109,0,,,,,,,,,,None,995.8932073996402,995.8932073996402,995.8932073996402,995.8932073996402,995.8932073996402,995.8932073996402,f,0.3152568000368774,996.2260155999102,996.2260155999102,996.2260155999102,996.2260155999102,996.2260155999102,996.2260155999102,996.5250808000565,996.5250808000565,997.4725283998996,997.4725283998996,997.4725283998996,997.4725283998996,997.4725283998996,997.4725283998996,997.4725283998996,997.4725283998996,997.4725283998996,997.4725283998996,997.4725283998996,997.4725283998996,997.4725283998996,997.4725283998996,997.4725283998996,997.4725283998996,997.4725283998996,999.9814320998266,999.9814320998266,999.9814320998266,999.9814320998266,999.9814320998266,50,60,43,46,60,71,2.0,0.431014200206846,1000.4300004998222,1002.3093707999215,,,,,,,,,128,f,1,2022-12-12_13h42.39.440,RL,2022.2.4,60.09842918720978,
1,110,0,110,0,,,,,,,,,,None,1002.3093707999215,1002.3093707999215,1002.3093707999215,1002.3093707999215,1002.3093707999215,1002.3093707999215,r,0.26475240010768175,1002.5942286998034,1002.5942286998034,1002.5942286998034,1002.5942286998034,1002.5942286998034,1002.5942286998034,1002.8913872996345,1002.8913872996345,1004.6194354998879,1004.6194354998879,1004.6194354998879,1004.6194354998879,1004.6194354998879,1004.6194354998879,1004.6194354998879,1004.6194354998879,1004.6194354998879,1004.6194354998879,1004.6194354998879,1004.6194354998879,1004.6194354998879,1004.6194354998879,1004.6194354998879,1004.6194354998879,1004.6194354998879,1007.128639599774,1007.128639599774,1007.128639599774,1007.128639599774,1007.128639599774,51,56,43,45,51,53,4.0,0.5636041997931898,1007.7103333999403,1009.3563135000877,,,,,,,,,128,f,1,2022-12-12_13h42.39.440,RL,2022.2.4,60.09842918720978,
1,111,0,111,0,,,,,,,,,,None,1009.3563135000877,1009.3563135000877,1009.3563135000877,1009.3563135000877,1009.3563135000877,1009.3563135000877,f,0.38813940016552806,1009.7743659000844,1009.7743659000844,1009.7743659000844,1009.7743659000844,1009.7743659000844,1009.7743659000844,1010.0715433997102,1010.0715433997102,1011.8498487998731,1011.8498487998731,1011.866456899792,1011.866456899792,1011.866456899792,1011.866456899792,1011.866456899792,1011.866456899792,1011.866456899792,1011.866456899792,1011.866456899792,1011.866456899792,1011.866456899792,1011.866456899792,1011.866456899792,1011.866456899792,1011.866456899792,1014.3754581999965,1014.3754581999965,1014.3754581999965,1014.3754581999965,1014.3754581999965,52,63,36,35,63,61,4.0,0.48200650000944734,1014.8739928998984,1016.4038875000551,,,,,,,,,128,f,1,2022-12-12_13h42.39.440,RL,2022.2.4,60.09842918720978,
1,112,0,112,0,,,,,,,,,,None,1016.4038875000551,1016.4038875000551,1016.4038875000551,1016.4038875000551,1016.4038875000551,1016.4038875000551,f,0.31634420016780496,1016.754532800056,1016.754532800056,1016.754532800056,1016.754532800056,1016.754532800056,1016.754532800056,1017.0522902999073,1017.0522902999073,1018.5316291996278,1018.5316291996278,1018.5316291996278,1018.5316291996278,1018.5316291996278,1018.5316291996278,1018.5316291996278,1018.5316291996278,1018.5316291996278,1018.5316291996278,1018.5316291996278,1018.5316291996278,1018.5316291996278,1018.5316291996278,1018.5316291996278,1018.5316291996278,1018.5316291996278,1021.0409405999817,1021.0409405999817,1021.0409405999817,1021.0409405999817,1021.0409405999817,48,63,52,36,63,67,4.0,0.13316599978134036,1021.1905326000415,1022.8192841000855,,,,,,,,,128,f,1,2022-12-12_13h42.39.440,RL,2022.2.4,60.09842918720978,
1,113,0,113,0,,,,,,,,,,None,1022.8192841000855,1022.8192841000855,1022.8192841000855,1022.8192841000855,1022.8192841000855,1022.8192841000855,r,0.5321797002106905,1023.385253299959,1023.385253299959,1023.385253299959,1023.385253299959,1023.385253299959,1023.385253299959,1023.6841454999521,1023.6841454999521,1024.6483421996236,1024.6483421996236,1024.6647317996249,1024.6647317996249,1024.6647317996249,1024.6647317996249,1024.6647317996249,1024.6647317996249,1024.6647317996249,1024.6647317996249,1024.6647317996249,1024.6647317996249,1024.6647317996249,1024.6647317996249,1024.6647317996249,1024.6647317996249,1024.6647317996249,1027.1737043000758,1027.1737043000758,1027.1737043000758,1027.1737043000758,1027.1737043000758,53,54,52,33,53,74,3.0,0.7965245000086725,1027.9888033000752,1029.9169707000256,,,,,,,,,128,f,1,2022-12-12_13h42.39.440,RL,2022.2.4,60.09842918720978,
1,114,0,114,0,,,,,,,,,,None,1029.9169707000256,1029.9169707000256,1029.9169707000256,1029.9169707000256,1029.9169707000256,1029.9169707000256,f,0.2754291999153793,1030.2179648997262,1030.2179648997262,1030.2179648997262,1030.2179648997262,1030.2179648997262,1030.2179648997262,1030.5158842997625,1030.5158842997625,1032.3773016999476,1032.3773016999476,1032.3773016999476,1032.3773016999476,1032.3773016999476,1032.3773016999476,1032.3773016999476,1032.3773016999476,1032.3773016999476,1032.3773016999476,1032.3773016999476,1032.3773016999476,1032.3773016999476,1032.3773016999476,1032.3773016999476,1032.3773016999476,1032.3773016999476,1034.8865682999603,1034.8865682999603,1034.8865682999603,1034.8865682999603,1034.8865682999603,57,53,44,26,53,57,4.0,0.73102270020172,1035.634452899918,1037.1638206997886,,,,,,,,,128,f,1,2022-12-12_13h42.39.440,RL,2022.2.4,60.09842918720978,
1,115,0,115,0,,,,,,,,,,None,1037.1638206997886,1037.1638206997886,1037.1638206997886,1037.1638206997886,1037.1638206997886,1037.1638206997886,r,0.34857740020379424,1037.531915199943,1037.531915199943,1037.531915199943,1037.531915199943,1037.531915199943,1037.531915199943,1037.829372299835,1037.829372299835,1039.1756127998233,1039.1756127998233,1039.1756127998233,1039.1756127998233,1039.1756127998233,1039.1756127998233,1039.1756127998233,1039.1756127998233,1039.1756127998233,1039.1756127998233,1039.1756127998233,1039.1756127998233,1039.1756127998233,1039.1756127998233,1039.1756127998233,1039.1756127998233,1039.1756127998233,1041.6842763000168,1041.6842763000168,1041.6842763000168,1041.6842763000168,1041.6842763000168,65,50,50,38,65,52,4.0,1.1792828002944589,1042.881311699748,1044.4110395000316,,,,,,,,,128,f,1,2022-12-12_13h42.39.440,RL,2022.2.4,60.09842918720978,
