bandit,trials.thisRepN,trials.thisTrialN,trials.thisN,trials.thisIndex,instru_img1.started,instru_resp.started,instru_resp.keys,instru_resp.rt,instru_img2.started,instru_resp2.started,instru_resp2.keys,instru_resp2.rt,fixbefore_2.started,rest_response.keys,red.started,green.started,yellow.started,blue.started,choose_bandit.started,Fixation.started,choose_bandit.keys,choose_bandit.rt,black.started,red_2.started,green_2.started,yellow_2.started,blue_2.started,fixation_2.started,docs.started,image_2.started,docs.stopped,image_2.stopped,black.stopped,red_2.stopped,green_2.stopped,yellow_2.stopped,blue_2.stopped,fixation_2.stopped,black_com.started,reward_sub.started,palyerb.started,reward__sub.started,compare.started,red_compare.started,green_com.started,yellow_com.started,blue_com.started,image_3.started,slider.started,text.started,image_4.started,image_5.started,rewardyellow,rewardred,rewardblue,rewardgreen,subchoose,playerb,slider.response,slider.rt,intertrialfix.started,intertrialfix.stopped,bigx.started,bigx.stopped,rest_image.started,rest_response.started,rest_response.rt,image.started,key_resp.started,key_resp.keys,participant,Gender,Age,date,expName,psychopyVersion,frameRate,
,,,,,1619.899364999961,1619.899364999961,space,20.586532599758357,,,,,,,,,,,,,,,,,,,,,,,,,,,,,,,,,,,,,,,,,,,,,,,,,,,,,,,,,,,,,,,129,f,1,2022-12-12_14h48.41.302,RL,2022.2.4,60.04538229599241,
,,,,,,,,,1640.5219585997984,1640.5219585997984,space,28.301208700053394,,,,,,,,,,,,,,,,,,,,,,,,,,,,,,,,,,,,,,,,,,,,,,,,,,,,,,,,,,,129,f,1,2022-12-12_14h48.41.302,RL,2022.2.4,60.04538229599241,
1,0,0,0,0,,,,,,,,,1668.838333999738,None,1669.855007499922,1669.855007499922,1669.855007499922,1669.855007499922,1669.855007499922,1669.855007499922,r,0.5213758000172675,1670.461089400109,1670.461089400109,1670.461089400109,1670.461089400109,1670.461089400109,1670.461089400109,1670.7008401998319,1670.7008401998319,1672.612112400122,1672.612112400122,1672.6668575997464,1672.6668575997464,1672.6668575997464,1672.6668575997464,1672.6668575997464,1672.6668575997464,1672.6668575997464,1672.6668575997464,1672.6668575997464,1672.6668575997464,1672.6668575997464,1672.6668575997464,1672.6668575997464,1672.6668575997464,1672.6668575997464,1675.171501299832,1675.171501299832,1675.171501299832,1675.171501299832,1675.171501299832,43,70,49,43,43,68,4.0,2.458546600304544,1677.6984850997105,1679.4764446998015,,,,,,,,,129,f,1,2022-12-12_14h48.41.302,RL,2022.2.4,60.04538229599241,
1,1,0,1,0,,,,,,,,,,None,1679.4764446998015,1679.4764446998015,1679.4764446998015,1679.4764446998015,1679.4764446998015,1679.4764446998015,i,1.000181700102985,1680.5097777000628,1680.5097777000628,1680.5097777000628,1680.5097777000628,1680.5097777000628,1680.5097777000628,1680.806735499762,1680.806735499762,1681.8367860997096,1681.8367860997096,1681.8536012000404,1681.8536012000404,1681.8536012000404,1681.8536012000404,1681.8536012000404,1681.8536012000404,1681.8536012000404,1681.8536012000404,1681.8536012000404,1681.8536012000404,1681.8536012000404,1681.8536012000404,1681.8536012000404,1681.8536012000404,1681.8536012000404,1684.3625384997576,1684.3625384997576,1684.3625384997576,1684.3625384997576,1684.3625384997576,48,80,45,41,45,44,4.0,2.990256800316274,1687.3710408001207,1689.166796399746,,,,,,,,,129,f,1,2022-12-12_14h48.41.302,RL,2022.2.4,60.04538229599241,
1,2,0,2,0,,,,,,,,,,None,1689.166796399746,1689.166796399746,1689.166796399746,1689.166796399746,1689.166796399746,1689.166796399746,f,0.7348025999963284,1689.9353036996908,1689.9353036996908,1689.9353036996908,1689.9353036996908,1689.9353036996908,1689.9353036996908,1690.2307874998078,1690.2307874998078,1691.8760436000302,1691.8760436000302,1691.8760436000302,1691.8760436000302,1691.8760436000302,1691.8760436000302,1691.8760436000302,1691.8760436000302,1691.8760436000302,1691.8760436000302,1691.8760436000302,1691.8760436000302,1691.8760436000302,1691.8760436000302,1691.8760436000302,1691.8760436000302,1691.8760436000302,1694.3853279999457,1694.3853279999457,1694.3853279999457,1694.3853279999457,1694.3853279999457,53,72,58,37,72,35,6.0,2.725013399962336,1697.12777859997,1699.0234388997778,,,,,,,,,129,f,1,2022-12-12_14h48.41.302,RL,2022.2.4,60.04538229599241,
1,3,0,3,0,,,,,,,,,,None,1699.0234388997778,1699.0234388997778,1699.0234388997778,1699.0234388997778,1699.0234388997778,1699.0234388997778,j,0.24816739978268743,1699.2915385998785,1699.2915385998785,1699.2915385998785,1699.2915385998785,1699.2915385998785,1699.2915385998785,1699.5887500997633,1699.5887500997633,1700.8183312998153,1700.8183312998153,1700.8349770000204,1700.8349770000204,1700.8349770000204,1700.8349770000204,1700.8349770000204,1700.8349770000204,1700.8349770000204,1700.8349770000204,1700.8349770000204,1700.8349770000204,1700.8349770000204,1700.8349770000204,1700.8349770000204,1700.8349770000204,1700.8349770000204,1703.3447020999156,1703.3447020999156,1703.3447020999156,1703.3447020999156,1703.3447020999156,40,77,42,30,30,47,4.0,2.0101832998916507,1705.371834000107,1707.350742300041,,,,,,,,,129,f,1,2022-12-12_14h48.41.302,RL,2022.2.4,60.04538229599241,
1,4,0,4,0,,,,,,,,,,None,1707.350742300041,1707.350742300041,1707.350742300041,1707.350742300041,1707.350742300041,1707.350742300041,f,0.5997776002623141,1707.9843705999665,1707.9843705999665,1707.9843705999665,1707.9843705999665,1707.9843705999665,1707.9843705999665,1708.2816828996874,1708.2816828996874,1709.2787929000333,1709.2787929000333,1709.2787929000333,1709.2787929000333,1709.2787929000333,1709.2787929000333,1709.2787929000333,1709.2787929000333,1709.2787929000333,1709.2787929000333,1709.2787929000333,1709.2787929000333,1709.2787929000333,1709.2787929000333,1709.2787929000333,1709.2787929000333,1709.2787929000333,1711.7879021000117,1711.7879021000117,1711.7879021000117,1711.7879021000117,1711.7879021000117,44,76,51,41,76,57,5.0,1.7782980999909341,1713.5827794000506,1715.4286527996883,,,,,,,,,129,f,1,2022-12-12_14h48.41.302,RL,2022.2.4,60.04538229599241,
1,5,0,5,0,,,,,,,,,,None,1715.4286527996883,1715.4286527996883,1715.4286527996883,1715.4286527996883,1715.4286527996883,1715.4286527996883,f,0.6828235001303256,1716.145333999768,1716.145333999768,1716.145333999768,1716.145333999768,1716.145333999768,1716.145333999768,1716.442507099826,1716.442507099826,1717.955064999871,1717.955064999871,1717.955064999871,1717.955064999871,1717.955064999871,1717.955064999871,1717.955064999871,1717.955064999871,1717.955064999871,1717.955064999871,1717.955064999871,1717.955064999871,1717.955064999871,1717.955064999871,1717.955064999871,1717.955064999871,1717.955064999871,1720.4643581998535,1720.4643581998535,1720.4643581998535,1720.4643581998535,1720.4643581998535,50,69,43,28,69,65,5.0,1.8939351998269558,1722.376129299868,1724.0721704000607,,,,,,,,,129,f,1,2022-12-12_14h48.41.302,RL,2022.2.4,60.04538229599241,
1,6,0,6,0,,,,,,,,,,None,1724.0721704000607,1724.0721704000607,1724.0721704000607,1724.0721704000607,1724.0721704000607,1724.0721704000607,i,0.8895354000851512,1724.988032899797,1724.988032899797,1724.988032899797,1724.988032899797,1724.988032899797,1724.988032899797,1725.285139199812,1725.285139199812,1726.2158654998057,1726.2158654998057,1726.2158654998057,1726.2158654998057,1726.2158654998057,1726.2158654998057,1726.2158654998057,1726.2158654998057,1726.2158654998057,1726.2158654998057,1726.2158654998057,1726.2158654998057,1726.2158654998057,1726.2158654998057,1726.2158654998057,1726.2158654998057,1726.2158654998057,1728.7248752997257,1728.7248752997257,1728.7248752997257,1728.7248752997257,1728.7248752997257,57,77,39,31,39,66,3.0,1.976637199986726,1730.7193935997784,1732.6149268997833,,,,,,,,,129,f,1,2022-12-12_14h48.41.302,RL,2022.2.4,60.04538229599241,
1,7,0,7,0,,,,,,,,,,None,1732.6149268997833,1732.6149268997833,1732.6149268997833,1732.6149268997833,1732.6149268997833,1732.6149268997833,f,0.567892599850893,1733.2207018998452,1733.2207018998452,1733.2207018998452,1733.2207018998452,1733.2207018998452,1733.2207018998452,1733.5131414998323,1733.5131414998323,1734.4930536998436,1734.4930536998436,1734.5100282998756,1734.5100282998756,1734.5100282998756,1734.5100282998756,1734.5100282998756,1734.5100282998756,1734.5100282998756,1734.5100282998756,1734.5100282998756,1734.5100282998756,1734.5100282998756,1734.5100282998756,1734.5100282998756,1734.5100282998756,1734.5100282998756,1737.0192708997056,1737.0192708997056,1737.0192708997056,1737.0192708997056,1737.0192708997056,53,79,35,26,79,64,5.0,1.8776274998672307,1738.913882999681,1740.6761906999163,,,,,,,,,129,f,1,2022-12-12_14h48.41.302,RL,2022.2.4,60.04538229599241,
1,8,0,8,0,,,,,,,,,,None,1740.6761906999163,1740.6761906999163,1740.6761906999163,1740.6761906999163,1740.6761906999163,1740.6761906999163,f,0.5424969997256994,1741.2437964999117,1741.2437964999117,1741.2437964999117,1741.2437964999117,1741.2437964999117,1741.2437964999117,1741.5406821998768,1741.5406821998768,1742.6045605000108,1742.6045605000108,1742.6213623997755,1742.6213623997755,1742.6213623997755,1742.6213623997755,1742.6213623997755,1742.6213623997755,1742.6213623997755,1742.6213623997755,1742.6213623997755,1742.6213623997755,1742.6213623997755,1742.6213623997755,1742.6213623997755,1742.6213623997755,1742.6213623997755,1745.1302275001071,1745.1302275001071,1745.1302275001071,1745.1302275001071,1745.1302275001071,52,82,36,22,82,56,5.0,1.7951054000295699,1746.9421291998588,1748.4886431000195,,,,,,,,,129,f,1,2022-12-12_14h48.41.302,RL,2022.2.4,60.04538229599241,
1,9,0,9,0,,,,,,,,,,None,1748.4886431000195,1748.4886431000195,1748.4886431000195,1748.4886431000195,1748.4886431000195,1748.4886431000195,f,0.4860888998955488,1749.0046545998193,1749.0046545998193,1749.0046545998193,1749.0046545998193,1749.0046545998193,1749.0046545998193,1749.3028142000549,1749.3028142000549,1750.5162392999046,1750.5162392999046,1750.5162392999046,1750.5162392999046,1750.5162392999046,1750.5162392999046,1750.5162392999046,1750.5162392999046,1750.5162392999046,1750.5162392999046,1750.5162392999046,1750.5162392999046,1750.5162392999046,1750.5162392999046,1750.5162392999046,1750.5162392999046,1750.5162392999046,1753.0253663999029,1753.0253663999029,1753.0253663999029,1753.0253663999029,1753.0253663999029,59,77,34,25,77,58,7.0,1.9767841999419034,1755.020101599861,1756.6828385996632,,,,,,,,,129,f,1,2022-12-12_14h48.41.302,RL,2022.2.4,60.04538229599241,
1,10,0,10,0,,,,,,,,,,None,1756.6828385996632,1756.6828385996632,1756.6828385996632,1756.6828385996632,1756.6828385996632,1756.6828385996632,f,0.5472836000844836,1757.2529959999956,1757.2529959999956,1757.2529959999956,1757.2529959999956,1757.2529959999956,1757.2529959999956,1757.5470738997683,1757.5470738997683,1759.4753290996887,1759.4753290996887,1759.4753290996887,1759.4753290996887,1759.4753290996887,1759.4753290996887,1759.4753290996887,1759.4753290996887,1759.4753290996887,1759.4753290996887,1759.4753290996887,1759.4753290996887,1759.4753290996887,1759.4753290996887,1759.4753290996887,1759.4753290996887,1759.4753290996887,1761.9842479997315,1761.9842479997315,1761.9842479997315,1761.9842479997315,1761.9842479997315,55,80,33,29,80,49,6.0,1.9098211997188628,1763.9121848996729,1765.5583075000905,,,,,,,,,129,f,1,2022-12-12_14h48.41.302,RL,2022.2.4,60.04538229599241,
1,11,0,11,0,,,,,,,,,,None,1765.5583075000905,1765.5583075000905,1765.5583075000905,1765.5583075000905,1765.5583075000905,1765.5583075000905,f,0.5263998997397721,1766.108959800098,1766.108959800098,1766.108959800098,1766.108959800098,1766.108959800098,1766.108959800098,1766.4064551000483,1766.4064551000483,1767.3701752997003,1767.3701752997003,1767.3701752997003,1767.3701752997003,1767.3701752997003,1767.3701752997003,1767.3701752997003,1767.3701752997003,1767.3701752997003,1767.3701752997003,1767.3701752997003,1767.3701752997003,1767.3701752997003,1767.3701752997003,1767.3701752997003,1767.3701752997003,1767.3701752997003,1769.8797478000633,1769.8797478000633,1769.8797478000633,1769.8797478000633,1769.8797478000633,56,88,38,33,88,58,6.0,1.4285927000455558,1771.3254591999575,1773.254314699676,,,,,,,,,129,f,1,2022-12-12_14h48.41.302,RL,2022.2.4,60.04538229599241,
1,12,0,12,0,,,,,,,,,,None,1773.254314699676,1773.254314699676,1773.254314699676,1773.254314699676,1773.254314699676,1773.254314699676,f,0.63652090029791,1773.9213127996773,1773.9213127996773,1773.9213127996773,1773.9213127996773,1773.9213127996773,1773.9213127996773,1774.2182939997874,1774.2182939997874,1775.9804048999213,1775.9804048999213,1775.997012599837,1775.997012599837,1775.997012599837,1775.997012599837,1775.997012599837,1775.997012599837,1775.997012599837,1775.997012599837,1775.997012599837,1775.997012599837,1775.997012599837,1775.997012599837,1775.997012599837,1775.997012599837,1775.997012599837,1778.5062323999591,1778.5062323999591,1778.5062323999591,1778.5062323999591,1778.5062323999591,60,77,46,28,77,54,5.0,1.1138094998896122,1779.6358717996627,1781.631224299781,,,,,,,,,129,f,1,2022-12-12_14h48.41.302,RL,2022.2.4,60.04538229599241,
1,13,0,13,0,,,,,,,,,,None,1781.631224299781,1781.631224299781,1781.631224299781,1781.631224299781,1781.631224299781,1781.631224299781,f,0.6432140003889799,1782.2996475999244,1782.2996475999244,1782.2996475999244,1782.2996475999244,1782.2996475999244,1782.2996475999244,1782.595507199876,1782.595507199876,1784.0748894000426,1784.0748894000426,1784.0748894000426,1784.0748894000426,1784.0748894000426,1784.0748894000426,1784.0748894000426,1784.0748894000426,1784.0748894000426,1784.0748894000426,1784.0748894000426,1784.0748894000426,1784.0748894000426,1784.0748894000426,1784.0748894000426,1784.0748894000426,1784.0748894000426,1786.5838357997127,1786.5838357997127,1786.5838357997127,1786.5838357997127,1786.5838357997127,57,88,33,32,88,59,6.0,1.7445123000070453,1788.3460719999857,1789.9087348999456,,,,,,,,,129,f,1,2022-12-12_14h48.41.302,RL,2022.2.4,60.04538229599241,
1,14,0,14,0,,,,,,,,,,None,1789.9087348999456,1789.9087348999456,1789.9087348999456,1789.9087348999456,1789.9087348999456,1789.9087348999456,f,0.5883442997001112,1790.5288760997355,1790.5288760997355,1790.5288760997355,1790.5288760997355,1790.5288760997355,1790.5288760997355,1790.8229028000496,1790.8229028000496,1792.734657699708,1792.734657699708,1792.734657699708,1792.734657699708,1792.734657699708,1792.734657699708,1792.734657699708,1792.734657699708,1792.734657699708,1792.734657699708,1792.734657699708,1792.734657699708,1792.734657699708,1792.734657699708,1792.734657699708,1792.734657699708,1792.734657699708,1795.2435412998311,1795.2435412998311,1795.2435412998311,1795.2435412998311,1795.2435412998311,50,82,49,23,82,71,4.0,0.9632195997983217,1796.2244004998356,1797.903399199713,,,,,,,,,129,f,1,2022-12-12_14h48.41.302,RL,2022.2.4,60.04538229599241,
1,15,0,15,0,,,,,,,,,,None,1797.903399199713,1797.903399199713,1797.903399199713,1797.903399199713,1797.903399199713,1797.903399199713,f,0.4688357999548316,1798.402845100034,1798.402845100034,1798.402845100034,1798.402845100034,1798.402845100034,1798.402845100034,1798.701820800081,1798.701820800081,1799.7822308996692,1799.7822308996692,1799.7822308996692,1799.7822308996692,1799.7822308996692,1799.7822308996692,1799.7822308996692,1799.7822308996692,1799.7822308996692,1799.7822308996692,1799.7822308996692,1799.7822308996692,1799.7822308996692,1799.7822308996692,1799.7822308996692,1799.7822308996692,1799.7822308996692,1802.2911225999705,1802.2911225999705,1802.2911225999705,1802.2911225999705,1802.2911225999705,52,68,43,27,68,63,4.0,1.5122758001089096,1803.8202337999828,1805.432800800074,,,,,,,,,129,f,1,2022-12-12_14h48.41.302,RL,2022.2.4,60.04538229599241,
1,16,0,16,0,,,,,,,,,,None,1805.432800800074,1805.432800800074,1805.432800800074,1805.432800800074,1805.432800800074,1805.432800800074,f,0.4507242999970913,1805.9175692000426,1805.9175692000426,1805.9175692000426,1805.9175692000426,1805.9175692000426,1805.9175692000426,1806.214371799957,1806.214371799957,1807.5437809997238,1807.5437809997238,1807.5609220000915,1807.5609220000915,1807.5609220000915,1807.5609220000915,1807.5609220000915,1807.5609220000915,1807.5609220000915,1807.5609220000915,1807.5609220000915,1807.5609220000915,1807.5609220000915,1807.5609220000915,1807.5609220000915,1807.5609220000915,1807.5609220000915,1810.0699408999644,1810.0699408999644,1810.0699408999644,1810.0699408999644,1810.0699408999644,51,82,43,39,82,60,5.0,1.5279558999463916,1811.6154296998866,1813.4111985997297,,,,,,,,,129,f,1,2022-12-12_14h48.41.302,RL,2022.2.4,60.04538229599241,
1,17,0,17,0,,,,,,,,,,None,1813.4111985997297,1813.4111985997297,1813.4111985997297,1813.4111985997297,1813.4111985997297,1813.4111985997297,f,0.7531308000907302,1814.1951383999549,1814.1951383999549,1814.1951383999549,1814.1951383999549,1814.1951383999549,1814.1951383999549,1814.491637200117,1814.491637200117,1815.6051901997998,1815.6051901997998,1815.6219367999583,1815.6219367999583,1815.6219367999583,1815.6219367999583,1815.6219367999583,1815.6219367999583,1815.6219367999583,1815.6219367999583,1815.6219367999583,1815.6219367999583,1815.6219367999583,1815.6219367999583,1815.6219367999583,1815.6219367999583,1815.6219367999583,1818.1315859998576,1818.1315859998576,1818.1315859998576,1818.1315859998576,1818.1315859998576,53,71,40,26,71,65,5.0,1.6777371000498533,1819.826303999871,1821.6887884996831,,,,,,,,,129,f,1,2022-12-12_14h48.41.302,RL,2022.2.4,60.04538229599241,
1,18,0,18,0,,,,,,,,,,None,1821.6887884996831,1821.6887884996831,1821.6887884996831,1821.6887884996831,1821.6887884996831,1821.6887884996831,f,0.5156069998629391,1822.240572199691,1822.240572199691,1822.240572199691,1822.240572199691,1822.240572199691,1822.240572199691,1822.5367600996979,1822.5367600996979,1823.9163357000798,1823.9163357000798,1823.9163357000798,1823.9163357000798,1823.9163357000798,1823.9163357000798,1823.9163357000798,1823.9163357000798,1823.9163357000798,1823.9163357000798,1823.9163357000798,1823.9163357000798,1823.9163357000798,1823.9163357000798,1823.9163357000798,1823.9163357000798,1823.9163357000798,1826.4251799997874,1826.4251799997874,1826.4251799997874,1826.4251799997874,1826.4251799997874,59,75,50,35,75,61,4.0,1.7278720000758767,1828.1703770998865,1829.915956299752,,,,,,,,,129,f,1,2022-12-12_14h48.41.302,RL,2022.2.4,60.04538229599241,
1,19,0,19,0,,,,,,,,,,None,1829.915956299752,1829.915956299752,1829.915956299752,1829.915956299752,1829.915956299752,1829.915956299752,f,0.7477410999126732,1830.6991210998967,1830.6991210998967,1830.6991210998967,1830.6991210998967,1830.6991210998967,1830.6991210998967,1830.9970571999438,1830.9970571999438,1832.143492099829,1832.143492099829,1832.143492099829,1832.143492099829,1832.143492099829,1832.143492099829,1832.143492099829,1832.143492099829,1832.143492099829,1832.143492099829,1832.143492099829,1832.143492099829,1832.143492099829,1832.143492099829,1832.143492099829,1832.143492099829,1832.143492099829,1834.6525685000233,1834.6525685000233,1834.6525685000233,1834.6525685000233,1834.6525685000233,59,68,48,29,68,75,3.0,1.3619698002003133,1836.031973300036,1837.7280019000173,,,,,,,,,129,f,1,2022-12-12_14h48.41.302,RL,2022.2.4,60.04538229599241,
1,20,0,20,0,,,,,,,,,,None,1837.7280019000173,1837.7280019000173,1837.7280019000173,1837.7280019000173,1837.7280019000173,1837.7280019000173,f,0.4068014998920262,1838.164818899706,1838.164818899706,1838.164818899706,1838.164818899706,1838.164818899706,1838.164818899706,1838.4599951999262,1838.4599951999262,1839.2742090998217,1839.2742090998217,1839.2909721001051,1839.2909721001051,1839.2909721001051,1839.2909721001051,1839.2909721001051,1839.2909721001051,1839.2909721001051,1839.2909721001051,1839.2909721001051,1839.2909721001051,1839.2909721001051,1839.2909721001051,1839.2909721001051,1839.2909721001051,1839.2909721001051,1841.800143999979,1841.800143999979,1841.800143999979,1841.800143999979,1841.800143999979,56,57,52,35,57,56,4.0,1.0297191003337502,1842.847127399873,1844.4267829000019,,,,,,,,,129,f,1,2022-12-12_14h48.41.302,RL,2022.2.4,60.04538229599241,
1,21,0,21,0,,,,,,,,,,None,1844.4267829000019,1844.4267829000019,1844.4267829000019,1844.4267829000019,1844.4267829000019,1844.4267829000019,f,0.7403573002666235,1845.193073600065,1845.193073600065,1845.193073600065,1845.193073600065,1845.193073600065,1845.193073600065,1845.4907780997455,1845.4907780997455,1846.6871793000028,1846.6871793000028,1846.6871793000028,1846.6871793000028,1846.6871793000028,1846.6871793000028,1846.6871793000028,1846.6871793000028,1846.6871793000028,1846.6871793000028,1846.6871793000028,1846.6871793000028,1846.6871793000028,1846.6871793000028,1846.6871793000028,1846.6871793000028,1846.6871793000028,1849.1963205998763,1849.1963205998763,1849.1963205998763,1849.1963205998763,1849.1963205998763,65,61,49,36,61,63,4.0,1.4784706998616457,1850.6921298000962,1852.6206477000378,,,,,,,,,129,f,1,2022-12-12_14h48.41.302,RL,2022.2.4,60.04538229599241,
1,22,0,22,0,,,,,,,,,,None,1852.6206477000378,1852.6206477000378,1852.6206477000378,1852.6206477000378,1852.6206477000378,1852.6206477000378,f,0.7217318001203239,1853.3719520997256,1853.3719520997256,1853.3719520997256,1853.3719520997256,1853.3719520997256,1853.3719520997256,1853.6684485999867,1853.6684485999867,1854.9982137000188,1854.9982137000188,1854.9982137000188,1854.9982137000188,1854.9982137000188,1854.9982137000188,1854.9982137000188,1854.9982137000188,1854.9982137000188,1854.9982137000188,1854.9982137000188,1854.9982137000188,1854.9982137000188,1854.9982137000188,1854.9982137000188,1854.9982137000188,1854.9982137000188,1857.506924699992,1857.506924699992,1857.506924699992,1857.506924699992,1857.506924699992,60,51,48,33,51,75,3.0,1.810810700058937,1859.3352562999353,1861.2808110998012,,,,,,,,,129,f,1,2022-12-12_14h48.41.302,RL,2022.2.4,60.04538229599241,
1,23,0,23,0,,,,,,,,,,None,1861.2808110998012,1861.2808110998012,1861.2808110998012,1861.2808110998012,1861.2808110998012,1861.2808110998012,j,0.5064353998750448,1861.8153117997572,1861.8153117997572,1861.8153117997572,1861.8153117997572,1861.8153117997572,1861.8153117997572,1862.112269999925,1862.112269999925,1863.4251435999759,1863.4251435999759,1863.4251435999759,1863.4251435999759,1863.4251435999759,1863.4251435999759,1863.4251435999759,1863.4251435999759,1863.4251435999759,1863.4251435999759,1863.4251435999759,1863.4251435999759,1863.4251435999759,1863.4251435999759,1863.4251435999759,1863.4251435999759,1863.4251435999759,1865.9340427001007,1865.9340427001007,1865.9340427001007,1865.9340427001007,1865.9340427001007,58,68,44,38,38,15,4.0,1.8271484998986125,1867.7790781999938,1869.4586216998287,,,,,,,,,129,f,1,2022-12-12_14h48.41.302,RL,2022.2.4,60.04538229599241,
1,24,0,24,0,,,,,,,,,,None,1869.4586216998287,1869.4586216998287,1869.4586216998287,1869.4586216998287,1869.4586216998287,1869.4586216998287,r,0.604026900138706,1870.0913601997308,1870.0913601997308,1870.0913601997308,1870.0913601997308,1870.0913601997308,1870.0913601997308,1870.389248599764,1870.389248599764,1871.8024733997881,1871.8024733997881,1871.8024733997881,1871.8024733997881,1871.8024733997881,1871.8024733997881,1871.8024733997881,1871.8024733997881,1871.8024733997881,1871.8024733997881,1871.8024733997881,1871.8024733997881,1871.8024733997881,1871.8024733997881,1871.8024733997881,1871.8024733997881,1871.8024733997881,1874.3110834998079,1874.3110834998079,1874.3110834998079,1874.3110834998079,1874.3110834998079,58,64,47,33,58,66,4.0,1.195771099999547,1875.524560699705,1877.1040771999396,,,,,,,,,129,f,1,2022-12-12_14h48.41.302,RL,2022.2.4,60.04538229599241,
1,25,0,25,0,,,,,,,,,,None,1877.1040771999396,1877.1040771999396,1877.1040771999396,1877.1040771999396,1877.1040771999396,1877.1040771999396,i,0.7533781002275646,1877.8891019998118,1877.8891019998118,1877.8891019998118,1877.8891019998118,1877.8891019998118,1877.8891019998118,1878.1849368996918,1878.1849368996918,1879.8133028000593,1879.8133028000593,1879.8133028000593,1879.8133028000593,1879.8133028000593,1879.8133028000593,1879.8133028000593,1879.8133028000593,1879.8133028000593,1879.8133028000593,1879.8133028000593,1879.8133028000593,1879.8133028000593,1879.8133028000593,1879.8133028000593,1879.8133028000593,1879.8133028000593,1882.3226044001058,1882.3226044001058,1882.3226044001058,1882.3226044001058,1882.3226044001058,64,64,49,35,49,71,3.0,1.5453935000114143,1883.8853221996687,1885.7137782000937,,,,,,,,,129,f,1,2022-12-12_14h48.41.302,RL,2022.2.4,60.04538229599241,
1,26,0,26,0,,,,,,,,,,None,1885.7137782000937,1885.7137782000937,1885.7137782000937,1885.7137782000937,1885.7137782000937,1885.7137782000937,r,0.5097142998129129,1886.248369100038,1886.248369100038,1886.248369100038,1886.248369100038,1886.248369100038,1886.248369100038,1886.545421499759,1886.545421499759,1888.3069416997023,1888.3069416997023,1888.3069416997023,1888.3069416997023,1888.3069416997023,1888.3069416997023,1888.3069416997023,1888.3069416997023,1888.3069416997023,1888.3069416997023,1888.3069416997023,1888.3069416997023,1888.3069416997023,1888.3069416997023,1888.3069416997023,1888.3069416997023,1888.3069416997023,1890.8160284999758,1890.8160284999758,1890.8160284999758,1890.8160284999758,1890.8160284999758,68,66,50,41,68,55,5.0,1.7938040997833014,1892.6276905997656,1894.3407418997958,,,,,,,,,129,f,1,2022-12-12_14h48.41.302,RL,2022.2.4,60.04538229599241,
1,27,0,27,0,,,,,,,,,,None,1894.3407418997958,1894.3407418997958,1894.3407418997958,1894.3407418997958,1894.3407418997958,1894.3407418997958,r,0.43122929986566305,1894.789707900025,1894.789707900025,1894.789707900025,1894.789707900025,1894.789707900025,1894.789707900025,1895.0889592999592,1895.0889592999592,1896.3686150996946,1896.3686150996946,1896.3686150996946,1896.3686150996946,1896.3686150996946,1896.3686150996946,1896.3686150996946,1896.3686150996946,1896.3686150996946,1896.3686150996946,1896.3686150996946,1896.3686150996946,1896.3686150996946,1896.3686150996946,1896.3686150996946,1896.3686150996946,1896.3686150996946,1898.877704099752,1898.877704099752,1898.877704099752,1898.877704099752,1898.877704099752,70,70,50,40,70,14,5.0,1.2958888001739979,1900.190607499797,1902.1527746999636,,,,,,,,,129,f,1,2022-12-12_14h48.41.302,RL,2022.2.4,60.04538229599241,
1,28,0,28,0,,,,,,,,,,None,1902.1527746999636,1902.1527746999636,1902.1527746999636,1902.1527746999636,1902.1527746999636,1902.1527746999636,r,0.7755410000681877,1902.9536770000122,1902.9536770000122,1902.9536770000122,1902.9536770000122,1902.9536770000122,1902.9536770000122,1903.2497934997082,1903.2497934997082,1904.7127286000177,1904.7127286000177,1904.7127286000177,1904.7127286000177,1904.7127286000177,1904.7127286000177,1904.7127286000177,1904.7127286000177,1904.7127286000177,1904.7127286000177,1904.7127286000177,1904.7127286000177,1904.7127286000177,1904.7127286000177,1904.7127286000177,1904.7127286000177,1904.7127286000177,1907.221724299714,1907.221724299714,1907.221724299714,1907.221724299714,1907.221724299714,65,67,43,45,65,57,5.0,1.3123737000860274,1908.551325299777,1910.1638170001097,,,,,,,,,129,f,1,2022-12-12_14h48.41.302,RL,2022.2.4,60.04538229599241,
1,29,0,29,0,,,,,,,,,,None,1910.1638170001097,1910.1638170001097,1910.1638170001097,1910.1638170001097,1910.1638170001097,1910.1638170001097,r,0.5889262999407947,1910.7812429000624,1910.7812429000624,1910.7812429000624,1910.7812429000624,1910.7812429000624,1910.7812429000624,1911.0782933998853,1911.0782933998853,1912.42445389973,1912.42445389973,1912.42445389973,1912.42445389973,1912.42445389973,1912.42445389973,1912.42445389973,1912.42445389973,1912.42445389973,1912.42445389973,1912.42445389973,1912.42445389973,1912.42445389973,1912.42445389973,1912.42445389973,1912.42445389973,1912.42445389973,1914.9339670999907,1914.9339670999907,1914.9339670999907,1914.9339670999907,1914.9339670999907,64,67,39,33,64,73,4.0,1.0460921004414558,1915.997619099915,1917.7431399999186,,,,,,,,,129,f,1,2022-12-12_14h48.41.302,RL,2022.2.4,60.04538229599241,
1,30,0,30,0,,,,,,,,,,None,1917.7431399999186,1917.7431399999186,1917.7431399999186,1917.7431399999186,1917.7431399999186,1917.7431399999186,i,0.6904425001703203,1918.4603705997579,1918.4603705997579,1918.4603705997579,1918.4603705997579,1918.4603705997579,1918.4603705997579,1918.7573278998025,1918.7573278998025,1920.5025508999825,1920.5025508999825,1920.5025508999825,1920.5025508999825,1920.5025508999825,1920.5025508999825,1920.5025508999825,1920.5025508999825,1920.5025508999825,1920.5025508999825,1920.5025508999825,1920.5025508999825,1920.5025508999825,1920.5025508999825,1920.5025508999825,1920.5025508999825,1920.5025508999825,1923.012039499823,1923.012039499823,1923.012039499823,1923.012039499823,1923.012039499823,64,64,47,39,47,59,4.0,1.2785978000611067,1924.3080368000083,1926.0043958998285,,,,,,,,,129,f,1,2022-12-12_14h48.41.302,RL,2022.2.4,60.04538229599241,
1,31,0,31,0,,,,,,,,,,None,1926.0043958998285,1926.0043958998285,1926.0043958998285,1926.0043958998285,1926.0043958998285,1926.0043958998285,j,0.40002029994502664,1926.438858800102,1926.438858800102,1926.438858800102,1926.438858800102,1926.438858800102,1926.438858800102,1926.7356950999238,1926.7356950999238,1928.2480624997988,1928.2480624997988,1928.264894399792,1928.264894399792,1928.264894399792,1928.264894399792,1928.264894399792,1928.264894399792,1928.264894399792,1928.264894399792,1928.264894399792,1928.264894399792,1928.264894399792,1928.264894399792,1928.264894399792,1928.264894399792,1928.264894399792,1930.7741000996903,1930.7741000996903,1930.7741000996903,1930.7741000996903,1930.7741000996903,64,59,37,31,31,52,3.0,1.57685810001567,1932.3690716000274,1934.1649903999642,,,,,,,,,129,f,1,2022-12-12_14h48.41.302,RL,2022.2.4,60.04538229599241,
1,32,0,32,0,,,,,,,,,,None,1934.1649903999642,1934.1649903999642,1934.1649903999642,1934.1649903999642,1934.1649903999642,1934.1649903999642,r,0.48433629982173443,1934.6826615999453,1934.6826615999453,1934.6826615999453,1934.6826615999453,1934.6826615999453,1934.6826615999453,1934.9801421999,1934.9801421999,1936.1931163999252,1936.1931163999252,1936.1931163999252,1936.1931163999252,1936.1931163999252,1936.1931163999252,1936.1931163999252,1936.1931163999252,1936.1931163999252,1936.1931163999252,1936.1931163999252,1936.1931163999252,1936.1931163999252,1936.1931163999252,1936.1931163999252,1936.1931163999252,1936.1931163999252,1938.7020107000135,1938.7020107000135,1938.7020107000135,1938.7020107000135,1938.7020107000135,72,69,37,39,72,78,4.0,1.6606688001193106,1940.3810703000054,1941.977123499848,,,,,,,,,129,f,1,2022-12-12_14h48.41.302,RL,2022.2.4,60.04538229599241,
1,33,0,33,0,,,,,,,,,,None,1941.977123499848,1941.977123499848,1941.977123499848,1941.977123499848,1941.977123499848,1941.977123499848,f,0.5180993997491896,1942.5266249999404,1942.5266249999404,1942.5266249999404,1942.5266249999404,1942.5266249999404,1942.5266249999404,1942.825374300126,1942.825374300126,1944.8196874996647,1944.8196874996647,1944.8196874996647,1944.8196874996647,1944.8196874996647,1944.8196874996647,1944.8196874996647,1944.8196874996647,1944.8196874996647,1944.8196874996647,1944.8196874996647,1944.8196874996647,1944.8196874996647,1944.8196874996647,1944.8196874996647,1944.8196874996647,1944.8196874996647,1947.3288410999812,1947.3288410999812,1947.3288410999812,1947.3288410999812,1947.3288410999812,78,66,41,43,66,73,4.0,1.8609985997900367,1949.2067889999598,1950.952469599899,,,,,,,,,129,f,1,2022-12-12_14h48.41.302,RL,2022.2.4,60.04538229599241,
1,34,0,34,0,,,,,,,,,,None,1950.952469599899,1950.952469599899,1950.952469599899,1950.952469599899,1950.952469599899,1950.952469599899,r,0.6309640998952091,1951.6024422999471,1951.6024422999471,1951.6024422999471,1951.6024422999471,1951.6024422999471,1951.6024422999471,1951.9001754000783,1951.9001754000783,1953.2132077999413,1953.2132077999413,1953.2300839000382,1953.2300839000382,1953.2300839000382,1953.2300839000382,1953.2300839000382,1953.2300839000382,1953.2300839000382,1953.2300839000382,1953.2300839000382,1953.2300839000382,1953.2300839000382,1953.2300839000382,1953.2300839000382,1953.2300839000382,1953.2300839000382,1955.7392428000458,1955.7392428000458,1955.7392428000458,1955.7392428000458,1955.7392428000458,72,76,40,41,72,74,4.0,1.7113842996768653,1957.4676032997668,1959.113844699692,,,,,,,,,129,f,1,2022-12-12_14h48.41.302,RL,2022.2.4,60.04538229599241,
1,35,0,35,0,,,,,,,,,,None,1959.113844699692,1959.113844699692,1959.113844699692,1959.113844699692,1959.113844699692,1959.113844699692,f,0.7091260999441147,1959.849520499818,1959.849520499818,1959.849520499818,1959.849520499818,1959.849520499818,1959.849520499818,1960.1448399997316,1960.1448399997316,1961.773092099931,1961.773092099931,1961.7901079999283,1961.7901079999283,1961.7901079999283,1961.7901079999283,1961.7901079999283,1961.7901079999283,1961.7901079999283,1961.7901079999283,1961.7901079999283,1961.7901079999283,1961.7901079999283,1961.7901079999283,1961.7901079999283,1961.7901079999283,1961.7901079999283,1964.298947100062,1964.298947100062,1964.298947100062,1964.298947100062,1964.298947100062,69,65,43,43,65,60,4.0,1.7445604000240564,1966.0608028001152,1967.8562862998806,,,,,,,,,129,f,1,2022-12-12_14h48.41.302,RL,2022.2.4,60.04538229599241,
1,36,0,36,0,,,,,,,,,,None,1967.8562862998806,1967.8562862998806,1967.8562862998806,1967.8562862998806,1967.8562862998806,1967.8562862998806,f,0.46134090004488826,1968.340383999981,1968.340383999981,1968.340383999981,1968.340383999981,1968.340383999981,1968.340383999981,1968.6381095997058,1968.6381095997058,1969.6022485001013,1969.6022485001013,1969.6022485001013,1969.6022485001013,1969.6022485001013,1969.6022485001013,1969.6022485001013,1969.6022485001013,1969.6022485001013,1969.6022485001013,1969.6022485001013,1969.6022485001013,1969.6022485001013,1969.6022485001013,1969.6022485001013,1969.6022485001013,1969.6022485001013,1972.1108542000875,1972.1108542000875,1972.1108542000875,1972.1108542000875,1972.1108542000875,65,55,47,40,55,79,3.0,1.4115400002337992,1973.5405251998454,1975.4527509999461,,,,,,,,,129,f,1,2022-12-12_14h48.41.302,RL,2022.2.4,60.04538229599241,
1,37,0,37,0,,,,,,,,,,None,1975.4527509999461,1975.4527509999461,1975.4527509999461,1975.4527509999461,1975.4527509999461,1975.4527509999461,r,0.6609465996734798,1976.136988800019,1976.136988800019,1976.136988800019,1976.136988800019,1976.136988800019,1976.136988800019,1976.4332075999118,1976.4332075999118,1978.0625241999514,1978.0625241999514,1978.0789832998998,1978.0789832998998,1978.0789832998998,1978.0789832998998,1978.0789832998998,1978.0789832998998,1978.0789832998998,1978.0789832998998,1978.0789832998998,1978.0789832998998,1978.0789832998998,1978.0789832998998,1978.0789832998998,1978.0789832998998,1978.0789832998998,1980.5881252000108,1980.5881252000108,1980.5881252000108,1980.5881252000108,1980.5881252000108,68,65,45,43,68,74,4.0,2.4093114002607763,1983.0146091999486,1984.7439410998486,,,,,,,,,129,f,1,2022-12-12_14h48.41.302,RL,2022.2.4,60.04538229599241,
1,38,0,38,0,,,,,,,,,,None,1984.7439410998486,1984.7439410998486,1984.7439410998486,1984.7439410998486,1984.7439410998486,1984.7439410998486,f,0.8468647003173828,1985.6128549999557,1985.6128549999557,1985.6128549999557,1985.6128549999557,1985.6128549999557,1985.6128549999557,1985.9075796999969,1985.9075796999969,1987.0213794996962,1987.0213794996962,1987.0213794996962,1987.0213794996962,1987.0213794996962,1987.0213794996962,1987.0213794996962,1987.0213794996962,1987.0213794996962,1987.0213794996962,1987.0213794996962,1987.0213794996962,1987.0213794996962,1987.0213794996962,1987.0213794996962,1987.0213794996962,1987.0213794996962,1989.5300805000588,1989.5300805000588,1989.5300805000588,1989.5300805000588,1989.5300805000588,62,55,53,51,55,77,3.0,1.5449701002798975,1991.0924452999607,1992.8885467997752,,,,,,,,,129,f,1,2022-12-12_14h48.41.302,RL,2022.2.4,60.04538229599241,
1,39,0,39,0,,,,,,,,,,None,1992.8885467997752,1992.8885467997752,1992.8885467997752,1992.8885467997752,1992.8885467997752,1992.8885467997752,j,0.5019791997037828,1993.4210701999255,1993.4210701999255,1993.4210701999255,1993.4210701999255,1993.4210701999255,1993.4210701999255,1993.7196547999047,1993.7196547999047,1994.6835423000157,1994.6835423000157,1994.6835423000157,1994.6835423000157,1994.6835423000157,1994.6835423000157,1994.6835423000157,1994.6835423000157,1994.6835423000157,1994.6835423000157,1994.6835423000157,1994.6835423000157,1994.6835423000157,1994.6835423000157,1994.6835423000157,1994.6835423000157,1994.6835423000157,1997.1924898000434,1997.1924898000434,1997.1924898000434,1997.1924898000434,1997.1924898000434,73,61,54,37,37,49,3.0,1.6277385000139475,1998.8378439000808,2000.583875999786,,,,,,,,,129,f,1,2022-12-12_14h48.41.302,RL,2022.2.4,60.04538229599241,
1,40,0,40,0,,,,,,,,,,None,2000.583875999786,2000.583875999786,2000.583875999786,2000.583875999786,2000.583875999786,2000.583875999786,r,0.5080241002142429,2001.1210241997615,2001.1210241997615,2001.1210241997615,2001.1210241997615,2001.1210241997615,2001.1210241997615,2001.4150636000559,2001.4150636000559,2003.2266525998712,2003.2266525998712,2003.2266525998712,2003.2266525998712,2003.2266525998712,2003.2266525998712,2003.2266525998712,2003.2266525998712,2003.2266525998712,2003.2266525998712,2003.2266525998712,2003.2266525998712,2003.2266525998712,2003.2266525998712,2003.2266525998712,2003.2266525998712,2003.2266525998712,2005.735834799707,2005.735834799707,2005.735834799707,2005.735834799707,2005.735834799707,64,50,55,44,64,76,4.0,1.7940157996490598,2007.5478785997257,2009.5427822000347,,,,,,,,,129,f,1,2022-12-12_14h48.41.302,RL,2022.2.4,60.04538229599241,
1,41,0,41,0,,,,,,,,,,None,2009.5427822000347,2009.5427822000347,2009.5427822000347,2009.5427822000347,2009.5427822000347,2009.5427822000347,r,0.38742730021476746,2009.9613934000954,2009.9613934000954,2009.9613934000954,2009.9613934000954,2009.9613934000954,2009.9613934000954,2010.2580228997394,2010.2580228997394,2011.4376797997393,2011.4376797997393,2011.4547357996926,2011.4547357996926,2011.4547357996926,2011.4547357996926,2011.4547357996926,2011.4547357996926,2011.4547357996926,2011.4547357996926,2011.4547357996926,2011.4547357996926,2011.4547357996926,2011.4547357996926,2011.4547357996926,2011.4547357996926,2011.4547357996926,2013.96383399982,2013.96383399982,2013.96383399982,2013.96383399982,2013.96383399982,56,49,47,31,56,45,5.0,1.528228699695319,2015.5095357997343,2017.5046254000627,,,,,,,,,129,f,1,2022-12-12_14h48.41.302,RL,2022.2.4,60.04538229599241,
1,42,0,42,0,,,,,,,,,,None,2017.5046254000627,2017.5046254000627,2017.5046254000627,2017.5046254000627,2017.5046254000627,2017.5046254000627,r,0.5806380999274552,2018.1220388999209,2018.1220388999209,2018.1220388999209,2018.1220388999209,2018.1220388999209,2018.1220388999209,2018.4187786998227,2018.4187786998227,2019.6154694999568,2019.6154694999568,2019.6154694999568,2019.6154694999568,2019.6154694999568,2019.6154694999568,2019.6154694999568,2019.6154694999568,2019.6154694999568,2019.6154694999568,2019.6154694999568,2019.6154694999568,2019.6154694999568,2019.6154694999568,2019.6154694999568,2019.6154694999568,2019.6154694999568,2022.1244374997914,2022.1244374997914,2022.1244374997914,2022.1244374997914,2022.1244374997914,60,54,37,33,60,80,4.0,1.6112493998371065,2023.7534058997408,2025.4165175999515,,,,,,,,,129,f,1,2022-12-12_14h48.41.302,RL,2022.2.4,60.04538229599241,
1,43,0,43,0,,,,,,,,,,None,2025.4165175999515,2025.4165175999515,2025.4165175999515,2025.4165175999515,2025.4165175999515,2025.4165175999515,r,0.4926692000590265,2025.9352334998548,2025.9352334998548,2025.9352334998548,2025.9352334998548,2025.9352334998548,2025.9352334998548,2026.2311597997323,2026.2311597997323,2028.0096217999235,2028.0096217999235,2028.0096217999235,2028.0096217999235,2028.0096217999235,2028.0096217999235,2028.0096217999235,2028.0096217999235,2028.0096217999235,2028.0096217999235,2028.0096217999235,2028.0096217999235,2028.0096217999235,2028.0096217999235,2028.0096217999235,2028.0096217999235,2028.0096217999235,2030.5186584000476,2030.5186584000476,2030.5186584000476,2030.5186584000476,2030.5186584000476,57,48,35,40,57,86,3.0,1.5949246999807656,2032.1304750000127,2033.7765851998702,,,,,,,,,129,f,1,2022-12-12_14h48.41.302,RL,2022.2.4,60.04538229599241,
1,44,0,44,0,,,,,,,,,,None,2033.7765851998702,2033.7765851998702,2033.7765851998702,2033.7765851998702,2033.7765851998702,2033.7765851998702,f,0.5426027001813054,2034.3447344996966,2034.3447344996966,2034.3447344996966,2034.3447344996966,2034.3447344996966,2034.3447344996966,2034.6414405996911,2034.6414405996911,2035.8877924000844,2035.8877924000844,2035.8877924000844,2035.8877924000844,2035.8877924000844,2035.8877924000844,2035.8877924000844,2035.8877924000844,2035.8877924000844,2035.8877924000844,2035.8877924000844,2035.8877924000844,2035.8877924000844,2035.8877924000844,2035.8877924000844,2035.8877924000844,2035.8877924000844,2038.3967578997836,2038.3967578997836,2038.3967578997836,2038.3967578997836,2038.3967578997836,58,49,32,34,49,73,2.0,1.1467315996997058,2039.560457299929,2041.289707900025,,,,,,,,,129,f,1,2022-12-12_14h48.41.302,RL,2022.2.4,60.04538229599241,
1,45,0,45,0,,,,,,,,,,None,2041.289707900025,2041.289707900025,2041.289707900025,2041.289707900025,2041.289707900025,2041.289707900025,f,0.42096849996596575,2041.7402375997044,2041.7402375997044,2041.7402375997044,2041.7402375997044,2041.7402375997044,2041.7402375997044,2042.0377163998783,2042.0377163998783,2043.5502756000496,2043.5502756000496,2043.5502756000496,2043.5502756000496,2043.5502756000496,2043.5502756000496,2043.5502756000496,2043.5502756000496,2043.5502756000496,2043.5502756000496,2043.5502756000496,2043.5502756000496,2043.5502756000496,2043.5502756000496,2043.5502756000496,2043.5502756000496,2043.5502756000496,2046.0596318999305,2046.0596318999305,2046.0596318999305,2046.0596318999305,2046.0596318999305,54,44,45,38,44,82,2.0,1.4449785999022424,2047.5218321001157,2049.051972199697,,,,,,,,,129,f,1,2022-12-12_14h48.41.302,RL,2022.2.4,60.04538229599241,
1,46,0,46,0,,,,,,,,,,None,2049.051972199697,2049.051972199697,2049.051972199697,2049.051972199697,2049.051972199697,2049.051972199697,r,0.4278160003013909,2049.504260600079,2049.504260600079,2049.504260600079,2049.504260600079,2049.504260600079,2049.504260600079,2049.799826500006,2049.799826500006,2051.2622078997083,2051.2622078997083,2051.2622078997083,2051.2622078997083,2051.2622078997083,2051.2622078997083,2051.2622078997083,2051.2622078997083,2051.2622078997083,2051.2622078997083,2051.2622078997083,2051.2622078997083,2051.2622078997083,2051.2622078997083,2051.2622078997083,2051.2622078997083,2051.2622078997083,2053.7717556999996,2053.7717556999996,2053.7717556999996,2053.7717556999996,2053.7717556999996,55,52,31,27,55,89,3.0,1.846070199739188,2055.633305999916,2057.4290704997256,,,,,,,,,129,f,1,2022-12-12_14h48.41.302,RL,2022.2.4,60.04538229599241,
1,47,0,47,0,,,,,,,,,,None,2057.4290704997256,2057.4290704997256,2057.4290704997256,2057.4290704997256,2057.4290704997256,2057.4290704997256,r,0.4946538000367582,2057.9472852000035,2057.9472852000035,2057.9472852000035,2057.9472852000035,2057.9472852000035,2057.9472852000035,2058.243412999902,2058.243412999902,2059.8889496997,2059.8889496997,2059.9056009999476,2059.9056009999476,2059.9056009999476,2059.9056009999476,2059.9056009999476,2059.9056009999476,2059.9056009999476,2059.9056009999476,2059.9056009999476,2059.9056009999476,2059.9056009999476,2059.9056009999476,2059.9056009999476,2059.9056009999476,2059.9056009999476,2062.414672699757,2062.414672699757,2062.414672699757,2062.414672699757,2062.414672699757,61,57,41,36,61,86,3.0,2.3096159999258816,2064.74195769988,2066.421141699888,,,,,,,,,129,f,1,2022-12-12_14h48.41.302,RL,2022.2.4,60.04538229599241,
1,48,0,48,0,,,,,,,,,,None,2066.421141699888,2066.421141699888,2066.421141699888,2066.421141699888,2066.421141699888,2066.421141699888,r,0.6967629003338516,2067.1369672999717,2067.1369672999717,2067.1369672999717,2067.1369672999717,2067.1369672999717,2067.1369672999717,2067.4351638997905,2067.4351638997905,2068.681543999817,2068.681543999817,2068.69852609979,2068.69852609979,2068.69852609979,2068.69852609979,2068.69852609979,2068.69852609979,2068.69852609979,2068.69852609979,2068.69852609979,2068.69852609979,2068.69852609979,2068.69852609979,2068.69852609979,2068.69852609979,2068.69852609979,2071.2071333997883,2071.2071333997883,2071.2071333997883,2071.2071333997883,2071.2071333997883,59,52,35,30,59,73,3.0,2.5753313996829093,2073.800503499806,2075.729080799967,,,,,,,,,129,f,1,2022-12-12_14h48.41.302,RL,2022.2.4,60.04538229599241,
1,49,0,49,0,,,,,,,,,,None,2075.729080799967,2075.729080799967,2075.729080799967,2075.729080799967,2075.729080799967,2075.729080799967,i,0.8063598000444472,2076.562224799767,2076.562224799767,2076.562224799767,2076.562224799767,2076.562224799767,2076.562224799767,2076.8595853997394,2076.8595853997394,2077.873158500064,2077.873158500064,2077.873158500064,2077.873158500064,2077.873158500064,2077.873158500064,2077.873158500064,2077.873158500064,2077.873158500064,2077.873158500064,2077.873158500064,2077.873158500064,2077.873158500064,2077.873158500064,2077.873158500064,2077.873158500064,2077.873158500064,2080.3821751996875,2080.3821751996875,2080.3821751996875,2080.3821751996875,2080.3821751996875,60,56,35,33,35,46,3.0,2.675240300130099,2083.0749023999088,2084.9370256997645,,,,,,,,,129,f,1,2022-12-12_14h48.41.302,RL,2022.2.4,60.04538229599241,
1,50,0,50,0,,,,,,,,,,None,2084.9370256997645,2084.9370256997645,2084.9370256997645,2084.9370256997645,2084.9370256997645,2084.9370256997645,i,0.7974491002969444,2085.7532631000504,2085.7532631000504,2085.7532631000504,2085.7532631000504,2085.7532631000504,2085.7532631000504,2086.0508453999646,2086.0508453999646,2087.9957150998525,2087.9957150998525,2087.9957150998525,2087.9957150998525,2087.9957150998525,2087.9957150998525,2087.9957150998525,2087.9957150998525,2087.9957150998525,2087.9957150998525,2087.9957150998525,2087.9957150998525,2087.9957150998525,2087.9957150998525,2087.9957150998525,2087.9957150998525,2087.9957150998525,2090.5043127001263,2090.5043127001263,2090.5043127001263,2090.5043127001263,2090.5043127001263,54,48,38,44,38,71,2.0,1.9943436002358794,2092.51577349985,2094.062541199848,,,,,,,,,129,f,1,2022-12-12_14h48.41.302,RL,2022.2.4,60.04538229599241,
1,51,0,51,0,,,,,,,,,,None,2094.062541199848,2094.062541199848,2094.062541199848,2094.062541199848,2094.062541199848,2094.062541199848,j,0.49046280002221465,2094.5815904000774,2094.5815904000774,2094.5815904000774,2094.5815904000774,2094.5815904000774,2094.5815904000774,2094.8770400998183,2094.8770400998183,2096.6220971997827,2096.6220971997827,2096.6386343999766,2096.6386343999766,2096.6386343999766,2096.6386343999766,2096.6386343999766,2096.6386343999766,2096.6386343999766,2096.6386343999766,2096.6386343999766,2096.6386343999766,2096.6386343999766,2096.6386343999766,2096.6386343999766,2096.6386343999766,2096.6386343999766,2099.148110100068,2099.148110100068,2099.148110100068,2099.148110100068,2099.148110100068,62,52,42,29,29,68,3.0,2.691356100142002,2101.8571426998824,2103.4367839996703,,,,,,,,,129,f,1,2022-12-12_14h48.41.302,RL,2022.2.4,60.04538229599241,
1,52,0,52,0,,,,,,,,,,None,2103.4367839996703,2103.4367839996703,2103.4367839996703,2103.4367839996703,2103.4367839996703,2103.4367839996703,r,0.47428529988974333,2103.937259600032,2103.937259600032,2103.937259600032,2103.937259600032,2103.937259600032,2103.937259600032,2104.234958199784,2104.234958199784,2105.880083600059,2105.880083600059,2105.880083600059,2105.880083600059,2105.880083600059,2105.880083600059,2105.880083600059,2105.880083600059,2105.880083600059,2105.880083600059,2105.880083600059,2105.880083600059,2105.880083600059,2105.880083600059,2105.880083600059,2105.880083600059,2105.880083600059,2108.38962989999,2108.38962989999,2108.38962989999,2108.38962989999,2108.38962989999,59,60,43,35,59,72,4.0,1.7783647999167442,2110.1845716000535,2112.129717499949,,,,,,,,,129,f,1,2022-12-12_14h48.41.302,RL,2022.2.4,60.04538229599241,
1,53,0,53,0,,,,,,,,,,None,2112.129717499949,2112.129717499949,2112.129717499949,2112.129717499949,2112.129717499949,2112.129717499949,r,0.7604706999845803,2112.91331860004,2112.91331860004,2112.91331860004,2112.91331860004,2112.91331860004,2112.91331860004,2113.2105628000572,2113.2105628000572,2114.6227492000908,2114.6227492000908,2114.6227492000908,2114.6227492000908,2114.6227492000908,2114.6227492000908,2114.6227492000908,2114.6227492000908,2114.6227492000908,2114.6227492000908,2114.6227492000908,2114.6227492000908,2114.6227492000908,2114.6227492000908,2114.6227492000908,2114.6227492000908,2114.6227492000908,2117.1322198999114,2117.1322198999114,2117.1322198999114,2117.1322198999114,2117.1322198999114,56,59,47,32,56,73,4.0,1.4951948001980782,2118.6445372998714,2120.174123500008,,,,,,,,,129,f,1,2022-12-12_14h48.41.302,RL,2022.2.4,60.04538229599241,
1,54,0,54,0,,,,,,,,,,None,2120.174123500008,2120.174123500008,2120.174123500008,2120.174123500008,2120.174123500008,2120.174123500008,r,0.4754550000652671,2120.675038199872,2120.675038199872,2120.675038199872,2120.675038199872,2120.675038199872,2120.675038199872,2120.972514399793,2120.972514399793,2122.817254799884,2122.817254799884,2122.817254799884,2122.817254799884,2122.817254799884,2122.817254799884,2122.817254799884,2122.817254799884,2122.817254799884,2122.817254799884,2122.817254799884,2122.817254799884,2122.817254799884,2122.817254799884,2122.817254799884,2122.817254799884,2122.817254799884,2125.326199399773,2125.326199399773,2125.326199399773,2125.326199399773,2125.326199399773,49,48,50,35,49,70,4.0,1.5292123998515308,2126.8718888000585,2128.734354299959,,,,,,,,,129,f,1,2022-12-12_14h48.41.302,RL,2022.2.4,60.04538229599241,
1,55,0,55,0,,,,,,,,,,None,2128.734354299959,2128.734354299959,2128.734354299959,2128.734354299959,2128.734354299959,2128.734354299959,f,0.48368929978460073,2129.252009399701,2129.252009399701,2129.252009399701,2129.252009399701,2129.252009399701,2129.252009399701,2129.5491172000766,2129.5491172000766,2131.277594599873,2131.277594599873,2131.277594599873,2131.277594599873,2131.277594599873,2131.277594599873,2131.277594599873,2131.277594599873,2131.277594599873,2131.277594599873,2131.277594599873,2131.277594599873,2131.277594599873,2131.277594599873,2131.277594599873,2131.277594599873,2131.277594599873,2133.7866118997335,2133.7866118997335,2133.7866118997335,2133.7866118997335,2133.7866118997335,59,48,41,31,48,77,3.0,1.8113576001487672,2135.614778599702,2137.4437858997844,,,,,,,,,129,f,1,2022-12-12_14h48.41.302,RL,2022.2.4,60.04538229599241,
1,56,0,56,0,,,,,,,,,,None,2137.4437858997844,2137.4437858997844,2137.4437858997844,2137.4437858997844,2137.4437858997844,2137.4437858997844,r,0.8980765999294817,2138.377044899855,2138.377044899855,2138.377044899855,2138.377044899855,2138.377044899855,2138.377044899855,2138.674095199909,2138.674095199909,2139.688022899907,2139.688022899907,2139.704866199754,2139.704866199754,2139.704866199754,2139.704866199754,2139.704866199754,2139.704866199754,2139.704866199754,2139.704866199754,2139.704866199754,2139.704866199754,2139.704866199754,2139.704866199754,2139.704866199754,2139.704866199754,2139.704866199754,2142.2137486999854,2142.2137486999854,2142.2137486999854,2142.2137486999854,2142.2137486999854,57,63,35,30,57,63,3.0,1.9113682000897825,2144.1421562996693,2145.754685400054,,,,,,,,,129,f,1,2022-12-12_14h48.41.302,RL,2022.2.4,60.04538229599241,
1,57,0,57,0,,,,,,,,,,None,2145.754685400054,2145.754685400054,2145.754685400054,2145.754685400054,2145.754685400054,2145.754685400054,r,0.5424557998776436,2146.321202199906,2146.321202199906,2146.321202199906,2146.321202199906,2146.321202199906,2146.321202199906,2146.6190635999665,2146.6190635999665,2148.3476057997905,2148.3476057997905,2148.3476057997905,2148.3476057997905,2148.3476057997905,2148.3476057997905,2148.3476057997905,2148.3476057997905,2148.3476057997905,2148.3476057997905,2148.3476057997905,2148.3476057997905,2148.3476057997905,2148.3476057997905,2148.3476057997905,2148.3476057997905,2148.3476057997905,2150.8566676001064,2150.8566676001064,2150.8566676001064,2150.8566676001064,2150.8566676001064,66,59,41,33,66,45,4.0,1.8940436001867056,2152.7679574997164,2154.680042000022,,,,,,,,,129,f,1,2022-12-12_14h48.41.302,RL,2022.2.4,60.04538229599241,
1,58,0,58,0,,,,,,,,,,None,2154.680042000022,2154.680042000022,2154.680042000022,2154.680042000022,2154.680042000022,2154.680042000022,r,0.6055532996542752,2155.315679700114,2155.315679700114,2155.315679700114,2155.315679700114,2155.315679700114,2155.315679700114,2155.6110284999013,2155.6110284999013,2156.525341699831,2156.525341699831,2156.525341699831,2156.525341699831,2156.525341699831,2156.525341699831,2156.525341699831,2156.525341699831,2156.525341699831,2156.525341699831,2156.525341699831,2156.525341699831,2156.525341699831,2156.525341699831,2156.525341699831,2156.525341699831,2156.525341699831,2159.034570399672,2159.034570399672,2159.034570399672,2159.034570399672,2159.034570399672,58,53,41,40,58,64,4.0,1.3451935998164117,2160.3973372997716,2162.292485400103,,,,,,,,,129,f,1,2022-12-12_14h48.41.302,RL,2022.2.4,60.04538229599241,
1,59,0,59,0,,,,,,,,,,None,2162.292485400103,2162.292485400103,2162.292485400103,2162.292485400103,2162.292485400103,2162.292485400103,r,0.7731013000011444,2163.091571399942,2163.091571399942,2163.091571399942,2163.091571399942,2163.091571399942,2163.091571399942,2163.390009799972,2163.390009799972,2164.2873500999995,2164.2873500999995,2164.2873500999995,2164.2873500999995,2164.2873500999995,2164.2873500999995,2164.2873500999995,2164.2873500999995,2164.2873500999995,2164.2873500999995,2164.2873500999995,2164.2873500999995,2164.2873500999995,2164.2873500999995,2164.2873500999995,2164.2873500999995,2164.2873500999995,2166.796550999861,2166.796550999861,2166.796550999861,2166.796550999861,2166.796550999861,50,52,36,34,50,66,3.0,2.226448599714786,2169.04052839987,2170.786392400041,,,,,,,,,129,f,1,2022-12-12_14h48.41.302,RL,2022.2.4,60.04538229599241,
1,60,0,60,0,,,,,,,,,,None,2170.786392400041,2170.786392400041,2170.786392400041,2170.786392400041,2170.786392400041,2170.786392400041,r,0.8885073000565171,2171.7027170998044,2171.7027170998044,2171.7027170998044,2171.7027170998044,2171.7027170998044,2171.7027170998044,2172.0001328997314,2172.0001328997314,2173.2966273999773,2173.2966273999773,2173.2966273999773,2173.2966273999773,2173.2966273999773,2173.2966273999773,2173.2966273999773,2173.2966273999773,2173.2966273999773,2173.2966273999773,2173.2966273999773,2173.2966273999773,2173.2966273999773,2173.2966273999773,2173.2966273999773,2173.2966273999773,2173.2966273999773,2175.8054674998857,2175.8054674998857,2175.8054674998857,2175.8054674998857,2175.8054674998857,58,52,35,37,58,71,3.0,1.8606488998048007,2177.6836116998456,2179.2966113998555,,,,,,,,,129,f,1,2022-12-12_14h48.41.302,RL,2022.2.4,60.04538229599241,
1,61,0,61,0,,,,,,,,,,None,2179.2966113998555,2179.2966113998555,2179.2966113998555,2179.2966113998555,2179.2966113998555,2179.2966113998555,f,0.6679362999275327,2179.9962784000672,2179.9962784000672,2179.9962784000672,2179.9962784000672,2179.9962784000672,2179.9962784000672,2180.293991500046,2180.293991500046,2181.1746477000415,2181.1746477000415,2181.1746477000415,2181.1746477000415,2181.1746477000415,2181.1746477000415,2181.1746477000415,2181.1746477000415,2181.1746477000415,2181.1746477000415,2181.1746477000415,2181.1746477000415,2181.1746477000415,2181.1746477000415,2181.1746477000415,2181.1746477000415,2181.1746477000415,2183.6838688999414,2183.6838688999414,2183.6838688999414,2183.6838688999414,2183.6838688999414,54,52,41,36,52,19,4.0,1.9107699999585748,2185.611776900012,2187.5736980997026,,,,,,,,,129,f,1,2022-12-12_14h48.41.302,RL,2022.2.4,60.04538229599241,
1,62,0,62,0,,,,,,,,,,None,2187.5736980997026,2187.5736980997026,2187.5736980997026,2187.5736980997026,2187.5736980997026,2187.5736980997026,None,,,,,,,,,,,,,,,,,,,,,,,,,,,,,,,,59,54,34,37,0,**,None,None,2193.606713199988,2195.136460999958,2189.0920303999446,2193.606713199988,,,,,,,129,f,1,2022-12-12_14h48.41.302,RL,2022.2.4,60.04538229599241,
1,63,0,63,0,,,,,,,,,,None,2195.136460999958,2195.136460999958,2195.136460999958,2195.136460999958,2195.136460999958,2195.136460999958,f,0.6844329000450671,2195.8557251999155,2195.8557251999155,2195.8557251999155,2195.8557251999155,2195.8557251999155,2195.8557251999155,2196.150924900081,2196.150924900081,2197.729555199854,2197.729555199854,2197.746497299988,2197.746497299988,2197.746497299988,2197.746497299988,2197.746497299988,2197.746497299988,2197.746497299988,2197.746497299988,2197.746497299988,2197.746497299988,2197.746497299988,2197.746497299988,2197.746497299988,2197.746497299988,2197.746497299988,2200.2554448000155,2200.2554448000155,2200.2554448000155,2200.2554448000155,2200.2554448000155,58,55,37,33,55,69,3.0,2.6092439997009933,2202.881402600091,2204.76000789972,,,,,,,,,129,f,1,2022-12-12_14h48.41.302,RL,2022.2.4,60.04538229599241,
1,64,0,64,0,,,,,,,,,,None,2204.76000789972,2204.76000789972,2204.76000789972,2204.76000789972,2204.76000789972,2204.76000789972,f,0.7224126001819968,2205.5102324998006,2205.5102324998006,2205.5102324998006,2205.5102324998006,2205.5102324998006,2205.5102324998006,2205.8076149998233,2205.8076149998233,2207.6689709997736,2207.6689709997736,2207.6689709997736,2207.6689709997736,2207.6689709997736,2207.6689709997736,2207.6689709997736,2207.6689709997736,2207.6689709997736,2207.6689709997736,2207.6689709997736,2207.6689709997736,2207.6689709997736,2207.6689709997736,2207.6689709997736,2207.6689709997736,2207.6689709997736,2210.1781870000996,2210.1781870000996,2210.1781870000996,2210.1781870000996,2210.1781870000996,49,60,48,42,60,77,4.0,2.0431258999742568,2212.2397288996726,2214.118334800005,,,,,,,,,129,f,1,2022-12-12_14h48.41.302,RL,2022.2.4,60.04538229599241,
1,65,0,65,0,,,,,,,,,,None,2214.118334800005,2214.118334800005,2214.118334800005,2214.118334800005,2214.118334800005,2214.118334800005,f,0.5829977998510003,2214.7355287000537,2214.7355287000537,2214.7355287000537,2214.7355287000537,2214.7355287000537,2214.7355287000537,2215.033006799873,2215.033006799873,2217.0107251997106,2217.0107251997106,2217.0107251997106,2217.0107251997106,2217.0107251997106,2217.0107251997106,2217.0107251997106,2217.0107251997106,2217.0107251997106,2217.0107251997106,2217.0107251997106,2217.0107251997106,2217.0107251997106,2217.0107251997106,2217.0107251997106,2217.0107251997106,2217.0107251997106,2219.5197060001083,2219.5197060001083,2219.5197060001083,2219.5197060001083,2219.5197060001083,55,62,44,44,62,81,4.0,1.2954226001165807,2220.832261600066,2222.4451139001176,,,,,,,,,129,f,1,2022-12-12_14h48.41.302,RL,2022.2.4,60.04538229599241,
1,66,0,66,0,,,,,,,,,,None,2222.4451139001176,2222.4451139001176,2222.4451139001176,2222.4451139001176,2222.4451139001176,2222.4451139001176,f,0.9360740999691188,2223.41198850004,2223.41198850004,2223.41198850004,2223.41198850004,2223.41198850004,2223.41198850004,2223.7088186000474,2223.7088186000474,2224.8555414997973,2224.8555414997973,2224.8555414997973,2224.8555414997973,2224.8555414997973,2224.8555414997973,2224.8555414997973,2224.8555414997973,2224.8555414997973,2224.8555414997973,2224.8555414997973,2224.8555414997973,2224.8555414997973,2224.8555414997973,2224.8555414997973,2224.8555414997973,2224.8555414997973,2227.3644495001063,2227.3644495001063,2227.3644495001063,2227.3644495001063,2227.3644495001063,51,52,48,43,52,68,4.0,1.1791950003243983,2228.5615727999248,2230.540095199831,,,,,,,,,129,f,1,2022-12-12_14h48.41.302,RL,2022.2.4,60.04538229599241,
1,67,0,67,0,,,,,,,,,,None,2230.540095199831,2230.540095199831,2230.540095199831,2230.540095199831,2230.540095199831,2230.540095199831,f,0.4864372997544706,2231.0584160997532,2231.0584160997532,2231.0584160997532,2231.0584160997532,2231.0584160997532,2231.0584160997532,2231.354516599793,2231.354516599793,2232.434938599821,2232.434938599821,2232.434938599821,2232.434938599821,2232.434938599821,2232.434938599821,2232.434938599821,2232.434938599821,2232.434938599821,2232.434938599821,2232.434938599821,2232.434938599821,2232.434938599821,2232.434938599821,2232.434938599821,2232.434938599821,2232.434938599821,2234.943604500033,2234.943604500033,2234.943604500033,2234.943604500033,2234.943604500033,58,61,44,38,61,63,4.0,1.480101800058037,2236.4397535999306,2238.318422900047,,,,,,,,,129,f,1,2022-12-12_14h48.41.302,RL,2022.2.4,60.04538229599241,
1,68,0,68,0,,,,,,,,,,None,2238.318422900047,2238.318422900047,2238.318422900047,2238.318422900047,2238.318422900047,2238.318422900047,f,0.4642348000779748,2238.802497399971,2238.802497399971,2238.802497399971,2238.802497399971,2238.802497399971,2238.802497399971,2239.0998863000423,2239.0998863000423,2240.9785378999077,2240.9785378999077,2240.9785378999077,2240.9785378999077,2240.9785378999077,2240.9785378999077,2240.9785378999077,2240.9785378999077,2240.9785378999077,2240.9785378999077,2240.9785378999077,2240.9785378999077,2240.9785378999077,2240.9785378999077,2240.9785378999077,2240.9785378999077,2240.9785378999077,2243.4872171999887,2243.4872171999887,2243.4872171999887,2243.4872171999887,2243.4872171999887,54,58,45,37,58,59,4.0,2.210789800155908,2245.7144816000946,2247.261155199725,,,,,,,,,129,f,1,2022-12-12_14h48.41.302,RL,2022.2.4,60.04538229599241,
1,69,0,69,0,,,,,,,,,,None,2247.261155199725,2247.261155199725,2247.261155199725,2247.261155199725,2247.261155199725,2247.261155199725,f,0.5888423998840153,2247.8764554997906,2247.8764554997906,2247.8764554997906,2247.8764554997906,2247.8764554997906,2247.8764554997906,2248.1753330999054,2248.1753330999054,2249.1725435000844,2249.1725435000844,2249.1725435000844,2249.1725435000844,2249.1725435000844,2249.1725435000844,2249.1725435000844,2249.1725435000844,2249.1725435000844,2249.1725435000844,2249.1725435000844,2249.1725435000844,2249.1725435000844,2249.1725435000844,2249.1725435000844,2249.1725435000844,2249.1725435000844,2251.6816213000566,2251.6816213000566,2251.6816213000566,2251.6816213000566,2251.6816213000566,54,60,45,33,60,69,4.0,1.4619267000816762,2253.160811299924,2254.9731382997707,,,,,,,,,129,f,1,2022-12-12_14h48.41.302,RL,2022.2.4,60.04538229599241,
1,70,0,70,0,,,,,,,,,,None,2254.9731382997707,2254.9731382997707,2254.9731382997707,2254.9731382997707,2254.9731382997707,2254.9731382997707,None,,,,,,,,,,,,,,,,,,,,,,,,,,,,,,,,50,56,45,37,0,**,None,None,2260.9898048997857,2262.586074899882,2256.4901942000724,2260.9898048997857,,,,,,,129,f,1,2022-12-12_14h48.41.302,RL,2022.2.4,60.04538229599241,
1,71,0,71,0,,,,,,,,,,None,2262.586074899882,2262.586074899882,2262.586074899882,2262.586074899882,2262.586074899882,2262.586074899882,r,0.44984739972278476,2263.07271629991,2263.07271629991,2263.07271629991,2263.07271629991,2263.07271629991,2263.07271629991,2263.3671544999816,2263.3671544999816,2264.979553400073,2264.979553400073,2264.996288300026,2264.996288300026,2264.996288300026,2264.996288300026,2264.996288300026,2264.996288300026,2264.996288300026,2264.996288300026,2264.996288300026,2264.996288300026,2264.996288300026,2264.996288300026,2264.996288300026,2264.996288300026,2264.996288300026,2267.505159799941,2267.505159799941,2267.505159799941,2267.505159799941,2267.505159799941,47,49,44,39,47,71,4.0,1.1124571999534965,2268.635878799949,2270.4145986000076,,,,,,,,,129,f,1,2022-12-12_14h48.41.302,RL,2022.2.4,60.04538229599241,
1,72,0,72,0,,,,,,,,,,None,2270.4145986000076,2270.4145986000076,2270.4145986000076,2270.4145986000076,2270.4145986000076,2270.4145986000076,r,0.7871679998934269,2271.230903199874,2271.230903199874,2271.230903199874,2271.230903199874,2271.230903199874,2271.230903199874,2271.5284275999293,2271.5284275999293,2273.4893748001195,2273.4893748001195,2273.4893748001195,2273.4893748001195,2273.4893748001195,2273.4893748001195,2273.4893748001195,2273.4893748001195,2273.4893748001195,2273.4893748001195,2273.4893748001195,2273.4893748001195,2273.4893748001195,2273.4893748001195,2273.4893748001195,2273.4893748001195,2273.4893748001195,2275.998837399762,2275.998837399762,2275.998837399762,2275.998837399762,2275.998837399762,42,56,45,34,42,20,4.0,1.9434091998264194,2277.9600749998353,2279.8386153997853,,,,,,,,,129,f,1,2022-12-12_14h48.41.302,RL,2022.2.4,60.04538229599241,
1,73,0,73,0,,,,,,,,,,None,2279.8386153997853,2279.8386153997853,2279.8386153997853,2279.8386153997853,2279.8386153997853,2279.8386153997853,r,0.6757359001785517,2280.53714569984,2280.53714569984,2280.53714569984,2280.53714569984,2280.53714569984,2280.53714569984,2280.836581000127,2280.836581000127,2281.9329880001023,2281.9329880001023,2281.9329880001023,2281.9329880001023,2281.9329880001023,2281.9329880001023,2281.9329880001023,2281.9329880001023,2281.9329880001023,2281.9329880001023,2281.9329880001023,2281.9329880001023,2281.9329880001023,2281.9329880001023,2281.9329880001023,2281.9329880001023,2281.9329880001023,2284.442230499815,2284.442230499815,2284.442230499815,2284.442230499815,2284.442230499815,43,57,52,34,43,52,3.0,1.6440953998826444,2286.1041985000484,2287.8337149000727,,,,,,,,,129,f,1,2022-12-12_14h48.41.302,RL,2022.2.4,60.04538229599241,
1,74,0,74,0,,,,,,,,,,None,2287.8337149000727,2287.8337149000727,2287.8337149000727,2287.8337149000727,2287.8337149000727,2287.8337149000727,r,0.6357573000714183,2288.5006138999015,2288.5006138999015,2288.5006138999015,2288.5006138999015,2288.5006138999015,2288.5006138999015,2288.7980788997374,2288.7980788997374,2289.9614288997836,2289.9614288997836,2289.9614288997836,2289.9614288997836,2289.9614288997836,2289.9614288997836,2289.9614288997836,2289.9614288997836,2289.9614288997836,2289.9614288997836,2289.9614288997836,2289.9614288997836,2289.9614288997836,2289.9614288997836,2289.9614288997836,2289.9614288997836,2289.9614288997836,2292.4702709000558,2292.4702709000558,2292.4702709000558,2292.4702709000558,2292.4702709000558,41,46,46,36,41,66,3.0,0.6484279003925622,2293.1352758998983,2294.9474705997854,,,,,,,,,129,f,1,2022-12-12_14h48.41.302,RL,2022.2.4,60.04538229599241,
1,75,0,75,0,,,,,,,,,,q,2338.295942599885,2338.295942599885,2338.295942599885,2338.295942599885,2338.295942599885,2338.295942599885,r,0.954920900054276,2339.2809568997473,2339.2809568997473,2339.2809568997473,2339.2809568997473,2339.2809568997473,2339.2809568997473,2339.5761552997865,2339.5761552997865,2340.8226938997395,2340.8226938997395,2340.8393203997985,2340.8393203997985,2340.8393203997985,2340.8393203997985,2340.8393203997985,2340.8393203997985,2340.8393203997985,2340.8393203997985,2340.8393203997985,2340.8393203997985,2340.8393203997985,2340.8393203997985,2340.8393203997985,2340.8393203997985,2340.8393203997985,2343.3484893999994,2343.3484893999994,2343.3484893999994,2343.3484893999994,2343.3484893999994,45,52,49,34,45,63,3.0,1.4774545999243855,2344.844157299958,2346.5067451000214,,,2294.9474705997854,2294.9474705997854,43.3299696999602,,,,129,f,1,2022-12-12_14h48.41.302,RL,2022.2.4,60.04538229599241,
1,76,0,76,0,,,,,,,,,,None,2346.5067451000214,2346.5067451000214,2346.5067451000214,2346.5067451000214,2346.5067451000214,2346.5067451000214,f,0.47946420032531023,2347.0059639001265,2347.0059639001265,2347.0059639001265,2347.0059639001265,2347.0059639001265,2347.0059639001265,2347.3049837998115,2347.3049837998115,2349.2162031996995,2349.2162031996995,2349.2162031996995,2349.2162031996995,2349.2162031996995,2349.2162031996995,2349.2162031996995,2349.2162031996995,2349.2162031996995,2349.2162031996995,2349.2162031996995,2349.2162031996995,2349.2162031996995,2349.2162031996995,2349.2162031996995,2349.2162031996995,2349.2162031996995,2351.7255657999776,2351.7255657999776,2351.7255657999776,2351.7255657999776,2351.7255657999776,43,57,51,30,57,52,4.0,1.5962148001417518,2353.3378914999776,2355.2993044997565,,,,,,,,,129,f,1,2022-12-12_14h48.41.302,RL,2022.2.4,60.04538229599241,
1,77,0,77,0,,,,,,,,,,None,2355.2993044997565,2355.2993044997565,2355.2993044997565,2355.2993044997565,2355.2993044997565,2355.2993044997565,f,0.3856983999721706,2355.7164519997314,2355.7164519997314,2355.7164519997314,2355.7164519997314,2355.7164519997314,2355.7164519997314,2356.014451699797,2356.014451699797,2357.759981899988,2357.759981899988,2357.759981899988,2357.759981899988,2357.759981899988,2357.759981899988,2357.759981899988,2357.759981899988,2357.759981899988,2357.759981899988,2357.759981899988,2357.759981899988,2357.759981899988,2357.759981899988,2357.759981899988,2357.759981899988,2357.759981899988,2360.268586399965,2360.268586399965,2360.268586399965,2360.268586399965,2360.268586399965,36,54,42,30,54,61,4.0,1.2795746000483632,2361.565425799694,2363.3278115000576,,,,,,,,,129,f,1,2022-12-12_14h48.41.302,RL,2022.2.4,60.04538229599241,
1,78,0,78,0,,,,,,,,,,None,2363.3278115000576,2363.3278115000576,2363.3278115000576,2363.3278115000576,2363.3278115000576,2363.3278115000576,f,0.7965767998248339,2364.1431434997357,2364.1431434997357,2364.1431434997357,2364.1431434997357,2364.1431434997357,2364.1431434997357,2364.4416974000633,2364.4416974000633,2365.8373913997784,2365.8373913997784,2365.8373913997784,2365.8373913997784,2365.8373913997784,2365.8373913997784,2365.8373913997784,2365.8373913997784,2365.8373913997784,2365.8373913997784,2365.8373913997784,2365.8373913997784,2365.8373913997784,2365.8373913997784,2365.8373913997784,2365.8373913997784,2365.8373913997784,2368.3469195999205,2368.3469195999205,2368.3469195999205,2368.3469195999205,2368.3469195999205,38,51,47,27,51,55,4.0,0.6134267998859286,2368.978383400012,2370.840715299826,,,,,,,,,129,f,1,2022-12-12_14h48.41.302,RL,2022.2.4,60.04538229599241,
1,79,0,79,0,,,,,,,,,,None,2370.840715299826,2370.840715299826,2370.840715299826,2370.840715299826,2370.840715299826,2370.840715299826,f,0.5690748998895288,2371.440260899719,2371.440260899719,2371.440260899719,2371.440260899719,2371.440260899719,2371.440260899719,2371.7384441997856,2371.7384441997856,2373.0182233001105,2373.0182233001105,2373.0182233001105,2373.0182233001105,2373.0182233001105,2373.0182233001105,2373.0182233001105,2373.0182233001105,2373.0182233001105,2373.0182233001105,2373.0182233001105,2373.0182233001105,2373.0182233001105,2373.0182233001105,2373.0182233001105,2373.0182233001105,2373.0182233001105,2375.5271660997532,2375.5271660997532,2375.5271660997532,2375.5271660997532,2375.5271660997532,43,48,59,30,48,48,4.0,1.1456104000099003,2376.6904873996973,2378.536158300005,,,,,,,,,129,f,1,2022-12-12_14h48.41.302,RL,2022.2.4,60.04538229599241,
1,80,0,80,0,,,,,,,,,,None,2378.536158300005,2378.536158300005,2378.536158300005,2378.536158300005,2378.536158300005,2378.536158300005,f,0.7333082999102771,2379.303429099731,2379.303429099731,2379.303429099731,2379.303429099731,2379.303429099731,2379.303429099731,2379.600541799795,2379.600541799795,2380.863397100009,2380.863397100009,2380.863397100009,2380.863397100009,2380.863397100009,2380.863397100009,2380.863397100009,2380.863397100009,2380.863397100009,2380.863397100009,2380.863397100009,2380.863397100009,2380.863397100009,2380.863397100009,2380.863397100009,2380.863397100009,2380.863397100009,2383.372434699908,2383.372434699908,2383.372434699908,2383.372434699908,2383.372434699908,38,50,61,32,50,6,5.0,1.3952367003075778,2384.7852957998402,2386.5474902996793,,,,,,,,,129,f,1,2022-12-12_14h48.41.302,RL,2022.2.4,60.04538229599241,
1,81,0,81,0,,,,,,,,,,None,2386.5474902996793,2386.5474902996793,2386.5474902996793,2386.5474902996793,2386.5474902996793,2386.5474902996793,f,0.6072253002785146,2387.181973699946,2387.181973699946,2387.181973699946,2387.181973699946,2387.181973699946,2387.181973699946,2387.4785861996934,2387.4785861996934,2388.575595600065,2388.575595600065,2388.575595600065,2388.575595600065,2388.575595600065,2388.575595600065,2388.575595600065,2388.575595600065,2388.575595600065,2388.575595600065,2388.575595600065,2388.575595600065,2388.575595600065,2388.575595600065,2388.575595600065,2388.575595600065,2388.575595600065,2391.0846265996806,2391.0846265996806,2391.0846265996806,2391.0846265996806,2391.0846265996806,41,61,54,39,61,55,5.0,0.6146967997774482,2391.7161841997877,2393.662010099739,,,,,,,,,129,f,1,2022-12-12_14h48.41.302,RL,2022.2.4,60.04538229599241,
1,82,0,82,0,,,,,,,,,,None,2393.662010099739,2393.662010099739,2393.662010099739,2393.662010099739,2393.662010099739,2393.662010099739,f,0.6884282999671996,2394.376956799999,2394.376956799999,2394.376956799999,2394.376956799999,2394.376956799999,2394.376956799999,2394.6762616997585,2394.6762616997585,2395.7226813999005,2395.7226813999005,2395.7226813999005,2395.7226813999005,2395.7226813999005,2395.7226813999005,2395.7226813999005,2395.7226813999005,2395.7226813999005,2395.7226813999005,2395.7226813999005,2395.7226813999005,2395.7226813999005,2395.7226813999005,2395.7226813999005,2395.7226813999005,2395.7226813999005,2398.231800499838,2398.231800499838,2398.231800499838,2398.231800499838,2398.231800499838,36,50,56,32,50,67,4.0,0.9131787000223994,2399.162537599914,2400.875068400055,,,,,,,,,129,f,1,2022-12-12_14h48.41.302,RL,2022.2.4,60.04538229599241,
1,83,0,83,0,,,,,,,,,,None,2400.875068400055,2400.875068400055,2400.875068400055,2400.875068400055,2400.875068400055,2400.875068400055,f,0.6113049001432955,2401.509066300001,2401.509066300001,2401.509066300001,2401.509066300001,2401.509066300001,2401.509066300001,2401.8065090999007,2401.8065090999007,2402.9698553998023,2402.9698553998023,2402.9698553998023,2402.9698553998023,2402.9698553998023,2402.9698553998023,2402.9698553998023,2402.9698553998023,2402.9698553998023,2402.9698553998023,2402.9698553998023,2402.9698553998023,2402.9698553998023,2402.9698553998023,2402.9698553998023,2402.9698553998023,2402.9698553998023,2405.4789419998415,2405.4789419998415,2405.4789419998415,2405.4789419998415,2405.4789419998415,36,59,61,35,59,35,5.0,0.9130588001571596,2406.4098848998547,2408.2720276997425,,,,,,,,,129,f,1,2022-12-12_14h48.41.302,RL,2022.2.4,60.04538229599241,
1,84,0,84,0,,,,,,,,,,None,2408.2720276997425,2408.2720276997425,2408.2720276997425,2408.2720276997425,2408.2720276997425,2408.2720276997425,f,0.5948787997476757,2408.8872190997936,2408.8872190997936,2408.8872190997936,2408.8872190997936,2408.8872190997936,2408.8872190997936,2409.186049199663,2409.186049199663,2410.2165059000254,2410.2165059000254,2410.2165059000254,2410.2165059000254,2410.2165059000254,2410.2165059000254,2410.2165059000254,2410.2165059000254,2410.2165059000254,2410.2165059000254,2410.2165059000254,2410.2165059000254,2410.2165059000254,2410.2165059000254,2410.2165059000254,2410.2165059000254,2410.2165059000254,2412.725668099709,2412.725668099709,2412.725668099709,2412.725668099709,2412.725668099709,37,58,56,32,58,47,5.0,0.6967076002620161,2413.440299899783,2414.986506300047,,,,,,,,,129,f,1,2022-12-12_14h48.41.302,RL,2022.2.4,60.04538229599241,
1,85,0,85,0,,,,,,,,,,None,2414.986506300047,2414.986506300047,2414.986506300047,2414.986506300047,2414.986506300047,2414.986506300047,f,0.6869032001122832,2415.7039457997307,2415.7039457997307,2415.7039457997307,2415.7039457997307,2415.7039457997307,2415.7039457997307,2416.0010563000105,2416.0010563000105,2416.84871699987,2416.84871699987,2416.84871699987,2416.84871699987,2416.84871699987,2416.84871699987,2416.84871699987,2416.84871699987,2416.84871699987,2416.84871699987,2416.84871699987,2416.84871699987,2416.84871699987,2416.84871699987,2416.84871699987,2416.84871699987,2416.84871699987,2419.3578339000233,2419.3578339000233,2419.3578339000233,2419.3578339000233,2419.3578339000233,29,51,52,39,51,67,4.0,1.0798585996963084,2420.4545980999246,2422.28350530006,,,,,,,,,129,f,1,2022-12-12_14h48.41.302,RL,2022.2.4,60.04538229599241,
1,86,0,86,0,,,,,,,,,,None,2422.28350530006,2422.28350530006,2422.28350530006,2422.28350530006,2422.28350530006,2422.28350530006,f,0.47976280003786087,2422.782738099806,2422.782738099806,2422.782738099806,2422.782738099806,2422.782738099806,2422.782738099806,2423.0818483997136,2423.0818483997136,2424.726958400104,2424.726958400104,2424.726958400104,2424.726958400104,2424.726958400104,2424.726958400104,2424.726958400104,2424.726958400104,2424.726958400104,2424.726958400104,2424.726958400104,2424.726958400104,2424.726958400104,2424.726958400104,2424.726958400104,2424.726958400104,2424.726958400104,2427.2363056996837,2427.2363056996837,2427.2363056996837,2427.2363056996837,2427.2363056996837,33,50,60,40,50,65,3.0,1.445708000101149,2428.6988001000136,2430.61112569971,,,,,,,,,129,f,1,2022-12-12_14h48.41.302,RL,2022.2.4,60.04538229599241,
1,87,0,87,0,,,,,,,,,,None,2430.61112569971,2430.61112569971,2430.61112569971,2430.61112569971,2430.61112569971,2430.61112569971,f,0.5465242997743189,2431.1787955998443,2431.1787955998443,2431.1787955998443,2431.1787955998443,2431.1787955998443,2431.1787955998443,2431.4754657000303,2431.4754657000303,2432.9547342997976,2432.9547342997976,2432.97129879985,2432.97129879985,2432.97129879985,2432.97129879985,2432.97129879985,2432.97129879985,2432.97129879985,2432.97129879985,2432.97129879985,2432.97129879985,2432.97129879985,2432.97129879985,2432.97129879985,2432.97129879985,2432.97129879985,2435.480446400121,2435.480446400121,2435.480446400121,2435.480446400121,2435.480446400121,37,57,57,46,57,66,4.0,1.644511400256306,2437.1423084000126,2438.987654299941,,,,,,,,,129,f,1,2022-12-12_14h48.41.302,RL,2022.2.4,60.04538229599241,
1,88,0,88,0,,,,,,,,,,None,2438.987654299941,2438.987654299941,2438.987654299941,2438.987654299941,2438.987654299941,2438.987654299941,r,0.48967730021104217,2439.5043015996926,2439.5043015996926,2439.5043015996926,2439.5043015996926,2439.5043015996926,2439.5043015996926,2439.8030685996637,2439.8030685996637,2441.7140985997394,2441.7140985997394,2441.7140985997394,2441.7140985997394,2441.7140985997394,2441.7140985997394,2441.7140985997394,2441.7140985997394,2441.7140985997394,2441.7140985997394,2441.7140985997394,2441.7140985997394,2441.7140985997394,2441.7140985997394,2441.7140985997394,2441.7140985997394,2441.7140985997394,2444.2229776000604,2444.2229776000604,2444.2229776000604,2444.2229776000604,2444.2229776000604,34,61,59,36,34,58,3.0,1.3954795999452472,2445.636130699888,2447.2152967997827,,,,,,,,,129,f,1,2022-12-12_14h48.41.302,RL,2022.2.4,60.04538229599241,
1,89,0,89,0,,,,,,,,,,None,2447.2152967997827,2447.2152967997827,2447.2152967997827,2447.2152967997827,2447.2152967997827,2447.2152967997827,f,0.6056435001082718,2447.85009610001,2447.85009610001,2447.85009610001,2447.85009610001,2447.85009610001,2447.85009610001,2448.1466469001025,2448.1466469001025,2450.140655499883,2450.140655499883,2450.1578627000563,2450.1578627000563,2450.1578627000563,2450.1578627000563,2450.1578627000563,2450.1578627000563,2450.1578627000563,2450.1578627000563,2450.1578627000563,2450.1578627000563,2450.1578627000563,2450.1578627000563,2450.1578627000563,2450.1578627000563,2450.1578627000563,2452.6665407996625,2452.6665407996625,2452.6665407996625,2452.6665407996625,2452.6665407996625,38,60,66,38,60,45,4.0,0.7326030996628106,2453.414559799712,2455.1769014000893,,,,,,,,,129,f,1,2022-12-12_14h48.41.302,RL,2022.2.4,60.04538229599241,
1,90,0,90,0,,,,,,,,,,None,2455.1769014000893,2455.1769014000893,2455.1769014000893,2455.1769014000893,2455.1769014000893,2455.1769014000893,f,0.3838627999648452,2455.5932554998435,2455.5932554998435,2455.5932554998435,2455.5932554998435,2455.5932554998435,2455.5932554998435,2455.892082300037,2455.892082300037,2457.8204846996814,2457.8204846996814,2457.8204846996814,2457.8204846996814,2457.8204846996814,2457.8204846996814,2457.8204846996814,2457.8204846996814,2457.8204846996814,2457.8204846996814,2457.8204846996814,2457.8204846996814,2457.8204846996814,2457.8204846996814,2457.8204846996814,2457.8204846996814,2457.8204846996814,2460.3289914997295,2460.3289914997295,2460.3289914997295,2460.3289914997295,2460.3289914997295,42,56,71,43,56,44,4.0,0.8130805999971926,2461.160379699897,2462.8060753997415,,,,,,,,,129,f,1,2022-12-12_14h48.41.302,RL,2022.2.4,60.04538229599241,
1,91,0,91,0,,,,,,,,,,None,2462.8060753997415,2462.8060753997415,2462.8060753997415,2462.8060753997415,2462.8060753997415,2462.8060753997415,f,0.38006599992513657,2463.208650399931,2463.208650399931,2463.208650399931,2463.208650399931,2463.208650399931,2463.208650399931,2463.504582399968,2463.504582399968,2464.7675834996626,2464.7675834996626,2464.7675834996626,2464.7675834996626,2464.7675834996626,2464.7675834996626,2464.7675834996626,2464.7675834996626,2464.7675834996626,2464.7675834996626,2464.7675834996626,2464.7675834996626,2464.7675834996626,2464.7675834996626,2464.7675834996626,2464.7675834996626,2464.7675834996626,2467.2769542997703,2467.2769542997703,2467.2769542997703,2467.2769542997703,2467.2769542997703,37,47,68,43,47,64,3.0,0.8467347999103367,2468.141336400062,2470.0036283000372,,,,,,,,,129,f,1,2022-12-12_14h48.41.302,RL,2022.2.4,60.04538229599241,
1,92,0,92,0,,,,,,,,,,None,2470.0036283000372,2470.0036283000372,2470.0036283000372,2470.0036283000372,2470.0036283000372,2470.0036283000372,f,0.5677127996459603,2470.6046420000494,2470.6046420000494,2470.6046420000494,2470.6046420000494,2470.6046420000494,2470.6046420000494,2470.9013185999356,2470.9013185999356,2472.097924000118,2472.097924000118,2472.097924000118,2472.097924000118,2472.097924000118,2472.097924000118,2472.097924000118,2472.097924000118,2472.097924000118,2472.097924000118,2472.097924000118,2472.097924000118,2472.097924000118,2472.097924000118,2472.097924000118,2472.097924000118,2472.097924000118,2474.606819800101,2474.606819800101,2474.606819800101,2474.606819800101,2474.606819800101,32,50,73,33,50,37,4.0,0.6470600999891758,2475.2715922999196,2476.8513698996976,,,,,,,,,129,f,1,2022-12-12_14h48.41.302,RL,2022.2.4,60.04538229599241,
1,93,0,93,0,,,,,,,,,,None,2476.8513698996976,2476.8513698996976,2476.8513698996976,2476.8513698996976,2476.8513698996976,2476.8513698996976,f,0.35648859990760684,2477.2353856996633,2477.2353856996633,2477.2353856996633,2477.2353856996633,2477.2353856996633,2477.2353856996633,2477.5329515999183,2477.5329515999183,2478.879021800123,2478.879021800123,2478.879021800123,2478.879021800123,2478.879021800123,2478.879021800123,2478.879021800123,2478.879021800123,2478.879021800123,2478.879021800123,2478.879021800123,2478.879021800123,2478.879021800123,2478.879021800123,2478.879021800123,2478.879021800123,2478.879021800123,2481.3883552998304,2481.3883552998304,2481.3883552998304,2481.3883552998304,2481.3883552998304,36,41,62,40,41,64,3.0,1.1961758001707494,2482.601808699779,2484.1148657999,,,,,,,,,129,f,1,2022-12-12_14h48.41.302,RL,2022.2.4,60.04538229599241,
1,94,0,94,0,,,,,,,,,,None,2484.1148657999,2484.1148657999,2484.1148657999,2484.1148657999,2484.1148657999,2484.1148657999,f,0.7025586003437638,2484.846769900061,2484.846769900061,2484.846769900061,2484.846769900061,2484.846769900061,2484.846769900061,2485.1455524996854,2485.1455524996854,2486.2762277000584,2486.2762277000584,2486.2762277000584,2486.2762277000584,2486.2762277000584,2486.2762277000584,2486.2762277000584,2486.2762277000584,2486.2762277000584,2486.2762277000584,2486.2762277000584,2486.2762277000584,2486.2762277000584,2486.2762277000584,2486.2762277000584,2486.2762277000584,2486.2762277000584,2488.784607300069,2488.784607300069,2488.784607300069,2488.784607300069,2488.784607300069,36,40,66,41,40,61,3.0,0.6469461000524461,2489.4499097000808,2491.1627344000153,,,,,,,,,129,f,1,2022-12-12_14h48.41.302,RL,2022.2.4,60.04538229599241,
1,95,0,95,0,,,,,,,,,,None,2491.1627344000153,2491.1627344000153,2491.1627344000153,2491.1627344000153,2491.1627344000153,2491.1627344000153,f,0.5112390997819602,2491.6955699999817,2491.6955699999817,2491.6955699999817,2491.6955699999817,2491.6955699999817,2491.6955699999817,2491.9935627998784,2491.9935627998784,2492.924605899956,2492.924605899956,2492.924605899956,2492.924605899956,2492.924605899956,2492.924605899956,2492.924605899956,2492.924605899956,2492.924605899956,2492.924605899956,2492.924605899956,2492.924605899956,2492.924605899956,2492.924605899956,2492.924605899956,2492.924605899956,2492.924605899956,2495.433742699679,2495.433742699679,2495.433742699679,2495.433742699679,2495.433742699679,33,45,74,40,45,70,3.0,0.6966670001856983,2496.148390199989,2498.026582600083,,,,,,,,,129,f,1,2022-12-12_14h48.41.302,RL,2022.2.4,60.04538229599241,
1,96,0,96,0,,,,,,,,,,None,2498.026582600083,2498.026582600083,2498.026582600083,2498.026582600083,2498.026582600083,2498.026582600083,f,0.6327732000499964,2498.6949022999033,2498.6949022999033,2498.6949022999033,2498.6949022999033,2498.6949022999033,2498.6949022999033,2498.991350799799,2498.991350799799,2500.5869235000573,2500.5869235000573,2500.5869235000573,2500.5869235000573,2500.5869235000573,2500.5869235000573,2500.5869235000573,2500.5869235000573,2500.5869235000573,2500.5869235000573,2500.5869235000573,2500.5869235000573,2500.5869235000573,2500.5869235000573,2500.5869235000573,2500.5869235000573,2500.5869235000573,2503.095835399814,2503.095835399814,2503.095835399814,2503.095835399814,2503.095835399814,38,36,65,35,36,51,2.0,1.2455261000432074,2504.3592782998458,2506.1213135998696,,,,,,,,,129,f,1,2022-12-12_14h48.41.302,RL,2022.2.4,60.04538229599241,
1,97,0,97,0,,,,,,,,,,None,2506.1213135998696,2506.1213135998696,2506.1213135998696,2506.1213135998696,2506.1213135998696,2506.1213135998696,f,0.48218819964677095,2506.6394881000742,2506.6394881000742,2506.6394881000742,2506.6394881000742,2506.6394881000742,2506.6394881000742,2506.9360902998596,2506.9360902998596,2507.933142699767,2507.933142699767,2507.933142699767,2507.933142699767,2507.933142699767,2507.933142699767,2507.933142699767,2507.933142699767,2507.933142699767,2507.933142699767,2507.933142699767,2507.933142699767,2507.933142699767,2507.933142699767,2507.933142699767,2507.933142699767,2507.933142699767,2510.442306699697,2510.442306699697,2510.442306699697,2510.442306699697,2510.442306699697,34,36,85,40,36,45,2.0,1.1632960001006722,2511.622618000023,2513.335013399832,,,,,,,,,129,f,1,2022-12-12_14h48.41.302,RL,2022.2.4,60.04538229599241,
1,98,0,98,0,,,,,,,,,,None,2513.335013399832,2513.335013399832,2513.335013399832,2513.335013399832,2513.335013399832,2513.335013399832,i,0.3898080000653863,2513.7546581998467,2513.7546581998467,2513.7546581998467,2513.7546581998467,2513.7546581998467,2513.7546581998467,2514.049853200093,2514.049853200093,2515.4793679998256,2515.4793679998256,2515.4793679998256,2515.4793679998256,2515.4793679998256,2515.4793679998256,2515.4793679998256,2515.4793679998256,2515.4793679998256,2515.4793679998256,2515.4793679998256,2515.4793679998256,2515.4793679998256,2515.4793679998256,2515.4793679998256,2515.4793679998256,2515.4793679998256,2517.9887387999333,2517.9887387999333,2517.9887387999333,2517.9887387999333,2517.9887387999333,33,33,72,37,72,62,4.0,1.2122482997365296,2519.218541499693,2520.9977783998474,,,,,,,,,129,f,1,2022-12-12_14h48.41.302,RL,2022.2.4,60.04538229599241,
1,99,0,99,0,,,,,,,,,,None,2520.9977783998474,2520.9977783998474,2520.9977783998474,2520.9977783998474,2520.9977783998474,2520.9977783998474,i,0.4220317997969687,2521.4472753000446,2521.4472753000446,2521.4472753000446,2521.4472753000446,2521.4472753000446,2521.4472753000446,2521.745601899922,2521.745601899922,2523.723439599853,2523.723439599853,2523.723439599853,2523.723439599853,2523.723439599853,2523.723439599853,2523.723439599853,2523.723439599853,2523.723439599853,2523.723439599853,2523.723439599853,2523.723439599853,2523.723439599853,2523.723439599853,2523.723439599853,2523.723439599853,2523.723439599853,2526.2325760000385,2526.2325760000385,2526.2325760000385,2526.2325760000385,2526.2325760000385,40,41,65,33,65,57,4.0,1.3791600000113249,2527.6287099998444,2529.5573154999875,,,,,,,,,129,f,1,2022-12-12_14h48.41.302,RL,2022.2.4,60.04538229599241,
1,100,0,100,0,,,,,,,,,,None,2529.5573154999875,2529.5573154999875,2529.5573154999875,2529.5573154999875,2529.5573154999875,2529.5573154999875,i,0.3959248000755906,2529.9747656998225,2529.9747656998225,2529.9747656998225,2529.9747656998225,2529.9747656998225,2529.9747656998225,2530.27293560002,2530.27293560002,2531.668731200043,2531.668731200043,2531.668731200043,2531.668731200043,2531.668731200043,2531.668731200043,2531.668731200043,2531.668731200043,2531.668731200043,2531.668731200043,2531.668731200043,2531.668731200043,2531.668731200043,2531.668731200043,2531.668731200043,2531.668731200043,2531.668731200043,2534.1778207998723,2534.1778207998723,2534.1778207998723,2534.1778207998723,2534.1778207998723,43,31,79,35,79,34,5.0,0.996159200090915,2535.1917968001217,2537.0040192999877,,,,,,,,,129,f,1,2022-12-12_14h48.41.302,RL,2022.2.4,60.04538229599241,
1,101,0,101,0,,,,,,,,,,None,2537.0040192999877,2537.0040192999877,2537.0040192999877,2537.0040192999877,2537.0040192999877,2537.0040192999877,i,0.36546939983963966,2537.4070752998814,2537.4070752998814,2537.4070752998814,2537.4070752998814,2537.4070752998814,2537.4070752998814,2537.702603999991,2537.702603999991,2539.0158029999584,2539.0158029999584,2539.0158029999584,2539.0158029999584,2539.0158029999584,2539.0158029999584,2539.0158029999584,2539.0158029999584,2539.0158029999584,2539.0158029999584,2539.0158029999584,2539.0158029999584,2539.0158029999584,2539.0158029999584,2539.0158029999584,2539.0158029999584,2539.0158029999584,2541.524478400126,2541.524478400126,2541.524478400126,2541.524478400126,2541.524478400126,47,40,63,32,63,57,5.0,0.6305988999083638,2542.172653600108,2543.7686962001026,,,,,,,,,129,f,1,2022-12-12_14h48.41.302,RL,2022.2.4,60.04538229599241,
1,102,0,102,0,,,,,,,,,,None,2543.7686962001026,2543.7686962001026,2543.7686962001026,2543.7686962001026,2543.7686962001026,2543.7686962001026,i,0.3575213002040982,2544.152673199773,2544.152673199773,2544.152673199773,2544.152673199773,2544.152673199773,2544.152673199773,2544.4507113997824,2544.4507113997824,2545.8466284000315,2545.8466284000315,2545.8630293998867,2545.8630293998867,2545.8630293998867,2545.8630293998867,2545.8630293998867,2545.8630293998867,2545.8630293998867,2545.8630293998867,2545.8630293998867,2545.8630293998867,2545.8630293998867,2545.8630293998867,2545.8630293998867,2545.8630293998867,2545.8630293998867,2548.372322199866,2548.372322199866,2548.372322199866,2548.372322199866,2548.372322199866,41,31,65,30,65,53,5.0,0.46456059999763966,2548.8543862998486,2550.500726599712,,,,,,,,,129,f,1,2022-12-12_14h48.41.302,RL,2022.2.4,60.04538229599241,
1,103,0,103,0,,,,,,,,,,None,2550.500726599712,2550.500726599712,2550.500726599712,2550.500726599712,2550.500726599712,2550.500726599712,i,0.6844051997177303,2551.217466800008,2551.217466800008,2551.217466800008,2551.217466800008,2551.217466800008,2551.217466800008,2551.51484829979,2551.51484829979,2553.509258199949,2553.509258199949,2553.509258199949,2553.509258199949,2553.509258199949,2553.509258199949,2553.509258199949,2553.509258199949,2553.509258199949,2553.509258199949,2553.509258199949,2553.509258199949,2553.509258199949,2553.509258199949,2553.509258199949,2553.509258199949,2553.509258199949,2556.01815290004,2556.01815290004,2556.01815290004,2556.01815290004,2556.01815290004,50,40,62,40,62,61,4.0,0.7150273998267949,2556.749508399982,2558.2790505997837,,,,,,,,,129,f,1,2022-12-12_14h48.41.302,RL,2022.2.4,60.04538229599241,
1,104,0,104,0,,,,,,,,,,None,2558.2790505997837,2558.2790505997837,2558.2790505997837,2558.2790505997837,2558.2790505997837,2558.2790505997837,i,0.660610199905932,2558.96451669978,2558.96451669978,2558.96451669978,2558.96451669978,2558.96451669978,2558.96451669978,2559.2603572998196,2559.2603572998196,2560.190953399986,2560.190953399986,2560.190953399986,2560.190953399986,2560.190953399986,2560.190953399986,2560.190953399986,2560.190953399986,2560.190953399986,2560.190953399986,2560.190953399986,2560.190953399986,2560.190953399986,2560.190953399986,2560.190953399986,2560.190953399986,2560.190953399986,2562.6997726000845,2562.6997726000845,2562.6997726000845,2562.6997726000845,2562.6997726000845,43,39,59,36,59,57,4.0,0.5141761000268161,2563.231654900126,2565.210281800013,,,,,,,,,129,f,1,2022-12-12_14h48.41.302,RL,2022.2.4,60.04538229599241,
1,105,0,105,0,,,,,,,,,,None,2565.210281800013,2565.210281800013,2565.210281800013,2565.210281800013,2565.210281800013,2565.210281800013,i,0.4208961999975145,2565.6596423997544,2565.6596423997544,2565.6596423997544,2565.6596423997544,2565.6596423997544,2565.6596423997544,2565.958469199948,2565.958469199948,2567.3215206000023,2567.3215206000023,2567.3215206000023,2567.3215206000023,2567.3215206000023,2567.3215206000023,2567.3215206000023,2567.3215206000023,2567.3215206000023,2567.3215206000023,2567.3215206000023,2567.3215206000023,2567.3215206000023,2567.3215206000023,2567.3215206000023,2567.3215206000023,2567.3215206000023,2569.830604699906,2569.830604699906,2569.830604699906,2569.830604699906,2569.830604699906,42,36,61,37,61,33,5.0,0.7798946998082101,2570.6280231000856,2572.6232074000873,,,,,,,,,129,f,1,2022-12-12_14h48.41.302,RL,2022.2.4,60.04538229599241,
1,106,0,106,0,,,,,,,,,,None,2572.6232074000873,2572.6232074000873,2572.6232074000873,2572.6232074000873,2572.6232074000873,2572.6232074000873,i,0.44263669988140464,2573.08942369977,2573.08942369977,2573.08942369977,2573.08942369977,2573.08942369977,2573.08942369977,2573.3881842996925,2573.3881842996925,2574.817467200104,2574.817467200104,2574.817467200104,2574.817467200104,2574.817467200104,2574.817467200104,2574.817467200104,2574.817467200104,2574.817467200104,2574.817467200104,2574.817467200104,2574.817467200104,2574.817467200104,2574.817467200104,2574.817467200104,2574.817467200104,2574.817467200104,2577.326504299883,2577.326504299883,2577.326504299883,2577.326504299883,2577.326504299883,40,29,57,37,57,29,5.0,0.9299727999605238,2578.2743025999516,2580.053107299842,,,,,,,,,129,f,1,2022-12-12_14h48.41.302,RL,2022.2.4,60.04538229599241,
1,107,0,107,0,,,,,,,,,,None,2580.053107299842,2580.053107299842,2580.053107299842,2580.053107299842,2580.053107299842,2580.053107299842,i,0.33332049986347556,2580.4222301999107,2580.4222301999107,2580.4222301999107,2580.4222301999107,2580.4222301999107,2580.4222301999107,2580.7184454998933,2580.7184454998933,2582.4631320000626,2582.4631320000626,2582.48021780001,2582.48021780001,2582.48021780001,2582.48021780001,2582.48021780001,2582.48021780001,2582.48021780001,2582.48021780001,2582.48021780001,2582.48021780001,2582.48021780001,2582.48021780001,2582.48021780001,2582.48021780001,2582.48021780001,2584.988915000111,2584.988915000111,2584.988915000111,2584.988915000111,2584.988915000111,41,40,68,25,68,65,4.0,0.6304489998146892,2585.637269299943,2587.482718199957,,,,,,,,,129,f,1,2022-12-12_14h48.41.302,RL,2022.2.4,60.04538229599241,
1,108,0,108,0,,,,,,,,,,None,2587.482718199957,2587.482718199957,2587.482718199957,2587.482718199957,2587.482718199957,2587.482718199957,i,0.3537967000156641,2587.8697266001254,2587.8697266001254,2587.8697266001254,2587.8697266001254,2587.8697266001254,2587.8697266001254,2588.1648424998857,2588.1648424998857,2590.1422025999054,2590.1422025999054,2590.1422025999054,2590.1422025999054,2590.1422025999054,2590.1422025999054,2590.1422025999054,2590.1422025999054,2590.1422025999054,2590.1422025999054,2590.1422025999054,2590.1422025999054,2590.1422025999054,2590.1422025999054,2590.1422025999054,2590.1422025999054,2590.1422025999054,2592.651879800018,2592.651879800018,2592.651879800018,2592.651879800018,2592.651879800018,53,31,60,27,60,65,4.0,1.3789710998535156,2594.0477221999317,2595.793414399959,,,,,,,,,129,f,1,2022-12-12_14h48.41.302,RL,2022.2.4,60.04538229599241,
1,109,0,109,0,,,,,,,,,,None,2595.793414399959,2595.793414399959,2595.793414399959,2595.793414399959,2595.793414399959,2595.793414399959,i,0.34755360009148717,2596.1625548000447,2596.1625548000447,2596.1625548000447,2596.1625548000447,2596.1625548000447,2596.1625548000447,2596.458442499861,2596.458442499861,2597.671824600082,2597.671824600082,2597.671824600082,2597.671824600082,2597.671824600082,2597.671824600082,2597.671824600082,2597.671824600082,2597.671824600082,2597.671824600082,2597.671824600082,2597.671824600082,2597.671824600082,2597.671824600082,2597.671824600082,2597.671824600082,2597.671824600082,2600.181206199806,2600.181206199806,2600.181206199806,2600.181206199806,2600.181206199806,45,35,64,31,64,28,5.0,1.362395899835974,2601.5605373000726,2603.090472799726,,,,,,,,,129,f,1,2022-12-12_14h48.41.302,RL,2022.2.4,60.04538229599241,
1,110,0,110,0,,,,,,,,,,None,2603.090472799726,2603.090472799726,2603.090472799726,2603.090472799726,2603.090472799726,2603.090472799726,i,0.36505100037902594,2603.4752825000323,2603.4752825000323,2603.4752825000323,2603.4752825000323,2603.4752825000323,2603.4752825000323,2603.772376799956,2603.772376799956,2605.3011753996834,2605.3011753996834,2605.3178566000424,2605.3178566000424,2605.3178566000424,2605.3178566000424,2605.3178566000424,2605.3178566000424,2605.3178566000424,2605.3178566000424,2605.3178566000424,2605.3178566000424,2605.3178566000424,2605.3178566000424,2605.3178566000424,2605.3178566000424,2605.3178566000424,2607.8267047000118,2607.8267047000118,2607.8267047000118,2607.8267047000118,2607.8267047000118,52,33,60,29,60,32,5.0,0.9950307998806238,2608.8407763000578,2610.802344799973,,,,,,,,,129,f,1,2022-12-12_14h48.41.302,RL,2022.2.4,60.04538229599241,
1,111,0,111,0,,,,,,,,,,None,2610.802344799973,2610.802344799973,2610.802344799973,2610.802344799973,2610.802344799973,2610.802344799973,i,0.8169669001363218,2611.6548135001212,2611.6548135001212,2611.6548135001212,2611.6548135001212,2611.6548135001212,2611.6548135001212,2611.949955199845,2611.949955199845,2613.428684399929,2613.428684399929,2613.4453453999013,2613.4453453999013,2613.4453453999013,2613.4453453999013,2613.4453453999013,2613.4453453999013,2613.4453453999013,2613.4453453999013,2613.4453453999013,2613.4453453999013,2613.4453453999013,2613.4453453999013,2613.4453453999013,2613.4453453999013,2613.4453453999013,2615.954543000087,2615.954543000087,2615.954543000087,2615.954543000087,2615.954543000087,50,30,55,24,55,59,4.0,1.079453700222075,2617.051681799814,2618.880748500116,,,,,,,,,129,f,1,2022-12-12_14h48.41.302,RL,2022.2.4,60.04538229599241,
1,112,0,112,0,,,,,,,,,,None,2618.880748500116,2618.880748500116,2618.880748500116,2618.880748500116,2618.880748500116,2618.880748500116,i,0.5087048001587391,2619.4146122997627,2619.4146122997627,2619.4146122997627,2619.4146122997627,2619.4146122997627,2619.4146122997627,2619.7121306997724,2619.7121306997724,2620.90843319986,2620.90843319986,2620.90843319986,2620.90843319986,2620.90843319986,2620.90843319986,2620.90843319986,2620.90843319986,2620.90843319986,2620.90843319986,2620.90843319986,2620.90843319986,2620.90843319986,2620.90843319986,2620.90843319986,2620.90843319986,2620.90843319986,2623.4176850998774,2623.4176850998774,2623.4176850998774,2623.4176850998774,2623.4176850998774,57,36,64,30,64,55,4.0,1.1128055998124182,2624.5476330998354,2626.4929386996664,,,,,,,,,129,f,1,2022-12-12_14h48.41.302,RL,2022.2.4,60.04538229599241,
1,113,0,113,0,,,,,,,,,,None,2626.4929386996664,2626.4929386996664,2626.4929386996664,2626.4929386996664,2626.4929386996664,2626.4929386996664,i,1.0061966995708644,2627.5254132999107,2627.5254132999107,2627.5254132999107,2627.5254132999107,2627.5254132999107,2627.5254132999107,2627.8228523000143,2627.8228523000143,2628.93706799997,2628.93706799997,2628.93706799997,2628.93706799997,2628.93706799997,2628.93706799997,2628.93706799997,2628.93706799997,2628.93706799997,2628.93706799997,2628.93706799997,2628.93706799997,2628.93706799997,2628.93706799997,2628.93706799997,2628.93706799997,2628.93706799997,2631.445855599828,2631.445855599828,2631.445855599828,2631.445855599828,2631.445855599828,50,42,68,31,68,56,4.0,0.6480839997529984,2632.1105565000325,2633.9062850000337,,,,,,,,,129,f,1,2022-12-12_14h48.41.302,RL,2022.2.4,60.04538229599241,
