bandit,trials.thisRepN,trials.thisTrialN,trials.thisN,trials.thisIndex,instru_img1.started,instru_img1.stopped,instru_resp.keys,instru_resp.rt,instru_resp.started,instru_resp.stopped,instru_img2.started,instru_img2.stopped,instru_resp2.keys,instru_resp2.rt,instru_resp2.started,instru_resp2.stopped,fixbefore_2.started,fixbefore_2.stopped,rest_image.started,rest_image.stopped,rest_response.keys,rest_response.started,rest_response.stopped,red.started,red.stopped,green.started,green.stopped,yellow.started,yellow.stopped,blue.started,blue.stopped,choose_bandit.keys,choose_bandit.rt,choose_bandit.started,choose_bandit.stopped,Fixation.started,Fixation.stopped,black.started,black.stopped,red_2.started,red_2.stopped,green_2.started,green_2.stopped,yellow_2.started,yellow_2.stopped,blue_2.started,blue_2.stopped,fixation_2.started,fixation_2.stopped,docs.started,docs.stopped,image_2.started,image_2.stopped,black_com.started,black_com.stopped,reward_sub.started,reward_sub.stopped,palyerb.started,palyerb.stopped,reward__sub.started,reward__sub.stopped,compare.started,compare.stopped,red_compare.started,red_compare.stopped,green_com.started,green_com.stopped,yellow_com.started,yellow_com.stopped,blue_com.started,blue_com.stopped,rewardyellow,rewardred,rewardblue,rewardgreen,subchoose,playerb,image_3.started,image_3.stopped,slider.response,slider.rt,slider.started,slider.stopped,text.started,text.stopped,image_4.started,image_4.stopped,image_5.started,image_5.stopped,bigx.started,bigx.stopped,intertrialfix.started,intertrialfix.stopped,rest_response.rt,image.started,image.stopped,key_resp.keys,key_resp.started,key_resp.stopped,participant,Gender,Age,date,expName,psychopyVersion,frameRate,
,,,,,1586.0458503998816,None,space,5.111002600053325,1586.0458503998816,None,,,,,,,,,,,,,,,,,,,,,,,,,,,,,,,,,,,,,,,,,,,,,,,,,,,,,,,,,,,,,,,,,,,,,,,,,,,,,,,,,,,,,,,,,,130,f,1,2022_Dec_12_1448,RL,2021.2.3,59.928972171566855,
,,,,,,,,,,,1591.1731791000348,None,space,34.47635619994253,1591.1731791000348,None,,,,,,,,,,,,,,,,,,,,,,,,,,,,,,,,,,,,,,,,,,,,,,,,,,,,,,,,,,,,,,,,,,,,,,,,,,,,,,,,,,,,130,f,1,2022_Dec_12_1448,RL,2021.2.3,59.928972171566855,
1,0,0,0,0,,,,,,,,,,,,,1625.690712600015,None,None,None,None,None,None,1626.7102341998834,None,1626.7102341998834,None,1626.7102341998834,None,1626.7102341998834,None,j,0.5276115001179278,1626.7102341998834,None,1626.7102341998834,None,1627.2932086999062,None,1627.2932086999062,None,1627.2932086999062,None,1627.2932086999062,None,1627.2932086999062,None,1627.2932086999062,None,1627.5798605999444,None,1627.5798605999444,None,1629.1200196000282,None,1629.1200196000282,None,1629.1200196000282,None,1629.1200196000282,None,1629.1200196000282,None,1629.1200196000282,None,1629.1200196000282,None,1629.1200196000282,None,1629.1200196000282,None,36,63,55,55,55,48,1631.6557378999423,None,6.0,3.623125199927017,1631.6557378999423,None,1631.6557378999423,None,1631.6557378999423,None,1631.6557378999423,None,None,None,1635.3071943998802,None,,,,,,,130,f,1,2022_Dec_12_1448,RL,2021.2.3,59.928972171566855,
1,1,0,1,0,,,,,,,,,,,,,,,None,None,None,None,None,1636.8733246999327,None,1636.8733246999327,None,1636.8733246999327,None,1636.8733246999327,None,i,0.5346242999657989,1636.8733246999327,None,1636.8733246999327,None,1637.4596706999,None,1637.4596706999,None,1637.4596706999,None,1637.4596706999,None,1637.4596706999,None,1637.4596706999,None,1637.7536905000452,None,1637.7536905000452,None,1639.0252231000923,None,1639.0252231000923,None,1639.0252231000923,None,1639.0252231000923,None,1639.0252231000923,None,1639.0252231000923,None,1639.0252231000923,None,1639.0252231000923,None,1639.0252231000923,None,43,65,51,44,51,38,1641.536011399934,None,7.0,1.4526333000976592,1641.536011399934,None,1641.536011399934,None,1641.536011399934,None,1641.536011399934,None,None,None,1643.006613299949,None,,,,,,,130,f,1,2022_Dec_12_1448,RL,2021.2.3,59.928972171566855,
1,2,0,2,0,,,,,,,,,,,,,,,None,None,None,None,None,1644.9784834000748,None,1644.9784834000748,None,1644.9784834000748,None,1644.9784834000748,None,i,0.46929770009592175,1644.9784834000748,None,1644.9784834000748,None,1645.508872400038,None,1645.508872400038,None,1645.508872400038,None,1645.508872400038,None,1645.508872400038,None,1645.508872400038,None,1645.7923560999334,1646.7762452999596,1645.7923560999334,1646.7762452999596,1646.8103249999695,None,1646.8103249999695,None,1646.8103249999695,None,1646.8103249999695,None,1646.8103249999695,None,1646.8103249999695,None,1646.8103249999695,None,1646.8103249999695,None,1646.8103249999695,None,40,61,51,41,51,67,1649.3245476998854,None,3.0,1.072007000213489,1649.3245476998854,None,1649.3245476998854,None,1649.3245476998854,None,1649.3245476998854,None,None,None,1650.411821699934,None,,,,,,,130,f,1,2022_Dec_12_1448,RL,2021.2.3,59.928972171566855,
1,3,0,3,0,,,,,,,,,,,,,,,None,None,None,None,None,1652.3491074999329,None,1652.3491074999329,None,1652.3491074999329,None,1652.3491074999329,None,j,0.43860819982364774,1652.3491074999329,None,1652.3491074999329,None,1652.8444852000102,None,1652.8444852000102,None,1652.8444852000102,None,1652.8444852000102,None,1652.8444852000102,None,1652.8444852000102,None,1653.1308816999663,None,1653.1308816999663,None,1654.4565453999676,None,1654.4565453999676,None,1654.4565453999676,None,1654.4565453999676,None,1654.4565453999676,None,1654.4565453999676,None,1654.4565453999676,None,1654.4565453999676,None,1654.4565453999676,None,36,58,55,50,50,63,1656.9705604000483,None,2.0,0.8645495001692325,1656.9705604000483,None,1656.9705604000483,None,1656.9705604000483,None,1656.9705604000483,None,None,None,1657.8502376000397,None,,,,,,,130,f,1,2022_Dec_12_1448,RL,2021.2.3,59.928972171566855,
1,4,0,4,0,,,,,,,,,,,,,,,None,None,None,None,None,1659.8219802000094,None,1659.8219802000094,None,1659.8219802000094,None,1659.8219802000094,None,r,0.38574569998309016,1659.8219802000094,None,1659.8219802000094,None,1660.2633823999204,None,1660.2633823999204,None,1660.2633823999204,None,1660.2633823999204,None,1660.2633823999204,None,1660.2633823999204,None,1660.552643300034,None,1660.552643300034,None,1662.5263338999357,None,1662.5263338999357,None,1662.5263338999357,None,1662.5263338999357,None,1662.5263338999357,None,1662.5263338999357,None,1662.5263338999357,None,1662.5263338999357,None,1662.5263338999357,None,35,55,60,51,35,45,1665.0577318998985,None,2.0,0.8669588000047952,1665.0577318998985,None,1665.0577318998985,None,1665.0577318998985,None,1665.0577318998985,None,None,None,1665.9486386999488,None,,,,,,,130,f,1,2022_Dec_12_1448,RL,2021.2.3,59.928972171566855,
1,5,0,5,0,,,,,,,,,,,,,,,None,None,None,None,None,1667.6110489000566,None,1667.6110489000566,None,1667.6110489000566,None,1667.6110489000566,None,j,0.4368946000467986,1667.6110489000566,None,1667.6110489000566,None,1668.0983448999468,None,1668.0983448999468,None,1668.0983448999468,None,1668.0983448999468,None,1668.0983448999468,None,1668.0983448999468,None,1668.391561599914,1670.159177100053,1668.391561599914,1670.159177100053,1670.1905604000203,None,1670.1905604000203,None,1670.1905604000203,None,1670.1905604000203,None,1670.1905604000203,None,1670.1905604000203,None,1670.1905604000203,None,1670.1905604000203,None,1670.1905604000203,None,31,51,59,45,45,43,1672.7081861998886,None,4.0,0.6233191001228988,1672.7081861998886,None,1672.7081861998886,None,1672.7081861998886,None,1672.7081861998886,None,None,None,1673.346098500071,None,,,,,,,130,f,1,2022_Dec_12_1448,RL,2021.2.3,59.928972171566855,
1,6,0,6,0,,,,,,,,,,,,,,,None,None,None,None,None,1675.2657490000129,None,1675.2657490000129,None,1675.2657490000129,None,1675.2657490000129,None,i,0.34242270002141595,1675.2657490000129,None,1675.2657490000129,None,1675.6523406999186,None,1675.6523406999186,None,1675.6523406999186,None,1675.6523406999186,None,1675.6523406999186,None,1675.6523406999186,None,1675.9466321000364,None,1675.9466321000364,None,1676.9123364000116,None,1676.9123364000116,None,1676.9123364000116,None,1676.9123364000116,None,1676.9123364000116,None,1676.9123364000116,None,1676.9123364000116,None,1676.9123364000116,None,1676.9123364000116,None,33,59,56,45,56,51,1679.428062299965,None,5.0,0.5244863999541849,1679.428062299965,None,1679.428062299965,None,1679.428062299965,None,1679.428062299965,None,None,None,1679.9673496999312,None,,,,,,,130,f,1,2022_Dec_12_1448,RL,2021.2.3,59.928972171566855,
1,7,0,7,0,,,,,,,,,,,,,,,None,None,None,None,None,1681.603768599918,None,1681.603768599918,None,1681.603768599918,None,1681.603768599918,None,j,0.3040803000330925,1681.603768599918,None,1681.603768599918,None,1681.9568366000894,None,1681.9568366000894,None,1681.9568366000894,None,1681.9568366000894,None,1681.9568366000894,None,1681.9568366000894,None,1682.251056900015,None,1682.251056900015,None,1683.249121400062,None,1683.249121400062,None,1683.249121400062,None,1683.249121400062,None,1683.249121400062,None,1683.249121400062,None,1683.249121400062,None,1683.249121400062,None,1683.249121400062,None,38,60,64,42,42,65,1685.7691404998768,None,2.0,1.7185606001876295,1685.7691404998768,None,1685.7691404998768,None,1685.7691404998768,None,1685.7691404998768,None,None,None,1687.5041719998699,None,,,,,,,130,f,1,2022_Dec_12_1448,RL,2021.2.3,59.928972171566855,
1,8,0,8,0,,,,,,,,,,,,,,,None,None,None,None,None,1689.3261507998686,None,1689.3261507998686,None,1689.3261507998686,None,1689.3261507998686,None,j,0.3619554000906646,1689.3261507998686,None,1689.3261507998686,None,1689.72836129996,None,1689.72836129996,None,1689.72836129996,None,1689.72836129996,None,1689.72836129996,None,1689.72836129996,None,1690.0233040000312,1691.5906078000553,1690.0233040000312,1691.5906078000553,1691.6275712000206,None,1691.6275712000206,None,1691.6275712000206,None,1691.6275712000206,None,1691.6275712000206,None,1691.6275712000206,None,1691.6275712000206,None,1691.6275712000206,None,1691.6275712000206,None,28,49,72,37,37,44,1694.1371933000628,None,1.0,0.5732869999483228,1694.1371933000628,None,1694.1371933000628,None,1694.1371933000628,None,1694.1371933000628,None,None,None,1694.7309488998726,None,,,,,,,130,f,1,2022_Dec_12_1448,RL,2021.2.3,59.928972171566855,
1,9,0,9,0,,,,,,,,,,,,,,,None,None,None,None,None,1696.546906299889,None,1696.546906299889,None,1696.546906299889,None,1696.546906299889,None,f,0.3814171999692917,1696.546906299889,None,1696.546906299889,None,1696.965848099906,None,1696.965848099906,None,1696.965848099906,None,1696.965848099906,None,1696.965848099906,None,1696.965848099906,None,1697.261618599994,None,1697.261618599994,None,1698.5096183000132,None,1698.5096183000132,None,1698.5096183000132,None,1698.5096183000132,None,1698.5096183000132,None,1698.5096183000132,None,1698.5096183000132,None,1698.5096183000132,None,1698.5096183000132,None,24,63,57,40,63,46,1701.0278350999579,None,7.0,1.9396909000352025,1701.0278350999579,None,1701.0278350999579,None,1701.0278350999579,None,1701.0278350999579,None,None,None,1702.9911750000902,None,,,,,,,130,f,1,2022_Dec_12_1448,RL,2021.2.3,59.928972171566855,
1,10,0,10,0,,,,,,,,,,,,,,,None,None,None,None,None,1704.9204901000485,None,1704.9204901000485,None,1704.9204901000485,None,1704.9204901000485,None,f,0.32808790006674826,1704.9204901000485,None,1704.9204901000485,None,1705.2885958999395,None,1705.2885958999395,None,1705.2885958999395,None,1705.2885958999395,None,1705.2885958999395,None,1705.2885958999395,None,1705.5838510999456,1706.984784200089,1705.5838510999456,1706.984784200089,1707.0159010000061,None,1707.0159010000061,None,1707.0159010000061,None,1707.0159010000061,None,1707.0159010000061,None,1707.0159010000061,None,1707.0159010000061,None,1707.0159010000061,None,1707.0159010000061,None,26,54,64,36,54,51,1709.5348282998893,None,7.0,1.0880258998367935,1709.5348282998893,None,1709.5348282998893,None,1709.5348282998893,None,1709.5348282998893,None,None,None,1710.6368907999713,None,,,,,,,130,f,1,2022_Dec_12_1448,RL,2021.2.3,59.928972171566855,
1,11,0,11,0,,,,,,,,,,,,,,,None,None,None,None,None,1712.5426868000068,None,1712.5426868000068,None,1712.5426868000068,None,1712.5426868000068,None,i,0.37565750000067055,1712.5426868000068,None,1712.5426868000068,None,1712.9615639999975,None,1712.9615639999975,None,1712.9615639999975,None,1712.9615639999975,None,1712.9615639999975,None,1712.9615639999975,None,1713.2559024000075,None,1713.2559024000075,None,1714.8018537999596,None,1714.8018537999596,None,1714.8018537999596,None,1714.8018537999596,None,1714.8018537999596,None,1714.8018537999596,None,1714.8018537999596,None,1714.8018537999596,None,1714.8018537999596,None,33,59,57,36,57,66,1717.3214279999956,None,7.0,1.7231112997978926,1717.3214279999956,None,1717.3214279999956,None,1717.3214279999956,None,1717.3214279999956,None,None,None,1719.0593536999077,None,,,,,,,130,f,1,2022_Dec_12_1448,RL,2021.2.3,59.928972171566855,
1,12,0,12,0,,,,,,,,,,,,,,,None,None,None,None,None,1720.9477693999652,None,1720.9477693999652,None,1720.9477693999652,None,1720.9477693999652,None,f,0.8606243000831455,1720.9477693999652,None,1720.9477693999652,None,1721.85071290005,None,1721.85071290005,None,1721.85071290005,None,1721.85071290005,None,1721.85071290005,None,1721.85071290005,None,1722.1454262000043,None,1722.1454262000043,None,1724.1713958000764,None,1724.1713958000764,None,1724.1713958000764,None,1724.1713958000764,None,1724.1713958000764,None,1724.1713958000764,None,1724.1713958000764,None,1724.1713958000764,None,1724.1713958000764,None,31,56,69,37,56,59,1726.6938668000512,None,4.0,1.3732813999522477,1726.6938668000512,None,1726.6938668000512,None,1726.6938668000512,None,1726.6938668000512,None,None,None,1728.0851888998877,None,,,,,,,130,f,1,2022_Dec_12_1448,RL,2021.2.3,59.928972171566855,
1,13,0,13,0,,,,,,,,,,,,,,,None,None,None,None,None,1729.9203584999777,None,1729.9203584999777,None,1729.9203584999777,None,1729.9203584999777,None,i,0.36814889986999333,1729.9203584999777,None,1729.9203584999777,None,1730.3421143000014,None,1730.3421143000014,None,1730.3421143000014,None,1730.3421143000014,None,1730.3421143000014,None,1730.3421143000014,None,1730.634561700048,None,1730.634561700048,None,1731.722159500001,None,1731.722159500001,None,1731.722159500001,None,1731.722159500001,None,1731.722159500001,None,1731.722159500001,None,1731.722159500001,None,1731.722159500001,None,1731.722159500001,None,31,52,63,32,63,60,1734.2334195999429,None,6.0,0.6217229999601841,1734.2334195999429,None,1734.2334195999429,None,1734.2334195999429,None,1734.2334195999429,None,None,None,1734.8710670999717,None,,,,,,,130,f,1,2022_Dec_12_1448,RL,2021.2.3,59.928972171566855,
1,14,0,14,0,,,,,,,,,,,,,,,None,None,None,None,None,1736.6739139999263,None,1736.6739139999263,None,1736.6739139999263,None,1736.6739139999263,None,j,0.49438749998807907,1736.6739139999263,None,1736.6739139999263,None,1737.2111472999677,None,1737.2111472999677,None,1737.2111472999677,None,1737.2111472999677,None,1737.2111472999677,None,1737.2111472999677,None,1737.50595910009,None,1737.50595910009,None,1738.3526343998965,None,1738.3526343998965,None,1738.3526343998965,None,1738.3526343998965,None,1738.3526343998965,None,1738.3526343998965,None,1738.3526343998965,None,1738.3526343998965,None,1738.3526343998965,None,26,51,76,28,28,66,1740.8710747000296,None,1.0,0.6718896999955177,1740.8710747000296,None,1740.8710747000296,None,1740.8710747000296,None,1740.8710747000296,None,None,None,1741.5581976000685,None,,,,,,,130,f,1,2022_Dec_12_1448,RL,2021.2.3,59.928972171566855,
1,15,0,15,0,,,,,,,,,,,,,,,None,None,None,None,None,1743.5301437000744,None,1743.5301437000744,None,1743.5301437000744,None,1743.5301437000744,None,j,0.46807139995507896,1743.5301437000744,None,1743.5301437000744,None,1744.05013099988,None,1744.05013099988,None,1744.05013099988,None,1744.05013099988,None,1744.05013099988,None,1744.05013099988,None,1744.3440974999685,None,1744.3440974999685,None,1745.6084483999293,None,1745.6084483999293,None,1745.6084483999293,None,1745.6084483999293,None,1745.6084483999293,None,1745.6084483999293,None,1745.6084483999293,None,1745.6084483999293,None,1745.6084483999293,None,38,52,76,20,20,47,1748.1335762999952,None,1.0,1.0991372000426054,1748.1335762999952,None,1748.1335762999952,None,1748.1335762999952,None,1748.1335762999952,None,None,None,1749.2468983998988,None,,,,,,,130,f,1,2022_Dec_12_1448,RL,2021.2.3,59.928972171566855,
1,16,0,16,0,,,,,,,,,,,,,,,None,None,None,None,None,1751.168649399886,None,1751.168649399886,None,1751.168649399886,None,1751.168649399886,None,f,0.3697697001043707,1751.168649399886,None,1751.168649399886,None,1751.5884481000248,None,1751.5884481000248,None,1751.5884481000248,None,1751.5884481000248,None,1751.5884481000248,None,1751.5884481000248,None,1751.882615499897,None,1751.882615499897,None,1752.796045300085,None,1752.796045300085,None,1752.796045300085,None,1752.796045300085,None,1752.796045300085,None,1752.796045300085,None,1752.796045300085,None,1752.796045300085,None,1752.796045300085,None,44,60,79,28,60,60,1755.3149794999044,None,4.0,0.7037015999667346,1755.3149794999044,None,1755.3149794999044,None,1755.3149794999044,None,1755.3149794999044,None,None,None,1756.0354768999387,None,,,,,,,130,f,1,2022_Dec_12_1448,RL,2021.2.3,59.928972171566855,
1,17,0,17,0,,,,,,,,,,,,,,,None,None,None,None,None,1757.655981299933,None,1757.655981299933,None,1757.655981299933,None,1757.655981299933,None,f,0.3725868999026716,1757.655981299933,None,1757.655981299933,None,1758.0751575999893,None,1758.0751575999893,None,1758.0751575999893,None,1758.0751575999893,None,1758.0751575999893,None,1758.0751575999893,None,1758.370511099929,1760.3050502000842,1758.370511099929,1760.3050502000842,1760.3359117999207,None,1760.3359117999207,None,1760.3359117999207,None,1760.3359117999207,None,1760.3359117999207,None,1760.3359117999207,None,1760.3359117999207,None,1760.3359117999207,None,1760.3359117999207,None,38,63,65,27,63,67,1762.853099500062,None,4.0,0.7550596001092345,1762.853099500062,None,1762.853099500062,None,1762.853099500062,None,1762.853099500062,None,None,None,1763.6237647999078,None,,,,,,,130,f,1,2022_Dec_12_1448,RL,2021.2.3,59.928972171566855,
1,18,0,18,0,,,,,,,,,,,,,,,None,None,None,None,None,1765.2614124999382,None,1765.2614124999382,None,1765.2614124999382,None,1765.2614124999382,None,f,0.7985056000761688,1765.2614124999382,None,1765.2614124999382,None,1766.0992197000887,None,1766.0992197000887,None,1766.0992197000887,None,1766.0992197000887,None,1766.0992197000887,None,1766.0992197000887,None,1766.376402999973,1767.7437493999023,1766.376402999973,1767.7437493999023,1767.7771520998795,None,1767.7771520998795,None,1767.7771520998795,None,1767.7771520998795,None,1767.7771520998795,None,1767.7771520998795,None,1767.7771520998795,None,1767.7771520998795,None,1767.7771520998795,None,34,67,66,32,67,45,1770.2934554000385,None,6.0,1.0204825999680907,1770.2934554000385,None,1770.2934554000385,None,1770.2934554000385,None,1770.2934554000385,None,None,None,1771.3371194000356,None,,,,,,,130,f,1,2022_Dec_12_1448,RL,2021.2.3,59.928972171566855,
1,19,0,19,0,,,,,,,,,,,,,,,None,None,None,None,None,1773.1838654999156,None,1773.1838654999156,None,1773.1838654999156,None,1773.1838654999156,None,f,0.3353931999299675,1773.1838654999156,None,1773.1838654999156,None,1773.5686584000941,None,1773.5686584000941,None,1773.5686584000941,None,1773.5686584000941,None,1773.5686584000941,None,1773.5686584000941,None,1773.8648333998863,None,1773.8648333998863,None,1775.2604310999159,None,1775.2604310999159,None,1775.2604310999159,None,1775.2604310999159,None,1775.2604310999159,None,1775.2604310999159,None,1775.2604310999159,None,1775.2604310999159,None,1775.2604310999159,None,32,72,65,24,72,48,1777.78128320002,None,5.0,0.6879716999828815,1777.78128320002,None,1777.78128320002,None,1777.78128320002,None,1777.78128320002,None,None,None,1778.4843148998916,None,,,,,,,130,f,1,2022_Dec_12_1448,RL,2021.2.3,59.928972171566855,
1,20,0,20,0,,,,,,,,,,,,,,,None,None,None,None,None,1780.4888947000727,None,1780.4888947000727,None,1780.4888947000727,None,1780.4888947000727,None,f,0.531169299967587,1780.4888947000727,None,1780.4888947000727,None,1781.067667499883,None,1781.067667499883,None,1781.067667499883,None,1781.067667499883,None,1781.067667499883,None,1781.067667499883,None,1781.3529671998695,None,1781.3529671998695,None,1782.243926800089,None,1782.243926800089,None,1782.243926800089,None,1782.243926800089,None,1782.243926800089,None,1782.243926800089,None,1782.243926800089,None,1782.243926800089,None,1782.243926800089,None,46,69,68,25,69,64,1784.770936399931,None,7.0,1.6048099000472575,1784.770936399931,None,1784.770936399931,None,1784.770936399931,None,1784.770936399931,None,None,None,1786.3904665000737,None,,,,,,,130,f,1,2022_Dec_12_1448,RL,2021.2.3,59.928972171566855,
1,21,0,21,0,,,,,,,,,,,,,,,None,None,None,None,None,1788.060980899958,None,1788.060980899958,None,1788.060980899958,None,1788.060980899958,None,f,0.3788666999898851,1788.060980899958,None,1788.060980899958,None,1788.4869744998869,None,1788.4869744998869,None,1788.4869744998869,None,1788.4869744998869,None,1788.4869744998869,None,1788.4869744998869,None,1788.7749326000921,1789.9254588000476,1788.7749326000921,1789.9254588000476,1789.9566541998647,None,1789.9566541998647,None,1789.9566541998647,None,1789.9566541998647,None,1789.9566541998647,None,1789.9566541998647,None,1789.9566541998647,None,1789.9566541998647,None,1789.9566541998647,None,42,70,62,30,70,73,1792.473664100049,None,5.0,1.4674258998129517,1792.473664100049,None,1792.473664100049,None,1792.473664100049,None,1792.473664100049,None,None,None,1793.9705789000727,None,,,,,,,130,f,1,2022_Dec_12_1448,RL,2021.2.3,59.928972171566855,
1,22,0,22,0,,,,,,,,,,,,,,,None,None,None,None,None,1795.732189900009,None,1795.732189900009,None,1795.732189900009,None,1795.732189900009,None,f,0.3677680999971926,1795.732189900009,None,1795.732189900009,None,1796.1529937000014,None,1796.1529937000014,None,1796.1529937000014,None,1796.1529937000014,None,1796.1529937000014,None,1796.1529937000014,None,1796.4472495999653,None,1796.4472495999653,None,1798.1809988000896,None,1798.1809988000896,None,1798.1809988000896,None,1798.1809988000896,None,1798.1809988000896,None,1798.1809988000896,None,1798.1809988000896,None,1798.1809988000896,None,1798.1809988000896,None,39,58,58,26,58,66,1800.694978900021,None,3.0,1.1233741000760347,1800.694978900021,None,1800.694978900021,None,1800.694978900021,None,1800.694978900021,None,None,None,1801.833197100088,None,,,,,,,130,f,1,2022_Dec_12_1448,RL,2021.2.3,59.928972171566855,
1,23,0,23,0,,,,,,,,,,,,,,,None,None,None,None,None,1803.4214198999107,None,1803.4214198999107,None,1803.4214198999107,None,1803.4214198999107,None,r,0.33816449996083975,1803.4214198999107,None,1803.4214198999107,None,1803.8094734000042,None,1803.8094734000042,None,1803.8094734000042,None,1803.8094734000042,None,1803.8094734000042,None,1803.8094734000042,None,1804.1022109000478,1806.037066000048,1804.1022109000478,1806.037066000048,1806.0736469000112,None,1806.0736469000112,None,1806.0736469000112,None,1806.0736469000112,None,1806.0736469000112,None,1806.0736469000112,None,1806.0736469000112,None,1806.0736469000112,None,1806.0736469000112,None,35,64,69,27,35,71,1808.6002851000521,None,3.0,1.540347300004214,1808.6002851000521,None,1808.6002851000521,None,1808.6002851000521,None,1808.6002851000521,None,None,None,1810.1590917999856,None,,,,,,,130,f,1,2022_Dec_12_1448,RL,2021.2.3,59.928972171566855,
1,24,0,24,0,,,,,,,,,,,,,,,None,None,None,None,None,1811.6935669998638,None,1811.6935669998638,None,1811.6935669998638,None,1811.6935669998638,None,i,1.0263712999876589,1811.6935669998638,None,1811.6935669998638,None,1812.7743275000248,None,1812.7743275000248,None,1812.7743275000248,None,1812.7743275000248,None,1812.7743275000248,None,1812.7743275000248,None,1813.058222899912,1814.175699400017,1813.058222899912,1814.175699400017,1814.2077410998754,None,1814.2077410998754,None,1814.2077410998754,None,1814.2077410998754,None,1814.2077410998754,None,1814.2077410998754,None,1814.2077410998754,None,1814.2077410998754,None,1814.2077410998754,None,30,53,69,32,69,68,1816.7247550000902,None,4.0,1.005008399952203,1816.7247550000902,None,1816.7247550000902,None,1816.7247550000902,None,1816.7247550000902,None,None,None,1817.7445785999298,None,,,,,,,130,f,1,2022_Dec_12_1448,RL,2021.2.3,59.928972171566855,
1,25,0,25,0,,,,,,,,,,,,,,,None,None,None,None,None,1819.6322164998855,None,1819.6322164998855,None,1819.6322164998855,None,1819.6322164998855,None,r,0.46773999999277294,1819.6322164998855,None,1819.6322164998855,None,1820.1499528998975,None,1820.1499528998975,None,1820.1499528998975,None,1820.1499528998975,None,1820.1499528998975,None,1820.1499528998975,None,1820.4471738000866,None,1820.4471738000866,None,1821.7995092000347,None,1821.7995092000347,None,1821.7995092000347,None,1821.7995092000347,None,1821.7995092000347,None,1821.7995092000347,None,1821.7995092000347,None,1821.7995092000347,None,1821.7995092000347,None,38,49,72,30,38,67,1824.3138732998632,None,2.0,1.2893228000029922,1824.3138732998632,None,1824.3138732998632,None,1824.3138732998632,None,1824.3138732998632,None,None,None,1825.617929500062,None,,,,,,,130,f,1,2022_Dec_12_1448,RL,2021.2.3,59.928972171566855,
1,26,0,26,0,,,,,,,,,,,,,,,None,None,None,None,None,1827.2881064999383,None,1827.2881064999383,None,1827.2881064999383,None,1827.2881064999383,None,f,0.32180509995669127,1827.2881064999383,None,1827.2881064999383,None,1827.6612261999398,None,1827.6612261999398,None,1827.6612261999398,None,1827.6612261999398,None,1827.6612261999398,None,1827.6612261999398,None,1827.9520358000882,1829.2694888000842,1827.9520358000882,1829.2694888000842,1829.300671099918,None,1829.300671099918,None,1829.300671099918,None,1829.300671099918,None,1829.300671099918,None,1829.300671099918,None,1829.300671099918,None,1829.300671099918,None,1829.300671099918,None,42,48,71,35,48,55,1831.81877969997,None,3.0,1.3712732000276446,1831.81877969997,None,1831.81877969997,None,1831.81877969997,None,1831.81877969997,None,None,None,1833.2050492998678,None,,,,,,,130,f,1,2022_Dec_12_1448,RL,2021.2.3,59.928972171566855,
1,27,0,27,0,,,,,,,,,,,,,,,None,None,None,None,None,1835.1102384999394,None,1835.1102384999394,None,1835.1102384999394,None,1835.1102384999394,None,f,0.3296954999677837,1835.1102384999394,None,1835.1102384999394,None,1835.4846630999818,None,1835.4846630999818,None,1835.4846630999818,None,1835.4846630999818,None,1835.4846630999818,None,1835.4846630999818,None,1835.7741197000723,1837.6752373999916,1835.7741197000723,1837.6752373999916,1837.706872599898,None,1837.706872599898,None,1837.706872599898,None,1837.706872599898,None,1837.706872599898,None,1837.706872599898,None,1837.706872599898,None,1837.706872599898,None,1837.706872599898,None,31,55,71,33,55,43,1840.2227616999298,None,5.0,0.8892220000270754,1840.2227616999298,None,1840.2227616999298,None,1840.2227616999298,None,1840.2227616999298,None,None,None,1841.1274156998843,None,,,,,,,130,f,1,2022_Dec_12_1448,RL,2021.2.3,59.928972171566855,
1,28,0,28,0,,,,,,,,,,,,,,,None,None,None,None,None,1843.1318604999688,None,1843.1318604999688,None,1843.1318604999688,None,1843.1318604999688,None,f,0.27818450005725026,1843.1318604999688,None,1843.1318604999688,None,1843.4535755999386,None,1843.4535755999386,None,1843.4535755999386,None,1843.4535755999386,None,1843.4535755999386,None,1843.4535755999386,None,1843.7465598999988,None,1843.7465598999988,None,1845.3354807000142,None,1845.3354807000142,None,1845.3354807000142,None,1845.3354807000142,None,1845.3354807000142,None,1845.3354807000142,None,1845.3354807000142,None,1845.3354807000142,None,1845.3354807000142,None,34,56,71,38,56,61,1847.8670483999886,None,5.0,1.2519831000827253,1847.8670483999886,None,1847.8670483999886,None,1847.8670483999886,None,1847.8670483999886,None,None,None,1849.132777000079,None,,,,,,,130,f,1,2022_Dec_12_1448,RL,2021.2.3,59.928972171566855,
1,29,0,29,0,,,,,,,,,,,,,,,None,None,None,None,None,1850.7705969999079,None,1850.7705969999079,None,1850.7705969999079,None,1850.7705969999079,None,f,1.0495674998965114,1850.7705969999079,None,1850.7705969999079,None,1851.8797635999508,None,1851.8797635999508,None,1851.8797635999508,None,1851.8797635999508,None,1851.8797635999508,None,1851.8797635999508,None,1852.1688469999935,None,1852.1688469999935,None,1853.9834072999656,None,1853.9834072999656,None,1853.9834072999656,None,1853.9834072999656,None,1853.9834072999656,None,1853.9834072999656,None,1853.9834072999656,None,1853.9834072999656,None,1853.9834072999656,None,34,61,70,32,61,52,1856.5062813998666,None,6.0,1.8835261999629438,1856.5062813998666,None,1856.5062813998666,None,1856.5062813998666,None,1856.5062813998666,None,None,None,1858.4135827999562,None,,,,,,,130,f,1,2022_Dec_12_1448,RL,2021.2.3,59.928972171566855,
1,30,0,30,0,,,,,,,,,,,,,,,None,None,None,None,None,1860.227341099875,None,1860.227341099875,None,1860.227341099875,None,1860.227341099875,None,f,0.42275590007193387,1860.227341099875,None,1860.227341099875,None,1860.6973874000832,None,1860.6973874000832,None,1860.6973874000832,None,1860.6973874000832,None,1860.6973874000832,None,1860.6973874000832,None,1860.9915573999751,1862.4925228999928,1860.9915573999751,1862.4925228999928,1862.5239041999448,None,1862.5239041999448,None,1862.5239041999448,None,1862.5239041999448,None,1862.5239041999448,None,1862.5239041999448,None,1862.5239041999448,None,1862.5239041999448,None,1862.5239041999448,None,40,40,69,32,40,45,1865.0443027999718,None,3.0,1.6344399999361485,1865.0443027999718,None,1865.0443027999718,None,1865.0443027999718,None,1865.0443027999718,None,None,None,1866.6951228999533,None,,,,,,,130,f,1,2022_Dec_12_1448,RL,2021.2.3,59.928972171566855,
1,31,0,31,0,,,,,,,,,,,,,,,None,None,None,None,None,1868.6499922000803,None,1868.6499922000803,None,1868.6499922000803,None,1868.6499922000803,None,j,0.3405695999972522,1868.6499922000803,None,1868.6499922000803,None,1869.0357059000526,None,1869.0357059000526,None,1869.0357059000526,None,1869.0357059000526,None,1869.0357059000526,None,1869.0357059000526,None,1869.3312669999432,None,1869.3312669999432,None,1871.2139002999756,None,1871.2139002999756,None,1871.2139002999756,None,1871.2139002999756,None,1871.2139002999756,None,1871.2139002999756,None,1871.2139002999756,None,1871.2139002999756,None,1871.2139002999756,None,41,46,69,26,26,63,1873.7359285000712,None,3.0,1.4526984998956323,1873.7359285000712,None,1873.7359285000712,None,1873.7359285000712,None,1873.7359285000712,None,None,None,1875.2033494999632,None,,,,,,,130,f,1,2022_Dec_12_1448,RL,2021.2.3,59.928972171566855,
1,32,0,32,0,,,,,,,,,,,,,,,None,None,None,None,None,1877.1391137000173,None,1877.1391137000173,None,1877.1391137000173,None,1877.1391137000173,None,f,0.3314835000783205,1877.1391137000173,None,1877.1391137000173,None,1877.5091685000807,None,1877.5091685000807,None,1877.5091685000807,None,1877.5091685000807,None,1877.5091685000807,None,1877.5091685000807,None,1877.8032800999936,None,1877.8032800999936,None,1879.5517655999865,None,1879.5517655999865,None,1879.5517655999865,None,1879.5517655999865,None,1879.5517655999865,None,1879.5517655999865,None,1879.5517655999865,None,1879.5517655999865,None,1879.5517655999865,None,35,49,69,25,49,64,1882.0749212999362,None,1.0,1.6012119001243263,1882.0749212999362,None,1882.0749212999362,None,1882.0749212999362,None,1882.0749212999362,None,None,None,1883.6903299000114,None,,,,,,,130,f,1,2022_Dec_12_1448,RL,2021.2.3,59.928972171566855,
1,33,0,33,0,,,,,,,,,,,,,,,None,None,None,None,None,1885.561955000041,None,1885.561955000041,None,1885.561955000041,None,1885.561955000041,None,i,0.4183469999115914,1885.561955000041,None,1885.561955000041,None,1886.030184699921,None,1886.030184699921,None,1886.030184699921,None,1886.030184699921,None,1886.030184699921,None,1886.030184699921,None,1886.3259135000408,None,1886.3259135000408,None,1887.838653099956,None,1887.838653099956,None,1887.838653099956,None,1887.838653099956,None,1887.838653099956,None,1887.838653099956,None,1887.838653099956,None,1887.838653099956,None,1887.838653099956,None,47,48,71,22,71,42,1890.361903999932,None,6.0,2.03663649992086,1890.361903999932,None,1890.361903999932,None,1890.361903999932,None,1890.361903999932,None,None,None,1892.4127871000674,None,,,,,,,130,f,1,2022_Dec_12_1448,RL,2021.2.3,59.928972171566855,
1,34,0,34,0,,,,,,,,,,,,,,,None,None,None,None,None,1894.2013727000449,None,1894.2013727000449,None,1894.2013727000449,None,1894.2013727000449,None,i,0.31873519998043776,1894.2013727000449,None,1894.2013727000449,None,1894.5717088000383,None,1894.5717088000383,None,1894.5717088000383,None,1894.5717088000383,None,1894.5717088000383,None,1894.5717088000383,None,1894.8484396000858,1896.0991028000135,1894.8484396000858,1896.0991028000135,1896.1362155999523,None,1896.1362155999523,None,1896.1362155999523,None,1896.1362155999523,None,1896.1362155999523,None,1896.1362155999523,None,1896.1362155999523,None,1896.1362155999523,None,1896.1362155999523,None,29,52,62,28,62,54,1898.6653986000456,None,7.0,1.522114200051874,1898.6653986000456,None,1898.6653986000456,None,1898.6653986000456,None,1898.6653986000456,None,None,None,1900.2015275999438,None,,,,,,,130,f,1,2022_Dec_12_1448,RL,2021.2.3,59.928972171566855,
1,35,0,35,0,,,,,,,,,,,,,,,None,None,None,None,None,1901.956288699992,None,1901.956288699992,None,1901.956288699992,None,1901.956288699992,None,i,0.4441796999890357,1901.956288699992,None,1901.956288699992,None,1902.4408501998987,None,1902.4408501998987,None,1902.4408501998987,None,1902.4408501998987,None,1902.4408501998987,None,1902.4408501998987,None,1902.73724399996,None,1902.73724399996,None,1903.586797799915,None,1903.586797799915,None,1903.586797799915,None,1903.586797799915,None,1903.586797799915,None,1903.586797799915,None,1903.586797799915,None,1903.586797799915,None,1903.586797799915,None,38,57,65,28,65,43,1906.1054821999278,None,7.0,1.368169599911198,1906.1054821999278,None,1906.1054821999278,None,1906.1054821999278,None,1906.1054821999278,None,None,None,1907.4901254000142,None,,,,,,,130,f,1,2022_Dec_12_1448,RL,2021.2.3,59.928972171566855,
1,36,0,36,0,,,,,,,,,,,,,,,None,None,None,None,None,1909.4449344999157,None,1909.4449344999157,None,1909.4449344999157,None,1909.4449344999157,None,i,0.32545830006711185,1909.4449344999157,None,1909.4449344999157,None,1909.8140334999189,None,1909.8140334999189,None,1909.8140334999189,None,1909.8140334999189,None,1909.8140334999189,None,1909.8140334999189,None,1910.1089806000236,None,1910.1089806000236,None,1911.4741962000262,None,1911.4741962000262,None,1911.4741962000262,None,1911.4741962000262,None,1911.4741962000262,None,1911.4741962000262,None,1911.4741962000262,None,1911.4741962000262,None,1911.4741962000262,None,45,47,70,23,70,55,1914.0022064000368,None,7.0,1.0133539999369532,1914.0022064000368,None,1914.0022064000368,None,1914.0022064000368,None,1914.0022064000368,None,None,None,1915.0284986000042,None,,,,,,,130,f,1,2022_Dec_12_1448,RL,2021.2.3,59.928972171566855,
1,37,0,37,0,,,,,,,,,,,,,,,None,None,None,None,None,1916.8668605000712,None,1916.8668605000712,None,1916.8668605000712,None,1916.8668605000712,None,i,0.3533624999690801,1916.8668605000712,None,1916.8668605000712,None,1917.2690419000573,None,1917.2690419000573,None,1917.2690419000573,None,1917.2690419000573,None,1917.2690419000573,None,1917.2690419000573,None,1917.5641904999502,1918.81489769998,1917.5641904999502,1918.81489769998,1918.8468241000082,None,1918.8468241000082,None,1918.8468241000082,None,1918.8468241000082,None,1918.8468241000082,None,1918.8468241000082,None,1918.8468241000082,None,1918.8468241000082,None,1918.8468241000082,None,42,50,70,26,70,57,1921.362475400092,None,7.0,1.189863899955526,1921.362475400092,None,1921.362475400092,None,1921.362475400092,None,1921.362475400092,None,None,None,1922.568740699906,None,,,,,,,130,f,1,2022_Dec_12_1448,RL,2021.2.3,59.928972171566855,
1,38,0,38,0,,,,,,,,,,,,,,,None,None,None,None,None,1924.4721897998825,None,1924.4721897998825,None,1924.4721897998825,None,1924.4721897998825,None,i,0.2991283000446856,1924.4721897998825,None,1924.4721897998825,None,1924.8217507000081,None,1924.8217507000081,None,1924.8217507000081,None,1924.8217507000081,None,1924.8217507000081,None,1924.8217507000081,None,1925.1194094000384,None,1925.1194094000384,None,1926.2376011000015,None,1926.2376011000015,None,1926.2376011000015,None,1926.2376011000015,None,1926.2376011000015,None,1926.2376011000015,None,1926.2376011000015,None,1926.2376011000015,None,1926.2376011000015,None,39,50,57,30,57,40,1928.755400300026,None,7.0,1.4355447001289576,1928.755400300026,None,1928.755400300026,None,1928.755400300026,None,1928.755400300026,None,None,None,1930.2088190000504,None,,,,,,,130,f,1,2022_Dec_12_1448,RL,2021.2.3,59.928972171566855,
1,39,0,39,0,,,,,,,,,,,,,,,None,None,None,None,None,1931.8435680000111,None,1931.8435680000111,None,1931.8435680000111,None,1931.8435680000111,None,i,0.3979408999439329,1931.8435680000111,None,1931.8435680000111,None,1932.2811896000057,None,1932.2811896000057,None,1932.2811896000057,None,1932.2811896000057,None,1932.2811896000057,None,1932.2811896000057,None,1932.574523899937,None,1932.574523899937,None,1933.8208663999103,None,1933.8208663999103,None,1933.8208663999103,None,1933.8208663999103,None,1933.8208663999103,None,1933.8208663999103,None,1933.8208663999103,None,1933.8208663999103,None,1933.8208663999103,None,41,55,78,29,78,48,1936.3392934999429,None,7.0,1.053695400012657,1936.3392934999429,None,1936.3392934999429,None,1936.3392934999429,None,1936.3392934999429,None,None,None,1937.4112253999338,None,,,,,,,130,f,1,2022_Dec_12_1448,RL,2021.2.3,59.928972171566855,
1,40,0,40,0,,,,,,,,,,,,,,,None,None,None,None,None,1939.2156843000557,None,1939.2156843000557,None,1939.2156843000557,None,1939.2156843000557,None,i,0.31583039998076856,1939.2156843000557,None,1939.2156843000557,None,1939.584732200019,None,1939.584732200019,None,1939.584732200019,None,1939.584732200019,None,1939.584732200019,None,1939.584732200019,None,1939.8796921998728,None,1939.8796921998728,None,1941.045329599874,None,1941.045329599874,None,1941.045329599874,None,1941.045329599874,None,1941.045329599874,None,1941.045329599874,None,1941.045329599874,None,1941.045329599874,None,1941.045329599874,None,57,58,73,27,73,52,1943.566620199941,None,7.0,1.0188181998673826,1943.566620199941,None,1943.566620199941,None,1943.566620199941,None,1943.566620199941,None,None,None,1944.610869599972,None,,,,,,,130,f,1,2022_Dec_12_1448,RL,2021.2.3,59.928972171566855,
1,41,0,41,0,,,,,,,,,,,,,,,None,None,None,None,None,1946.3035539998673,None,1946.3035539998673,None,1946.3035539998673,None,1946.3035539998673,None,i,0.43803889979608357,1946.3035539998673,None,1946.3035539998673,None,1946.7906464999542,None,1946.7906464999542,None,1946.7906464999542,None,1946.7906464999542,None,1946.7906464999542,None,1946.7906464999542,None,1947.0847922998946,1948.9360257000662,1947.0847922998946,1948.9360257000662,1948.9654506999068,None,1948.9654506999068,None,1948.9654506999068,None,1948.9654506999068,None,1948.9654506999068,None,1948.9654506999068,None,1948.9654506999068,None,1948.9654506999068,None,1948.9654506999068,None,50,51,69,27,69,52,1951.4835357998963,None,7.0,0.7045858998317271,1951.4835357998963,None,1951.4835357998963,None,1951.4835357998963,None,1951.4835357998963,None,None,None,1952.2137154000811,None,,,,,,,130,f,1,2022_Dec_12_1448,RL,2021.2.3,59.928972171566855,
1,42,0,42,0,,,,,,,,,,,,,,,None,None,None,None,None,1953.7418587000575,None,1953.7418587000575,None,1953.7418587000575,None,1953.7418587000575,None,i,0.4097810999955982,1953.7418587000575,None,1953.7418587000575,None,1954.1978199998848,None,1954.1978199998848,None,1954.1978199998848,None,1954.1978199998848,None,1954.1978199998848,None,1954.1978199998848,None,1954.489772199886,1955.5236543999054,1954.489772199886,1955.5236543999054,1955.5570497999433,None,1955.5570497999433,None,1955.5570497999433,None,1955.5570497999433,None,1955.5570497999433,None,1955.5570497999433,None,1955.5570497999433,None,1955.5570497999433,None,1955.5570497999433,None,61,49,65,33,65,37,1958.0769088999368,None,5.0,1.702189499977976,1958.0769088999368,None,1958.0769088999368,None,1958.0769088999368,None,1958.0769088999368,None,None,None,1959.793840300059,None,,,,,,,130,f,1,2022_Dec_12_1448,RL,2021.2.3,59.928972171566855,
1,43,0,43,0,,,,,,,,,,,,,,,None,None,None,None,None,1961.5973970000632,None,1961.5973970000632,None,1961.5973970000632,None,1961.5973970000632,None,i,0.5040523998904973,1961.5973970000632,None,1961.5973970000632,None,1962.1508263000287,None,1962.1508263000287,None,1962.1508263000287,None,1962.1508263000287,None,1962.1508263000287,None,1962.1508263000287,None,1962.4452583999373,1963.3792333998717,1962.4452583999373,1963.3792333998717,1963.4115134000313,None,1963.4115134000313,None,1963.4115134000313,None,1963.4115134000313,None,1963.4115134000313,None,1963.4115134000313,None,1963.4115134000313,None,1963.4115134000313,None,1963.4115134000313,None,59,59,56,30,56,45,1965.926250899909,None,6.0,1.4728711999487132,1965.926250899909,None,1965.926250899909,None,1965.926250899909,None,1965.926250899909,None,None,None,1967.418991100043,None,,,,,,,130,f,1,2022_Dec_12_1448,RL,2021.2.3,59.928972171566855,
1,44,0,44,0,,,,,,,,,,,,,,,None,None,None,None,None,1969.2199238000903,None,1969.2199238000903,None,1969.2199238000903,None,1969.2199238000903,None,f,0.38179340003989637,1969.2199238000903,None,1969.2199238000903,None,1969.6431762999855,None,1969.6431762999855,None,1969.6431762999855,None,1969.6431762999855,None,1969.6431762999855,None,1969.6431762999855,None,1969.9338094000705,1971.6848740000278,1969.9338094000705,1971.6848740000278,1971.7165194000117,None,1971.7165194000117,None,1971.7165194000117,None,1971.7165194000117,None,1971.7165194000117,None,1971.7165194000117,None,1971.7165194000117,None,1971.7165194000117,None,1971.7165194000117,None,49,51,71,36,51,55,1974.2340935000684,None,6.0,1.0713414999190718,1974.2340935000684,None,1974.2340935000684,None,1974.2340935000684,None,1974.2340935000684,None,None,None,1975.3205413999967,None,,,,,,,130,f,1,2022_Dec_12_1448,RL,2021.2.3,59.928972171566855,
1,45,0,45,0,,,,,,,,,,,,,,,None,None,None,None,None,1976.8413199998904,None,1976.8413199998904,None,1976.8413199998904,None,1976.8413199998904,None,i,0.31048179999925196,1976.8413199998904,None,1976.8413199998904,None,1977.1942390000913,None,1977.1942390000913,None,1977.1942390000913,None,1977.1942390000913,None,1977.1942390000913,None,1977.1942390000913,None,1977.4889988000505,None,1977.4889988000505,None,1978.7903879000805,None,1978.7903879000805,None,1978.7903879000805,None,1978.7903879000805,None,1978.7903879000805,None,1978.7903879000805,None,1978.7903879000805,None,1978.7903879000805,None,1978.7903879000805,None,50,48,67,38,67,56,1981.3053037000354,None,7.0,1.4044363999273628,1981.3053037000354,None,1981.3053037000354,None,1981.3053037000354,None,1981.3053037000354,None,None,None,1982.7256463998929,None,,,,,,,130,f,1,2022_Dec_12_1448,RL,2021.2.3,59.928972171566855,
1,46,0,46,0,,,,,,,,,,,,,,,None,None,None,None,None,1984.530266799964,None,1984.530266799964,None,1984.530266799964,None,1984.530266799964,None,i,0.31179880001582205,1984.530266799964,None,1984.530266799964,None,1984.88419110002,None,1984.88419110002,None,1984.88419110002,None,1984.88419110002,None,1984.88419110002,None,1984.88419110002,None,1985.1778645000886,None,1985.1778645000886,None,1986.8745152999181,None,1986.8745152999181,None,1986.8745152999181,None,1986.8745152999181,None,1986.8745152999181,None,1986.8745152999181,None,1986.8745152999181,None,1986.8745152999181,None,1986.8745152999181,None,56,52,63,35,63,46,1989.393997499952,None,7.0,1.0884252998512238,1989.393997499952,None,1989.393997499952,None,1989.393997499952,None,1989.393997499952,None,None,None,1990.4975336999632,None,,,,,,,130,f,1,2022_Dec_12_1448,RL,2021.2.3,59.928972171566855,
1,47,0,47,0,,,,,,,,,,,,,,,None,None,None,None,None,1992.4518438000232,None,1992.4518438000232,None,1992.4518438000232,None,1992.4518438000232,None,i,0.27006200002506375,1992.4518438000232,None,1992.4518438000232,None,1992.777507300023,None,1992.777507300023,None,1992.777507300023,None,1992.777507300023,None,1992.777507300023,None,1992.777507300023,None,1993.06656940002,1994.9680198000278,1993.06656940002,1994.9680198000278,1995.000863000052,None,1995.000863000052,None,1995.000863000052,None,1995.000863000052,None,1995.000863000052,None,1995.000863000052,None,1995.000863000052,None,1995.000863000052,None,1995.000863000052,None,60,50,66,19,66,58,1997.518132199999,None,7.0,1.1022092001512647,1997.518132199999,None,1997.518132199999,None,1997.518132199999,None,1997.518132199999,None,None,None,1998.6366067999043,None,,,,,,,130,f,1,2022_Dec_12_1448,RL,2021.2.3,59.928972171566855,
1,48,0,48,0,,,,,,,,,,,,,,,None,None,None,None,None,2000.5920963999815,None,2000.5920963999815,None,2000.5920963999815,None,2000.5920963999815,None,i,0.409844399895519,2000.5920963999815,None,2000.5920963999815,None,2001.0475224999245,None,2001.0475224999245,None,2001.0475224999245,None,2001.0475224999245,None,2001.0475224999245,None,2001.0475224999245,None,2001.338894000044,None,2001.338894000044,None,2002.9609242998995,None,2002.9609242998995,None,2002.9609242998995,None,2002.9609242998995,None,2002.9609242998995,None,2002.9609242998995,None,2002.9609242998995,None,2002.9609242998995,None,2002.9609242998995,None,69,57,64,38,64,48,2005.4881200999953,None,7.0,1.0397508000023663,2005.4881200999953,None,2005.4881200999953,None,2005.4881200999953,None,2005.4881200999953,None,None,None,2006.5445206000004,None,,,,,,,130,f,1,2022_Dec_12_1448,RL,2021.2.3,59.928972171566855,
1,49,0,49,0,,,,,,,,,,,,,,,None,None,None,None,None,2008.0971166000236,None,2008.0971166000236,None,2008.0971166000236,None,2008.0971166000236,None,i,0.4449105001986027,2008.0971166000236,None,2008.0971166000236,None,2008.5828255999368,None,2008.5828255999368,None,2008.5828255999368,None,2008.5828255999368,None,2008.5828255999368,None,2008.5828255999368,None,2008.8774439999834,2010.3950918000191,2008.8774439999834,2010.3950918000191,2010.4266178999096,None,2010.4266178999096,None,2010.4266178999096,None,2010.4266178999096,None,2010.4266178999096,None,2010.4266178999096,None,2010.4266178999096,None,2010.4266178999096,None,2010.4266178999096,None,62,48,69,31,69,42,2012.9432069999166,None,7.0,0.6860989001579583,2012.9432069999166,None,2012.9432069999166,None,2012.9432069999166,None,2012.9432069999166,None,None,None,2013.647699400084,None,,,,,,,130,f,1,2022_Dec_12_1448,RL,2021.2.3,59.928972171566855,
1,50,0,50,0,,,,,,,,,,,,,,,None,None,None,None,None,2015.55141919991,None,2015.55141919991,None,2015.55141919991,None,2015.55141919991,None,i,0.360728400060907,2015.55141919991,None,2015.55141919991,None,2015.9559883999173,None,2015.9559883999173,None,2015.9559883999173,None,2015.9559883999173,None,2015.9559883999173,None,2015.9559883999173,None,2016.232478799997,2017.9835626999848,2016.232478799997,2017.9835626999848,2018.0353262000717,None,2018.0353262000717,None,2018.0353262000717,None,2018.0353262000717,None,2018.0353262000717,None,2018.0353262000717,None,2018.0353262000717,None,2018.0353262000717,None,2018.0353262000717,None,50,48,63,32,63,53,2020.5548962000757,None,6.0,0.5331482000183314,2020.5548962000757,None,2020.5548962000757,None,2020.5548962000757,None,2020.5548962000757,None,None,None,2021.1020197998732,None,,,,,,,130,f,1,2022_Dec_12_1448,RL,2021.2.3,59.928972171566855,
1,51,0,51,0,,,,,,,,,,,,,,,None,None,None,None,None,2022.7569983000867,None,2022.7569983000867,None,2022.7569983000867,None,2022.7569983000867,None,i,0.37509769992902875,2022.7569983000867,None,2022.7569983000867,None,2023.1750757999253,None,2023.1750757999253,None,2023.1750757999253,None,2023.1750757999253,None,2023.1750757999253,None,2023.1750757999253,None,2023.4709004999604,None,2023.4709004999604,None,2024.9045895999297,None,2024.9045895999297,None,2024.9045895999297,None,2024.9045895999297,None,2024.9045895999297,None,2024.9045895999297,None,2024.9045895999297,None,2024.9045895999297,None,2024.9045895999297,None,63,47,57,31,57,50,2027.4228759999387,None,5.0,0.6026924001052976,2027.4228759999387,None,2027.4228759999387,None,2027.4228759999387,None,2027.4228759999387,None,None,None,2028.0513782999478,None,,,,,,,130,f,1,2022_Dec_12_1448,RL,2021.2.3,59.928972171566855,
1,52,0,52,0,,,,,,,,,,,,,,,None,None,None,None,None,2029.5619202998932,None,2029.5619202998932,None,2029.5619202998932,None,2029.5619202998932,None,i,0.33022490004077554,2029.5619202998932,None,2029.5619202998932,None,2029.9321125999559,None,2029.9321125999559,None,2029.9321125999559,None,2029.9321125999559,None,2029.9321125999559,None,2029.9321125999559,None,2030.2255702000111,2031.3928356999531,2030.2255702000111,2031.3928356999531,2031.4241716000251,None,2031.4241716000251,None,2031.4241716000251,None,2031.4241716000251,None,2031.4241716000251,None,2031.4241716000251,None,2031.4241716000251,None,2031.4241716000251,None,2031.4241716000251,None,61,46,62,32,62,48,2033.940696900012,None,6.0,0.6059618000872433,2033.940696900012,None,2033.940696900012,None,2033.940696900012,None,2033.940696900012,None,None,None,2034.5614433998708,None,,,,,,,130,f,1,2022_Dec_12_1448,RL,2021.2.3,59.928972171566855,
1,53,0,53,0,,,,,,,,,,,,,,,None,None,None,None,None,2036.5328981999774,None,2036.5328981999774,None,2036.5328981999774,None,2036.5328981999774,None,i,0.30907590012066066,2036.5328981999774,None,2036.5328981999774,None,2036.886234599864,None,2036.886234599864,None,2036.886234599864,None,2036.886234599864,None,2036.886234599864,None,2036.886234599864,None,2037.1805688999593,None,2037.1805688999593,None,2038.9793427998666,None,2038.9793427998666,None,2038.9793427998666,None,2038.9793427998666,None,2038.9793427998666,None,2038.9793427998666,None,2038.9793427998666,None,2038.9793427998666,None,2038.9793427998666,None,52,55,59,39,59,27,2041.4976101999637,None,7.0,0.5716977999545634,2041.4976101999637,None,2041.4976101999637,None,2041.4976101999637,None,2041.4976101999637,None,None,None,2042.083474199986,None,,,,,,,130,f,1,2022_Dec_12_1448,RL,2021.2.3,59.928972171566855,
1,54,0,54,0,,,,,,,,,,,,,,,None,None,None,None,None,2043.8214165999088,None,2043.8214165999088,None,2043.8214165999088,None,2043.8214165999088,None,i,0.2605668001342565,2043.8214165999088,None,2043.8214165999088,None,2044.1243239000905,None,2044.1243239000905,None,2044.1243239000905,None,2044.1243239000905,None,2044.1243239000905,None,2044.1243239000905,None,2044.4186901999637,None,2044.4186901999637,None,2046.1842570998706,None,2046.1842570998706,None,2046.1842570998706,None,2046.1842570998706,None,2046.1842570998706,None,2046.1842570998706,None,2046.1842570998706,None,2046.1842570998706,None,2046.1842570998706,None,68,53,61,42,61,56,2048.7031519000884,None,5.0,1.4896261000540107,2048.7031519000884,None,2048.7031519000884,None,2048.7031519000884,None,2048.7031519000884,None,None,None,2050.2071885000914,None,,,,,,,130,f,1,2022_Dec_12_1448,RL,2021.2.3,59.928972171566855,
1,55,0,55,0,,,,,,,,,,,,,,,None,None,None,None,None,2051.978443699889,None,2051.978443699889,None,2051.978443699889,None,2051.978443699889,None,f,0.5935994000174105,2051.978443699889,None,2051.978443699889,None,2052.6129812998697,None,2052.6129812998697,None,2052.6129812998697,None,2052.6129812998697,None,2052.6129812998697,None,2052.6129812998697,None,2052.908323300071,None,2052.908323300071,None,2054.5066881999373,None,2054.5066881999373,None,2054.5066881999373,None,2054.5066881999373,None,2054.5066881999373,None,2054.5066881999373,None,2054.5066881999373,None,2054.5066881999373,None,2054.5066881999373,None,60,45,57,35,45,45,2057.0230038000736,None,4.0,0.7042592999059707,2057.0230038000736,None,2057.0230038000736,None,2057.0230038000736,None,2057.0230038000736,None,None,None,2057.7441577999853,None,,,,,,,130,f,1,2022_Dec_12_1448,RL,2021.2.3,59.928972171566855,
1,56,0,56,0,,,,,,,,,,,,,,,None,None,None,None,None,2059.4982253999915,None,2059.4982253999915,None,2059.4982253999915,None,2059.4982253999915,None,i,0.36400249996222556,2059.4982253999915,None,2059.4982253999915,None,2059.9039475000463,None,2059.9039475000463,None,2059.9039475000463,None,2059.9039475000463,None,2059.9039475000463,None,2059.9039475000463,None,2060.1965417000465,None,2060.1965417000465,None,2061.094888499938,None,2061.094888499938,None,2061.094888499938,None,2061.094888499938,None,2061.094888499938,None,2061.094888499938,None,2061.094888499938,None,2061.094888499938,None,2061.094888499938,None,66,48,47,39,47,53,2063.6148010999896,None,5.0,1.4710899000056088,2063.6148010999896,None,2063.6148010999896,None,2063.6148010999896,None,2063.6148010999896,None,None,None,2065.100938400021,None,,,,,,,130,f,1,2022_Dec_12_1448,RL,2021.2.3,59.928972171566855,
1,57,0,57,0,,,,,,,,,,,,,,,None,None,None,None,None,2066.9205469000153,None,2066.9205469000153,None,2066.9205469000153,None,2066.9205469000153,None,i,0.2817643000744283,2066.9205469000153,None,2066.9205469000153,None,2067.2394701000303,None,2067.2394701000303,None,2067.2394701000303,None,2067.2394701000303,None,2067.2394701000303,None,2067.2394701000303,None,2067.534823300084,2068.935538599966,2067.534823300084,2068.935538599966,2068.96692409995,None,2068.96692409995,None,2068.96692409995,None,2068.96692409995,None,2068.96692409995,None,2068.96692409995,None,2068.96692409995,None,2068.96692409995,None,2068.96692409995,None,58,45,56,38,56,53,2071.4853465999477,None,4.0,0.9029153001029044,2071.4853465999477,None,2071.4853465999477,None,2071.4853465999477,None,2071.4853465999477,None,None,None,2072.4041989999823,None,,,,,,,130,f,1,2022_Dec_12_1448,RL,2021.2.3,59.928972171566855,
1,58,0,58,0,,,,,,,,,,,,,,,None,None,None,None,None,2074.159613699885,None,2074.159613699885,None,2074.159613699885,None,2074.159613699885,None,i,0.25374440010637045,2074.159613699885,None,2074.159613699885,None,2074.4593823000323,None,2074.4593823000323,None,2074.4593823000323,None,2074.4593823000323,None,2074.4593823000323,None,2074.4593823000323,None,2074.7564703000244,None,2074.7564703000244,None,2076.1047560998704,None,2076.1047560998704,None,2076.1047560998704,None,2076.1047560998704,None,2076.1047560998704,None,2076.1047560998704,None,2076.1047560998704,None,2076.1047560998704,None,2076.1047560998704,None,53,47,46,48,46,51,2078.620932099875,None,3.0,1.0061225001700222,2078.620932099875,None,2078.620932099875,None,2078.620932099875,None,2078.620932099875,None,None,None,2079.643094900064,None,,,,,,,130,f,1,2022_Dec_12_1448,RL,2021.2.3,59.928972171566855,
1,59,0,59,0,,,,,,,,,,,,,,,None,None,None,None,None,2081.647473799996,None,2081.647473799996,None,2081.647473799996,None,2081.647473799996,None,i,0.3460188000462949,2081.647473799996,None,2081.647473799996,None,2082.0358307000715,None,2082.0358307000715,None,2082.0358307000715,None,2082.0358307000715,None,2082.0358307000715,None,2082.0358307000715,None,2082.3286711000837,2083.578991000075,2082.3286711000837,2083.578991000075,2083.615282099927,None,2083.615282099927,None,2083.615282099927,None,2083.615282099927,None,2083.615282099927,None,2083.615282099927,None,2083.615282099927,None,2083.615282099927,None,2083.615282099927,None,46,42,53,47,53,52,2086.1253482999746,None,5.0,1.3091339999809861,2086.1253482999746,None,2086.1253482999746,None,2086.1253482999746,None,2086.1253482999746,None,None,None,2087.448022299912,None,,,,,,,130,f,1,2022_Dec_12_1448,RL,2021.2.3,59.928972171566855,
1,60,0,60,0,,,,,,,,,,,,,,,None,None,None,None,None,2089.3363471999764,None,2089.3363471999764,None,2089.3363471999764,None,2089.3363471999764,None,i,0.4367954998742789,2089.3363471999764,None,2089.3363471999764,None,2089.823361299932,None,2089.823361299932,None,2089.823361299932,None,2089.823361299932,None,2089.823361299932,None,2089.823361299932,None,2090.1006863000803,2091.2676770999096,2090.1006863000803,2091.2676770999096,2091.3000209000893,None,2091.3000209000893,None,2091.3000209000893,None,2091.3000209000893,None,2091.3000209000893,None,2091.3000209000893,None,2091.3000209000893,None,2091.3000209000893,None,2091.3000209000893,None,50,45,56,46,56,60,2093.820252999896,None,5.0,1.2666221000254154,2093.820252999896,None,2093.820252999896,None,2093.820252999896,None,2093.820252999896,None,None,None,2095.103804799961,None,,,,,,,130,f,1,2022_Dec_12_1448,RL,2021.2.3,59.928972171566855,
1,61,0,61,0,,,,,,,,,,,,,,,None,None,None,None,None,2096.7414974998683,None,2096.7414974998683,None,2096.7414974998683,None,2096.7414974998683,None,i,0.5121470000594854,2096.7414974998683,None,2096.7414974998683,None,2097.297272399999,None,2097.297272399999,None,2097.297272399999,None,2097.297272399999,None,2097.297272399999,None,2097.297272399999,None,2097.5888898998965,2098.6396985000465,2097.5888898998965,2098.6396985000465,2098.671181899961,None,2098.671181899961,None,2098.671181899961,None,2098.671181899961,None,2098.671181899961,None,2098.671181899961,None,2098.671181899961,None,2098.671181899961,None,2098.671181899961,None,48,40,60,40,60,57,2101.188958399929,None,5.0,1.3709478999953717,2101.188958399929,None,2101.188958399929,None,2101.188958399929,None,2101.188958399929,None,None,None,2102.575365799945,None,,,,,,,130,f,1,2022_Dec_12_1448,RL,2021.2.3,59.928972171566855,
1,62,0,62,0,,,,,,,,,,,,,,,None,None,None,None,None,2104.5628996999003,None,2104.5628996999003,None,2104.5628996999003,None,2104.5628996999003,None,i,0.3506538001820445,2104.5628996999003,None,2104.5628996999003,None,2104.967634300003,None,2104.967634300003,None,2104.967634300003,None,2104.967634300003,None,2104.967634300003,None,2104.967634300003,None,2105.2609836999327,None,2105.2609836999327,None,2107.17718099989,None,2107.17718099989,None,2107.17718099989,None,2107.17718099989,None,2107.17718099989,None,2107.17718099989,None,2107.17718099989,None,2107.17718099989,None,2107.17718099989,None,46,42,45,42,45,46,2109.695500700036,None,6.0,0.9704314998816699,2109.695500700036,None,2109.695500700036,None,2109.695500700036,None,2109.695500700036,None,None,None,2110.6895341998897,None,,,,,,,130,f,1,2022_Dec_12_1448,RL,2021.2.3,59.928972171566855,
1,63,0,63,0,,,,,,,,,,,,,,,None,None,None,None,None,2112.468898399966,None,2112.468898399966,None,2112.468898399966,None,2112.468898399966,None,i,0.45486770011484623,2112.468898399966,None,2112.468898399966,None,2112.9726493000053,None,2112.9726493000053,None,2112.9726493000053,None,2112.9726493000053,None,2112.9726493000053,None,2112.9726493000053,None,2113.266451699892,None,2113.266451699892,None,2114.430261099944,None,2114.430261099944,None,2114.430261099944,None,2114.430261099944,None,2114.430261099944,None,2114.430261099944,None,2114.430261099944,None,2114.430261099944,None,2114.430261099944,None,43,49,42,36,42,55,2116.949426600011,None,4.0,2.4057905999943614,2116.949426600011,None,2116.949426600011,None,2116.949426600011,None,2116.949426600011,None,None,None,2119.378941899864,None,,,,,,,130,f,1,2022_Dec_12_1448,RL,2021.2.3,59.928972171566855,
1,64,0,64,0,,,,,,,,,,,,,,,None,None,None,None,None,2121.1094267999288,None,2121.1094267999288,None,2121.1094267999288,None,2121.1094267999288,None,r,1.054222899954766,2121.1094267999288,None,2121.1094267999288,None,2122.2096446000505,None,2122.2096446000505,None,2122.2096446000505,None,2122.2096446000505,None,2122.2096446000505,None,2122.2096446000505,None,2122.506231599953,None,2122.506231599953,None,2124.1535181999207,None,2124.1535181999207,None,2124.1535181999207,None,2124.1535181999207,None,2124.1535181999207,None,2124.1535181999207,None,2124.1535181999207,None,2124.1535181999207,None,2124.1535181999207,None,47,51,42,46,47,51,2126.663474800065,None,4.0,0.6791385000105947,2126.663474800065,None,2126.663474800065,None,2126.663474800065,None,2126.663474800065,None,None,None,2127.3599795000628,None,,,,,,,130,f,1,2022_Dec_12_1448,RL,2021.2.3,59.928972171566855,
1,65,0,65,0,,,,,,,,,,,,,,,None,None,None,None,None,2129.130126599921,None,2129.130126599921,None,2129.130126599921,None,2129.130126599921,None,r,0.5436029999982566,2129.130126599921,None,2129.130126599921,None,2129.7159150999505,None,2129.7159150999505,None,2129.7159150999505,None,2129.7159150999505,None,2129.7159150999505,None,2129.7159150999505,None,2130.0114617999643,None,2130.0114617999643,None,2131.3914890000597,None,2131.3914890000597,None,2131.3914890000597,None,2131.3914890000597,None,2131.3914890000597,None,2131.3914890000597,None,2131.3914890000597,None,2131.3914890000597,None,2131.3914890000597,None,55,47,39,33,55,56,2133.910797599936,None,3.0,0.5727706998586655,2133.910797599936,None,2133.910797599936,None,2133.910797599936,None,2133.910797599936,None,None,None,2134.5074215000495,None,,,,,,,130,f,1,2022_Dec_12_1448,RL,2021.2.3,59.928972171566855,
1,66,0,66,0,,,,,,,,,,,,,,,None,None,None,None,None,2136.201971200062,None,2136.201971200062,None,2136.201971200062,None,2136.201971200062,None,i,0.2817390998825431,2136.201971200062,None,2136.201971200062,None,2136.5252070999704,None,2136.5252070999704,None,2136.5252070999704,None,2136.5252070999704,None,2136.5252070999704,None,2136.5252070999704,None,2136.816077800002,2138.5504387998953,2136.816077800002,2138.5504387998953,2138.581487499876,None,2138.581487499876,None,2138.581487499876,None,2138.581487499876,None,2138.581487499876,None,2138.581487499876,None,2138.581487499876,None,2138.581487499876,None,2138.581487499876,None,49,53,46,38,46,57,2141.1008385999594,None,3.0,0.7179646999575198,2141.1008385999594,None,2141.1008385999594,None,2141.1008385999594,None,2141.1008385999594,None,None,None,2141.8369430999737,None,,,,,,,130,f,1,2022_Dec_12_1448,RL,2021.2.3,59.928972171566855,
1,67,0,67,0,,,,,,,,,,,,,,,None,None,None,None,None,2143.707308599958,None,2143.707308599958,None,2143.707308599958,None,2143.707308599958,None,i,0.6064565000124276,2143.707308599958,None,2143.707308599958,None,2144.3617269999813,None,2144.3617269999813,None,2144.3617269999813,None,2144.3617269999813,None,2144.3617269999813,None,2144.3617269999813,None,2144.6382210000884,2145.572346800007,2144.6382210000884,2145.572346800007,2145.6054706000723,None,2145.6054706000723,None,2145.6054706000723,None,2145.6054706000723,None,2145.6054706000723,None,2145.6054706000723,None,2145.6054706000723,None,2145.6054706000723,None,2145.6054706000723,None,49,44,40,45,40,62,2148.1245383000933,None,2.0,0.7176419000606984,2148.1245383000933,None,2148.1245383000933,None,2148.1245383000933,None,2148.1245383000933,None,None,None,2148.867640499957,None,,,,,,,130,f,1,2022_Dec_12_1448,RL,2021.2.3,59.928972171566855,
1,68,0,68,0,,,,,,,,,,,,,,,None,None,None,None,None,2150.3975124999415,None,2150.3975124999415,None,2150.3975124999415,None,2150.3975124999415,None,i,0.33618829981423914,2150.3975124999415,None,2150.3975124999415,None,2150.782961799996,None,2150.782961799996,None,2150.782961799996,None,2150.782961799996,None,2150.782961799996,None,2150.782961799996,None,2151.059299600078,2152.5270227000583,2151.059299600078,2152.5270227000583,2152.5587398998905,None,2152.5587398998905,None,2152.5587398998905,None,2152.5587398998905,None,2152.5587398998905,None,2152.5587398998905,None,2152.5587398998905,None,2152.5587398998905,None,2152.5587398998905,None,58,44,44,45,44,65,2155.075711600017,None,2.0,0.854506199946627,2155.075711600017,None,2155.075711600017,None,2155.075711600017,None,2155.075711600017,None,None,None,2155.9455657000653,None,,,,,,,130,f,1,2022_Dec_12_1448,RL,2021.2.3,59.928972171566855,
1,69,0,69,0,,,,,,,,,,,,,,,None,None,None,None,None,2157.4496374998707,None,2157.4496374998707,None,2157.4496374998707,None,2157.4496374998707,None,r,0.32399159995839,2157.4496374998707,None,2157.4496374998707,None,2157.8187199998647,None,2157.8187199998647,None,2157.8187199998647,None,2157.8187199998647,None,2157.8187199998647,None,2157.8187199998647,None,2158.1142414999194,None,2158.1142414999194,None,2158.961387099931,None,2158.961387099931,None,2158.961387099931,None,2158.961387099931,None,2158.961387099931,None,2158.961387099931,None,2158.961387099931,None,2158.961387099931,None,2158.961387099931,None,51,45,44,49,51,48,2161.4799075999763,None,5.0,0.5881380001083016,2161.4799075999763,None,2161.4799075999763,None,2161.4799075999763,None,2161.4799075999763,None,None,None,2162.0835164000746,None,,,,,,,130,f,1,2022_Dec_12_1448,RL,2021.2.3,59.928972171566855,
1,70,0,70,0,,,,,,,,,,,,,,,None,None,None,None,None,2163.9883200998884,None,2163.9883200998884,None,2163.9883200998884,None,2163.9883200998884,None,f,0.2254194999113679,2163.9883200998884,None,2163.9883200998884,None,2164.258366700029,None,2164.258366700029,None,2164.258366700029,None,2164.258366700029,None,2164.258366700029,None,2164.258366700029,None,2164.5520075999666,None,2164.5520075999666,None,2165.7552038999274,None,2165.7552038999274,None,2165.7552038999274,None,2165.7552038999274,None,2165.7552038999274,None,2165.7552038999274,None,2165.7552038999274,None,2165.7552038999274,None,2165.7552038999274,None,47,43,43,43,43,58,2168.266905199969,None,4.0,0.8213281999342144,2168.266905199969,None,2168.266905199969,None,2168.266905199969,None,2168.266905199969,None,None,None,2169.104596100049,None,,,,,,,130,f,1,2022_Dec_12_1448,RL,2021.2.3,59.928972171566855,
1,71,0,71,0,,,,,,,,,,,,,,,None,None,None,None,None,2170.8436257999856,None,2170.8436257999856,None,2170.8436257999856,None,2170.8436257999856,None,r,0.8104507999960333,2170.8436257999856,None,2170.8436257999856,None,2171.6939504998736,None,2171.6939504998736,None,2171.6939504998736,None,2171.6939504998736,None,2171.6939504998736,None,2171.6939504998736,None,2171.9904700999614,None,2171.9904700999614,None,2173.292183100013,None,2173.292183100013,None,2173.292183100013,None,2173.292183100013,None,2173.292183100013,None,2173.292183100013,None,2173.292183100013,None,2173.292183100013,None,2173.292183100013,None,43,42,52,47,43,54,2175.8056918000802,None,4.0,0.80421660002321,2175.8056918000802,None,2175.8056918000802,None,2175.8056918000802,None,2175.8056918000802,None,None,None,2176.6264164999593,None,,,,,,,130,f,1,2022_Dec_12_1448,RL,2021.2.3,59.928972171566855,
1,72,0,72,0,,,,,,,,,,,,,,,None,None,None,None,None,2178.3810588999186,None,2178.3810588999186,None,2178.3810588999186,None,2178.3810588999186,None,j,0.8132624998688698,2178.3810588999186,None,2178.3810588999186,None,2179.234793700045,None,2179.234793700045,None,2179.234793700045,None,2179.234793700045,None,2179.234793700045,None,2179.234793700045,None,2179.5291460999288,2180.379532400053,2179.5291460999288,2180.379532400053,2180.411548000062,None,2180.411548000062,None,2180.411548000062,None,2180.411548000062,None,2180.411548000062,None,2180.411548000062,None,2180.411548000062,None,2180.411548000062,None,2180.411548000062,None,48,46,46,56,56,51,2182.92940360005,None,5.0,0.8358678000513464,2182.92940360005,None,2182.92940360005,None,2182.92940360005,None,2182.92940360005,None,None,None,2183.78145270003,None,,,,,,,130,f,1,2022_Dec_12_1448,RL,2021.2.3,59.928972171566855,
1,73,0,73,0,,,,,,,,,,,,,,,None,None,None,None,None,2185.7697548998985,None,2185.7697548998985,None,2185.7697548998985,None,2185.7697548998985,None,j,0.30418389989063144,2185.7697548998985,None,2185.7697548998985,None,2186.1216818999965,None,2186.1216818999965,None,2186.1216818999965,None,2186.1216818999965,None,2186.1216818999965,None,2186.1216818999965,None,2186.4171907999553,None,2186.4171907999553,None,2187.731029300019,None,2187.731029300019,None,2187.731029300019,None,2187.731029300019,None,2187.731029300019,None,2187.731029300019,None,2187.731029300019,None,2187.731029300019,None,2187.731029300019,None,46,48,40,54,54,62,2190.2516310999636,None,3.0,1.4037564001046121,2190.2516310999636,None,2190.2516310999636,None,2190.2516310999636,None,2190.2516310999636,None,None,None,2191.6702735999133,None,,,,,,,130,f,1,2022_Dec_12_1448,RL,2021.2.3,59.928972171566855,
1,74,0,74,0,,,,,,,,,,,,,,,None,None,None,None,None,2193.6095797000453,None,2193.6095797000453,None,2193.6095797000453,None,2193.6095797000453,None,i,0.43450219999067485,2193.6095797000453,None,2193.6095797000453,None,2194.095910300035,None,2194.095910300035,None,2194.095910300035,None,2194.095910300035,None,2194.095910300035,None,2194.095910300035,None,2194.389400899876,None,2194.389400899876,None,2196.253444700036,None,2196.253444700036,None,2196.253444700036,None,2196.253444700036,None,2196.253444700036,None,2196.253444700036,None,2196.253444700036,None,2196.253444700036,None,2196.253444700036,None,56,45,47,54,47,58,2198.771807299927,None,2.0,1.539957599947229,2198.771807299927,None,2198.771807299927,None,2198.771807299927,None,2198.771807299927,None,None,None,2200.3351332000457,None,,,,,,,130,f,1,2022_Dec_12_1448,RL,2021.2.3,59.928972171566855,
1,75,0,75,0,,,,,,,,,,,,,,,2202.127875200007,None,q,2202.127875200007,None,2295.161431999877,None,2295.161431999877,None,2295.161431999877,None,2295.161431999877,None,r,1.1713300999253988,2295.161431999877,None,2295.161431999877,None,2296.3797563000116,None,2296.3797563000116,None,2296.3797563000116,None,2296.3797563000116,None,2296.3797563000116,None,2296.3797563000116,None,2296.676961899968,None,2296.676961899968,None,2298.5934730998706,None,2298.5934730998706,None,2298.5934730998706,None,2298.5934730998706,None,2298.5934730998706,None,2298.5934730998706,None,2298.5934730998706,None,2298.5934730998706,None,2298.5934730998706,None,54,44,56,49,54,51,2301.110605600057,None,2.0,0.936966500012204,2301.110605600057,None,2301.110605600057,None,2301.110605600057,None,2301.110605600057,None,None,None,2302.0635327000637,None,93.00473080016673,,,,,,130,f,1,2022_Dec_12_1448,RL,2021.2.3,59.928972171566855,
1,76,0,76,0,,,,,,,,,,,,,,,None,None,None,None,None,2303.768167800037,None,2303.768167800037,None,2303.768167800037,None,2303.768167800037,None,r,0.9244844000786543,2303.768167800037,None,2303.768167800037,None,2304.737446599873,None,2304.737446599873,None,2304.737446599873,None,2304.737446599873,None,2304.737446599873,None,2304.737446599873,None,2305.0327902999707,None,2305.0327902999707,None,2305.934167099884,None,2305.934167099884,None,2305.934167099884,None,2305.934167099884,None,2305.934167099884,None,2305.934167099884,None,2305.934167099884,None,2305.934167099884,None,2305.934167099884,None,49,46,47,58,49,64,2308.4512567999773,None,1.0,0.7028614000882953,2308.4512567999773,None,2308.4512567999773,None,2308.4512567999773,None,2308.4512567999773,None,None,None,2309.1686018998735,None,,,,,,,130,f,1,2022_Dec_12_1448,RL,2021.2.3,59.928972171566855,
1,77,0,77,0,,,,,,,,,,,,,,,None,None,None,None,None,2310.689609599998,None,2310.689609599998,None,2310.689609599998,None,2310.689609599998,None,i,0.3431113001424819,2310.689609599998,None,2310.689609599998,None,2311.0756228999235,None,2311.0756228999235,None,2311.0756228999235,None,2311.0756228999235,None,2311.0756228999235,None,2311.0756228999235,None,2311.3704770000186,None,2311.3704770000186,None,2312.2836567000486,None,2312.2836567000486,None,2312.2836567000486,None,2312.2836567000486,None,2312.2836567000486,None,2312.2836567000486,None,2312.2836567000486,None,2312.2836567000486,None,2312.2836567000486,None,59,41,50,60,50,50,2314.8113933999557,None,4.0,0.5317046998534352,2314.8113933999557,None,2314.8113933999557,None,2314.8113933999557,None,2314.8113933999557,None,None,None,2315.3560897998977,None,,,,,,,130,f,1,2022_Dec_12_1448,RL,2021.2.3,59.928972171566855,
1,78,0,78,0,,,,,,,,,,,,,,,None,None,None,None,None,2317.2610454000533,None,2317.2610454000533,None,2317.2610454000533,None,2317.2610454000533,None,i,0.3918171999976039,2317.2610454000533,None,2317.2610454000533,None,2317.703155199997,None,2317.703155199997,None,2317.703155199997,None,2317.703155199997,None,2317.703155199997,None,2317.703155199997,None,2317.9917369000614,2319.49288600008,2317.9917369000614,2319.49288600008,2319.5278960000724,None,2319.5278960000724,None,2319.5278960000724,None,2319.5278960000724,None,2319.5278960000724,None,2319.5278960000724,None,2319.5278960000724,None,2319.5278960000724,None,2319.5278960000724,None,58,50,42,56,42,65,2322.04549030005,None,3.0,0.7515390999615192,2322.04549030005,None,2322.04549030005,None,2322.04549030005,None,2322.04549030005,None,None,None,2322.8115220000036,None,,,,,,,130,f,1,2022_Dec_12_1448,RL,2021.2.3,59.928972171566855,
1,79,0,79,0,,,,,,,,,,,,,,,None,None,None,None,None,2324.5158915999345,None,2324.5158915999345,None,2324.5158915999345,None,2324.5158915999345,None,j,0.3669515000656247,2324.5158915999345,None,2324.5158915999345,None,2324.9375845999457,None,2324.9375845999457,None,2324.9375845999457,None,2324.9375845999457,None,2324.9375845999457,None,2324.9375845999457,None,2325.2302010999992,2326.030502199894,2325.2302010999992,2326.030502199894,2326.0625376000535,None,2326.0625376000535,None,2326.0625376000535,None,2326.0625376000535,None,2326.0625376000535,None,2326.0625376000535,None,2326.0625376000535,None,2326.0625376000535,None,2326.0625376000535,None,50,46,46,53,53,52,2328.5786639999133,None,3.0,1.5715028999838978,2328.5786639999133,None,2328.5786639999133,None,2328.5786639999133,None,2328.5786639999133,None,None,None,2330.1661779000424,None,,,,,,,130,f,1,2022_Dec_12_1448,RL,2021.2.3,59.928972171566855,
1,80,0,80,0,,,,,,,,,,,,,,,None,None,None,None,None,2331.8878462000284,None,2331.8878462000284,None,2331.8878462000284,None,2331.8878462000284,None,j,0.49505400005728006,2331.8878462000284,None,2331.8878462000284,None,2332.4233095999807,None,2332.4233095999807,None,2332.4233095999807,None,2332.4233095999807,None,2332.4233095999807,None,2332.4233095999807,None,2332.718703799881,None,2332.718703799881,None,2334.0145310000516,None,2334.0145310000516,None,2334.0145310000516,None,2334.0145310000516,None,2334.0145310000516,None,2334.0145310000516,None,2334.0145310000516,None,2334.0145310000516,None,2334.0145310000516,None,47,44,45,53,53,63,2336.533238499891,None,2.0,0.9907568001653999,2336.533238499891,None,2336.533238499891,None,2336.533238499891,None,2336.533238499891,None,None,None,2337.5485419998877,None,,,,,,,130,f,1,2022_Dec_12_1448,RL,2021.2.3,59.928972171566855,
1,81,0,81,0,,,,,,,,,,,,,,,None,None,None,None,None,2339.25958419987,None,2339.25958419987,None,2339.25958419987,None,2339.25958419987,None,r,1.2736176000908017,2339.25958419987,None,2339.25958419987,None,2340.5776179998647,None,2340.5776179998647,None,2340.5776179998647,None,2340.5776179998647,None,2340.5776179998647,None,2340.5776179998647,None,2340.874354700092,None,2340.874354700092,None,2342.175964599941,None,2342.175964599941,None,2342.175964599941,None,2342.175964599941,None,2342.175964599941,None,2342.175964599941,None,2342.175964599941,None,2342.175964599941,None,2342.175964599941,None,55,39,52,53,55,60,2344.6932164998725,None,1.0,1.0020686998032033,2344.6932164998725,None,2344.6932164998725,None,2344.6932164998725,None,2344.6932164998725,None,None,None,2345.710392399924,None,,,,,,,130,f,1,2022_Dec_12_1448,RL,2021.2.3,59.928972171566855,
1,82,0,82,0,,,,,,,,,,,,,,,None,None,None,None,None,2347.2811364999507,None,2347.2811364999507,None,2347.2811364999507,None,2347.2811364999507,None,f,0.5116741999518126,2347.2811364999507,None,2347.2811364999507,None,2347.833847499918,None,2347.833847499918,None,2347.833847499918,None,2347.833847499918,None,2347.833847499918,None,2347.833847499918,None,2348.1295447999146,None,2348.1295447999146,None,2349.877938200021,None,2349.877938200021,None,2349.877938200021,None,2349.877938200021,None,2349.877938200021,None,2349.877938200021,None,2349.877938200021,None,2349.877938200021,None,2349.877938200021,None,58,44,42,57,44,42,2352.3956879999023,None,5.0,1.1399762998335063,2352.3956879999023,None,2352.3956879999023,None,2352.3956879999023,None,2352.3956879999023,None,None,None,2353.559347399976,None,,,,,,,130,f,1,2022_Dec_12_1448,RL,2021.2.3,59.928972171566855,
1,83,0,83,0,,,,,,,,,,,,,,,None,None,None,None,None,2355.5544720999897,None,2355.5544720999897,None,2355.5544720999897,None,2355.5544720999897,None,j,1.4585462000686675,2355.5544720999897,None,2355.5544720999897,None,2357.0569372000173,None,2357.0569372000173,None,2357.0569372000173,None,2357.0569372000173,None,2357.0569372000173,None,2357.0569372000173,None,2357.352310499875,2358.1696488000453,2357.352310499875,2358.1696488000453,2358.207796300063,None,2358.207796300063,None,2358.207796300063,None,2358.207796300063,None,2358.207796300063,None,2358.207796300063,None,2358.207796300063,None,2358.207796300063,None,2358.207796300063,None,66,52,42,57,57,59,2360.7352064999286,None,3.0,0.5875833998434246,2360.7352064999286,None,2360.7352064999286,None,2360.7352064999286,None,2360.7352064999286,None,None,None,2361.3486234999727,None,,,,,,,130,f,1,2022_Dec_12_1448,RL,2021.2.3,59.928972171566855,
1,84,0,84,0,,,,,,,,,,,,,,,None,None,None,None,None,2363.1596866999753,None,2363.1596866999753,None,2363.1596866999753,None,2363.1596866999753,None,f,0.39343820000067353,2363.1596866999753,None,2363.1596866999753,None,2363.5951662000734,None,2363.5951662000734,None,2363.5951662000734,None,2363.5951662000734,None,2363.5951662000734,None,2363.5951662000734,None,2363.8902469000313,2365.7746220999397,2363.8902469000313,2365.7746220999397,2365.8055781999137,None,2365.8055781999137,None,2365.8055781999137,None,2365.8055781999137,None,2365.8055781999137,None,2365.8055781999137,None,2365.8055781999137,None,2365.8055781999137,None,2365.8055781999137,None,58,40,37,60,40,66,2368.3218783999328,None,5.0,0.5538347000256181,2368.3218783999328,None,2368.3218783999328,None,2368.3218783999328,None,2368.3218783999328,None,None,None,2368.8936292999424,None,,,,,,,130,f,1,2022_Dec_12_1448,RL,2021.2.3,59.928972171566855,
1,85,0,85,0,,,,,,,,,,,,,,,None,None,None,None,None,2370.8814693000168,None,2370.8814693000168,None,2370.8814693000168,None,2370.8814693000168,None,j,0.3210739998612553,2370.8814693000168,None,2370.8814693000168,None,2371.2517093000934,None,2371.2517093000934,None,2371.2517093000934,None,2371.2517093000934,None,2371.2517093000934,None,2371.2517093000934,None,2371.5455215000547,2372.76305170008,2371.5455215000547,2372.76305170008,2372.794216600014,None,2372.794216600014,None,2372.794216600014,None,2372.794216600014,None,2372.794216600014,None,2372.794216600014,None,2372.794216600014,None,2372.794216600014,None,2372.794216600014,None,56,41,47,62,62,49,2375.3131723999977,None,7.0,0.6689880001358688,2375.3131723999977,None,2375.3131723999977,None,2375.3131723999977,None,2375.3131723999977,None,None,None,2375.998005399946,None,,,,,,,130,f,1,2022_Dec_12_1448,RL,2021.2.3,59.928972171566855,
1,86,0,86,0,,,,,,,,,,,,,,,None,None,None,None,None,2377.6524441000074,None,2377.6524441000074,None,2377.6524441000074,None,2377.6524441000074,None,i,0.3016629000194371,2377.6524441000074,None,2377.6524441000074,None,2378.007190000033,None,2378.007190000033,None,2378.007190000033,None,2378.007190000033,None,2378.007190000033,None,2378.007190000033,None,2378.3002822999842,None,2378.3002822999842,None,2379.6492834000383,None,2379.6492834000383,None,2379.6492834000383,None,2379.6492834000383,None,2379.6492834000383,None,2379.6492834000383,None,2379.6492834000383,None,2379.6492834000383,None,2379.6492834000383,None,61,46,48,57,48,51,2382.166016699979,None,6.0,1.2048170000780374,2382.166016699979,None,2382.166016699979,None,2382.166016699979,None,2382.166016699979,None,None,None,2383.3866236999165,None,,,,,,,130,f,1,2022_Dec_12_1448,RL,2021.2.3,59.928972171566855,
1,87,0,87,0,,,,,,,,,,,,,,,None,None,None,None,None,2385.3248993000016,None,2385.3248993000016,None,2385.3248993000016,None,2385.3248993000016,None,i,0.5991150999907404,2385.3248993000016,None,2385.3248993000016,None,2385.978800199926,None,2385.978800199926,None,2385.978800199926,None,2385.978800199926,None,2385.978800199926,None,2385.978800199926,None,2386.25572060002,2388.1902443999425,2386.25572060002,2388.1902443999425,2388.2256584998686,None,2388.2256584998686,None,2388.2256584998686,None,2388.2256584998686,None,2388.2256584998686,None,2388.2256584998686,None,2388.2256584998686,None,2388.2256584998686,None,2388.2256584998686,None,58,47,52,47,52,51,2390.7513019999024,None,4.0,1.3798853000625968,2390.7513019999024,None,2390.7513019999024,None,2390.7513019999024,None,2390.7513019999024,None,None,None,2392.1428878000006,None,,,,,,,130,f,1,2022_Dec_12_1448,RL,2021.2.3,59.928972171566855,
1,88,0,88,0,,,,,,,,,,,,,,,None,None,None,None,None,2393.9635081999004,None,2393.9635081999004,None,2393.9635081999004,None,2393.9635081999004,None,i,0.42062740004621446,2393.9635081999004,None,2393.9635081999004,None,2394.433786700014,None,2394.433786700014,None,2394.433786700014,None,2394.433786700014,None,2394.433786700014,None,2394.433786700014,None,2394.728328499943,None,2394.728328499943,None,2395.826069199946,None,2395.826069199946,None,2395.826069199946,None,2395.826069199946,None,2395.826069199946,None,2395.826069199946,None,2395.826069199946,None,2395.826069199946,None,2395.826069199946,None,61,43,45,57,45,43,2398.348404099932,None,4.0,1.3668554998002946,2398.348404099932,None,2398.348404099932,None,2398.348404099932,None,2398.348404099932,None,None,None,2399.731181500014,None,,,,,,,130,f,1,2022_Dec_12_1448,RL,2021.2.3,59.928972171566855,
1,89,0,89,0,,,,,,,,,,,,,,,None,None,None,None,None,2401.3519069000613,None,2401.3519069000613,None,2401.3519069000613,None,2401.3519069000613,None,j,0.3222745000384748,2401.3519069000613,None,2401.3519069000613,None,2401.718826999888,None,2401.718826999888,None,2401.718826999888,None,2401.718826999888,None,2401.718826999888,None,2401.718826999888,None,2402.016761200037,None,2402.016761200037,None,2403.064157899935,None,2403.064157899935,None,2403.064157899935,None,2403.064157899935,None,2403.064157899935,None,2403.064157899935,None,2403.064157899935,None,2403.064157899935,None,2403.064157899935,None,60,52,38,51,51,55,2405.582918100059,None,4.0,1.3548451999668032,2405.582918100059,None,2405.582918100059,None,2405.582918100059,None,2405.582918100059,None,None,None,2406.9530982000288,None,,,,,,,130,f,1,2022_Dec_12_1448,RL,2021.2.3,59.928972171566855,
1,90,0,90,0,,,,,,,,,,,,,,,None,None,None,None,None,2408.8411337998696,None,2408.8411337998696,None,2408.8411337998696,None,2408.8411337998696,None,i,0.4432272999547422,2408.8411337998696,None,2408.8411337998696,None,2409.3275180000346,None,2409.3275180000346,None,2409.3275180000346,None,2409.3275180000346,None,2409.3275180000346,None,2409.3275180000346,None,2409.6218788998667,None,2409.6218788998667,None,2410.8933605998755,None,2410.8933605998755,None,2410.8933605998755,None,2410.8933605998755,None,2410.8933605998755,None,2410.8933605998755,None,2410.8933605998755,None,2410.8933605998755,None,2410.8933605998755,None,63,49,43,51,43,33,2413.409608399961,None,6.0,0.748844200046733,2413.409608399961,None,2413.409608399961,None,2413.409608399961,None,2413.409608399961,None,None,None,2414.1745700999163,None,,,,,,,130,f,1,2022_Dec_12_1448,RL,2021.2.3,59.928972171566855,
1,91,0,91,0,,,,,,,,,,,,,,,None,None,None,None,None,2415.712772199884,None,2415.712772199884,None,2415.712772199884,None,2415.712772199884,None,i,0.3114962000399828,2415.712772199884,None,2415.712772199884,None,2416.0638780998997,None,2416.0638780998997,None,2416.0638780998997,None,2416.0638780998997,None,2416.0638780998997,None,2416.0638780998997,None,2416.359943199903,2417.760748300003,2416.359943199903,2417.760748300003,2417.7962146000937,None,2417.7962146000937,None,2417.7962146000937,None,2417.7962146000937,None,2417.7962146000937,None,2417.7962146000937,None,2417.7962146000937,None,2417.7962146000937,None,2417.7962146000937,None,60,41,44,47,44,45,2420.3092314999085,None,4.0,0.6718142000027001,2420.3092314999085,None,2420.3092314999085,None,2420.3092314999085,None,2420.3092314999085,None,None,None,2420.9959853999317,None,,,,,,,130,f,1,2022_Dec_12_1448,RL,2021.2.3,59.928972171566855,
1,92,0,92,0,,,,,,,,,,,,,,,None,None,None,None,None,2422.967090399936,None,2422.967090399936,None,2422.967090399936,None,2422.967090399936,None,j,0.3173895999789238,2422.967090399936,None,2422.967090399936,None,2423.337085200008,None,2423.337085200008,None,2423.337085200008,None,2423.337085200008,None,2423.337085200008,None,2423.337085200008,None,2423.63152429997,None,2423.63152429997,None,2424.4985980000347,None,2424.4985980000347,None,2424.4985980000347,None,2424.4985980000347,None,2424.4985980000347,None,2424.4985980000347,None,2424.4985980000347,None,2424.4985980000347,None,2424.4985980000347,None,67,49,43,54,54,55,2427.014419300016,None,4.0,0.8395177000202239,2427.014419300016,None,2427.014419300016,None,2427.014419300016,None,2427.014419300016,None,None,None,2427.867457000073,None,,,,,,,130,f,1,2022_Dec_12_1448,RL,2021.2.3,59.928972171566855,
1,93,0,93,0,,,,,,,,,,,,,,,None,None,None,None,None,2429.689222499961,None,2429.689222499961,None,2429.689222499961,None,2429.689222499961,None,r,0.3849040998611599,2429.689222499961,None,2429.689222499961,None,2430.131644200068,None,2430.131644200068,None,2430.131644200068,None,2430.131644200068,None,2430.131644200068,None,2430.131644200068,None,2430.419739899924,2431.8371826999355,2430.419739899924,2431.8371826999355,2431.8681650999933,None,2431.8681650999933,None,2431.8681650999933,None,2431.8681650999933,None,2431.8681650999933,None,2431.8681650999933,None,2431.8681650999933,None,2431.8681650999933,None,2431.8681650999933,None,69,56,57,56,69,61,2434.3854801999405,None,6.0,0.6054106999654323,2434.3854801999405,None,2434.3854801999405,None,2434.3854801999405,None,2434.3854801999405,None,None,None,2435.005790000083,None,,,,,,,130,f,1,2022_Dec_12_1448,RL,2021.2.3,59.928972171566855,
1,94,0,94,0,,,,,,,,,,,,,,,None,None,None,None,None,2436.894557399908,None,2436.894557399908,None,2436.894557399908,None,2436.894557399908,None,i,0.3397765001282096,2436.894557399908,None,2436.894557399908,None,2437.281725199893,None,2437.281725199893,None,2437.281725199893,None,2437.281725199893,None,2437.281725199893,None,2437.281725199893,None,2437.574771600077,2439.0754450000823,2437.574771600077,2439.0754450000823,2439.107143000001,None,2439.107143000001,None,2439.107143000001,None,2439.107143000001,None,2439.107143000001,None,2439.107143000001,None,2439.107143000001,None,2439.107143000001,None,2439.107143000001,None,72,57,50,56,50,43,2441.622742800042,None,5.0,1.0719300000928342,2441.622742800042,None,2441.622742800042,None,2441.622742800042,None,2441.622742800042,None,None,None,2442.7194584999233,None,,,,,,,130,f,1,2022_Dec_12_1448,RL,2021.2.3,59.928972171566855,
1,95,0,95,0,,,,,,,,,,,,,,,None,None,None,None,None,2444.282047299901,None,2444.282047299901,None,2444.282047299901,None,2444.282047299901,None,r,0.3823614998254925,2444.282047299901,None,2444.282047299901,None,2444.703213199973,None,2444.703213199973,None,2444.703213199973,None,2444.703213199973,None,2444.703213199973,None,2444.703213199973,None,2444.979962100042,2446.697485700017,2444.979962100042,2446.697485700017,2446.7360304999165,None,2446.7360304999165,None,2446.7360304999165,None,2446.7360304999165,None,2446.7360304999165,None,2446.7360304999165,None,2446.7360304999165,None,2446.7360304999165,None,2446.7360304999165,None,66,57,45,51,66,59,2449.2693672000896,None,6.0,1.4978068000636995,2449.2693672000896,None,2449.2693672000896,None,2449.2693672000896,None,2449.2693672000896,None,None,None,2450.787073899992,None,,,,,,,130,f,1,2022_Dec_12_1448,RL,2021.2.3,59.928972171566855,
1,96,0,96,0,,,,,,,,,,,,,,,None,None,None,None,None,2452.4044331000187,None,2452.4044331000187,None,2452.4044331000187,None,2452.4044331000187,None,j,0.38016679999418557,2452.4044331000187,None,2452.4044331000187,None,2452.826536800014,None,2452.826536800014,None,2452.826536800014,None,2452.826536800014,None,2452.826536800014,None,2452.826536800014,None,2453.1186273000203,None,2453.1186273000203,None,2454.934363699984,None,2454.934363699984,None,2454.934363699984,None,2454.934363699984,None,2454.934363699984,None,2454.934363699984,None,2454.934363699984,None,2454.934363699984,None,2454.934363699984,None,79,50,54,47,47,30,2457.4507832999807,None,7.0,1.136449399869889,2457.4507832999807,None,2457.4507832999807,None,2457.4507832999807,None,2457.4507832999807,None,None,None,2458.605727999937,None,,,,,,,130,f,1,2022_Dec_12_1448,RL,2021.2.3,59.928972171566855,
1,97,0,97,0,,,,,,,,,,,,,,,None,None,None,None,None,2460.6107846999075,None,2460.6107846999075,None,2460.6107846999075,None,2460.6107846999075,None,j,0.4337432000320405,2460.6107846999075,None,2460.6107846999075,None,2461.101955699967,None,2461.101955699967,None,2461.101955699967,None,2461.101955699967,None,2461.101955699967,None,2461.101955699967,None,2461.3910866000224,None,2461.3910866000224,None,2463.2255345000885,None,2463.2255345000885,None,2463.2255345000885,None,2463.2255345000885,None,2463.2255345000885,None,2463.2255345000885,None,2463.2255345000885,None,2463.2255345000885,None,2463.2255345000885,None,73,49,56,62,62,57,2465.7406460999046,None,7.0,0.6731992999557406,2465.7406460999046,None,2465.7406460999046,None,2465.7406460999046,None,2465.7406460999046,None,None,None,2466.429426799994,None,,,,,,,130,f,1,2022_Dec_12_1448,RL,2021.2.3,59.928972171566855,
1,98,0,98,0,,,,,,,,,,,,,,,None,None,None,None,None,2468.1317080999725,None,2468.1317080999725,None,2468.1317080999725,None,2468.1317080999725,None,r,0.7426819999236614,2468.1317080999725,None,2468.1317080999725,None,2468.923547799932,None,2468.923547799932,None,2468.923547799932,None,2468.923547799932,None,2468.923547799932,None,2468.923547799932,None,2469.213251499925,None,2469.213251499925,None,2470.1613692999817,None,2470.1613692999817,None,2470.1613692999817,None,2470.1613692999817,None,2470.1613692999817,None,2470.1613692999817,None,2470.1613692999817,None,2470.1613692999817,None,2470.1613692999817,None,69,43,58,48,69,57,2472.678843199974,None,7.0,1.5049926000647247,2472.678843199974,None,2472.678843199974,None,2472.678843199974,None,2472.678843199974,None,None,None,2474.1995343000162,None,,,,,,,130,f,1,2022_Dec_12_1448,RL,2021.2.3,59.928972171566855,
1,99,0,99,0,,,,,,,,,,,,,,,None,None,None,None,None,2476.1375680000056,None,2476.1375680000056,None,2476.1375680000056,None,2476.1375680000056,None,None,,2476.1375680000056,None,2476.1375680000056,None,None,None,None,None,None,None,None,None,None,None,None,None,None,None,None,None,None,None,None,None,None,None,None,None,None,None,None,None,None,None,None,None,None,None,75,47,55,52,0,**,None,None,None,None,None,None,None,None,None,None,None,None,2477.7009292999282,None,2482.2051667999476,None,,,,,,,130,f,1,2022_Dec_12_1448,RL,2021.2.3,59.928972171566855,
1,100,0,100,0,,,,,,,,,,,,,,,None,None,None,None,None,2484.126006499864,None,2484.126006499864,None,2484.126006499864,None,2484.126006499864,None,i,0.42851599981077015,2484.126006499864,None,2484.126006499864,None,2484.5942865000106,None,2484.5942865000106,None,2484.5942865000106,None,2484.5942865000106,None,2484.5942865000106,None,2484.5942865000106,None,2484.890877600061,None,2484.890877600061,None,2486.7228939998895,None,2486.7228939998895,None,2486.7228939998895,None,2486.7228939998895,None,2486.7228939998895,None,2486.7228939998895,None,2486.7228939998895,None,2486.7228939998895,None,2486.7228939998895,None,82,48,57,46,57,49,2489.2385479998775,None,7.0,2.5757891999091953,2489.2385479998775,None,2489.2385479998775,None,2489.2385479998775,None,2489.2385479998775,None,None,None,2491.837575299898,None,,,,,,,130,f,1,2022_Dec_12_1448,RL,2021.2.3,59.928972171566855,
1,101,0,101,0,,,,,,,,,,,,,,,None,None,None,None,None,2493.433347400045,None,2493.433347400045,None,2493.433347400045,None,2493.433347400045,None,i,0.3711739000864327,2493.433347400045,None,2493.433347400045,None,2493.851214400027,None,2493.851214400027,None,2493.851214400027,None,2493.851214400027,None,2493.851214400027,None,2493.851214400027,None,2494.147190500051,2495.831540300045,2494.147190500051,2495.831540300045,2495.864493600093,None,2495.864493600093,None,2495.864493600093,None,2495.864493600093,None,2495.864493600093,None,2495.864493600093,None,2495.864493600093,None,2495.864493600093,None,2495.864493600093,None,76,50,57,57,57,53,2498.3881576999556,None,6.0,0.749420200008899,2498.3881576999556,None,2498.3881576999556,None,2498.3881576999556,None,2498.3881576999556,None,None,None,2499.158471700037,None,,,,,,,130,f,1,2022_Dec_12_1448,RL,2021.2.3,59.928972171566855,
1,102,0,102,0,,,,,,,,,,,,,,,None,None,None,None,None,2500.888132299995,None,2500.888132299995,None,2500.888132299995,None,2500.888132299995,None,j,0.3263697999063879,2500.888132299995,None,2500.888132299995,None,2501.257413599873,None,2501.257413599873,None,2501.257413599873,None,2501.257413599873,None,2501.257413599873,None,2501.257413599873,None,2501.552280300064,None,2501.552280300064,None,2502.9145798999816,None,2502.9145798999816,None,2502.9145798999816,None,2502.9145798999816,None,2502.9145798999816,None,2502.9145798999816,None,2502.9145798999816,None,2502.9145798999816,None,2502.9145798999816,None,70,52,57,48,48,51,2505.4401807000395,None,6.0,1.5336519998963922,2505.4401807000395,None,2505.4401807000395,None,2505.4401807000395,None,2505.4401807000395,None,None,None,2506.9894840000197,None,,,,,,,130,f,1,2022_Dec_12_1448,RL,2021.2.3,59.928972171566855,
1,103,0,103,0,,,,,,,,,,,,,,,None,None,None,None,None,2508.827027000021,None,2508.827027000021,None,2508.827027000021,None,2508.827027000021,None,i,0.25782379996962845,2508.827027000021,None,2508.827027000021,None,2509.1301627000794,None,2509.1301627000794,None,2509.1301627000794,None,2509.1301627000794,None,2509.1301627000794,None,2509.1301627000794,None,2509.424594099866,None,2509.424594099866,None,2510.355942599941,None,2510.355942599941,None,2510.355942599941,None,2510.355942599941,None,2510.355942599941,None,2510.355942599941,None,2510.355942599941,None,2510.355942599941,None,2510.355942599941,None,78,55,60,58,60,47,2512.8732117000036,None,5.0,1.7539741999935359,2512.8732117000036,None,2512.8732117000036,None,2512.8732117000036,None,2512.8732117000036,None,None,None,2514.645096000051,None,,,,,,,130,f,1,2022_Dec_12_1448,RL,2021.2.3,59.928972171566855,
1,104,0,104,0,,,,,,,,,,,,,,,None,None,None,None,None,2516.1655935000163,None,2516.1655935000163,None,2516.1655935000163,None,2516.1655935000163,None,i,1.0092637001071125,2516.1655935000163,None,2516.1655935000163,None,2517.217890399974,None,2517.217890399974,None,2517.217890399974,None,2517.217890399974,None,2517.217890399974,None,2517.217890399974,None,2517.513279899955,None,2517.513279899955,None,2518.943788500037,None,2518.943788500037,None,2518.943788500037,None,2518.943788500037,None,2518.943788500037,None,2518.943788500037,None,2518.943788500037,None,2518.943788500037,None,2518.943788500037,None,69,38,60,53,60,45,2521.464724099962,None,7.0,1.284430299885571,2521.464724099962,None,2521.464724099962,None,2521.464724099962,None,2521.464724099962,None,None,None,2522.766824499937,None,,,,,,,130,f,1,2022_Dec_12_1448,RL,2021.2.3,59.928972171566855,
1,105,0,105,0,,,,,,,,,,,,,,,None,None,None,None,None,2524.304619899951,None,2524.304619899951,None,2524.304619899951,None,2524.304619899951,None,r,0.30026619997806847,2524.304619899951,None,2524.304619899951,None,2524.6547952999827,None,2524.6547952999827,None,2524.6547952999827,None,2524.6547952999827,None,2524.6547952999827,None,2524.6547952999827,None,2524.951896799961,None,2524.951896799961,None,2526.6817662999965,None,2526.6817662999965,None,2526.6817662999965,None,2526.6817662999965,None,2526.6817662999965,None,2526.6817662999965,None,2526.6817662999965,None,2526.6817662999965,None,2526.6817662999965,None,73,44,49,50,73,55,2529.201146699954,None,7.0,0.7054644001182169,2529.201146699954,None,2529.201146699954,None,2529.201146699954,None,2529.201146699954,None,None,None,2529.9217502998654,None,,,,,,,130,f,1,2022_Dec_12_1448,RL,2021.2.3,59.928972171566855,
1,106,0,106,0,,,,,,,,,,,,,,,None,None,None,None,None,2531.825828399975,None,2531.825828399975,None,2531.825828399975,None,2531.825828399975,None,r,0.35872010001912713,2531.825828399975,None,2531.825828399975,None,2532.2297006999142,None,2532.2297006999142,None,2532.2297006999142,None,2532.2297006999142,None,2532.2297006999142,None,2532.2297006999142,None,2532.5237644000445,None,2532.5237644000445,None,2534.3543618998956,None,2534.3543618998956,None,2534.3543618998956,None,2534.3543618998956,None,2534.3543618998956,None,2534.3543618998956,None,2534.3543618998956,None,2534.3543618998956,None,2534.3543618998956,None,74,51,52,57,74,53,2536.872039800044,None,7.0,1.2049441998824477,2536.872039800044,None,2536.872039800044,None,2536.872039800044,None,2536.872039800044,None,None,None,2538.0943734000903,None,,,,,,,130,f,1,2022_Dec_12_1448,RL,2021.2.3,59.928972171566855,
1,107,0,107,0,,,,,,,,,,,,,,,None,None,None,None,None,2539.71453509992,None,2539.71453509992,None,2539.71453509992,None,2539.71453509992,None,r,0.3714660000987351,2539.71453509992,None,2539.71453509992,None,2540.1319945000578,None,2540.1319945000578,None,2540.1319945000578,None,2540.1319945000578,None,2540.1319945000578,None,2540.1319945000578,None,2540.4293277000543,None,2540.4293277000543,None,2541.901017300086,None,2541.901017300086,None,2541.901017300086,None,2541.901017300086,None,2541.901017300086,None,2541.901017300086,None,2541.901017300086,None,2541.901017300086,None,2541.901017300086,None,75,44,51,46,75,54,2544.430765700061,None,6.0,1.503975700121373,2544.430765700061,None,2544.430765700061,None,2544.430765700061,None,2544.430765700061,None,None,None,2545.9591375999153,None,,,,,,,130,f,1,2022_Dec_12_1448,RL,2021.2.3,59.928972171566855,
1,108,0,108,0,,,,,,,,,,,,,,,None,None,None,None,None,2547.6040171999484,None,2547.6040171999484,None,2547.6040171999484,None,2547.6040171999484,None,r,0.28217290015891194,2547.6040171999484,None,2547.6040171999484,None,2547.9449004000053,None,2547.9449004000053,None,2547.9449004000053,None,2547.9449004000053,None,2547.9449004000053,None,2547.9449004000053,None,2548.234606999904,None,2548.234606999904,None,2549.765983799938,None,2549.765983799938,None,2549.765983799938,None,2549.765983799938,None,2549.765983799938,None,2549.765983799938,None,2549.765983799938,None,2549.765983799938,None,2549.765983799938,None,79,47,52,53,79,65,2552.2846198999323,None,7.0,0.6680997000075877,2552.2846198999323,None,2552.2846198999323,None,2552.2846198999323,None,2552.2846198999323,None,None,None,2552.978851800086,None,,,,,,,130,f,1,2022_Dec_12_1448,RL,2021.2.3,59.928972171566855,
1,109,0,109,0,,,,,,,,,,,,,,,None,None,None,None,None,2554.5924442000687,None,2554.5924442000687,None,2554.5924442000687,None,2554.5924442000687,None,r,0.30322830006480217,2554.5924442000687,None,2554.5924442000687,None,2554.943331599934,None,2554.943331599934,None,2554.943331599934,None,2554.943331599934,None,2554.943331599934,None,2554.943331599934,None,2555.239577200031,2556.640200499911,2555.239577200031,2556.640200499911,2556.6599425000604,None,2556.6599425000604,None,2556.6599425000604,None,2556.6599425000604,None,2556.6599425000604,None,2556.6599425000604,None,2556.6599425000604,None,2556.6599425000604,None,2556.6599425000604,None,81,31,43,58,81,33,2559.1926176999696,None,7.0,0.6845108000561595,2559.1926176999696,None,2559.1926176999696,None,2559.1926176999696,None,2559.1926176999696,None,None,None,2559.89217570005,None,,,,,,,130,f,1,2022_Dec_12_1448,RL,2021.2.3,59.928972171566855,
1,110,0,110,0,,,,,,,,,,,,,,,None,None,None,None,None,2561.513356300071,None,2561.513356300071,None,2561.513356300071,None,2561.513356300071,None,r,0.38317589997313917,2561.513356300071,None,2561.513356300071,None,2561.949050599942,None,2561.949050599942,None,2561.949050599942,None,2561.949050599942,None,2561.949050599942,None,2561.949050599942,None,2562.2444166000932,None,2562.2444166000932,None,2564.19747689995,None,2564.19747689995,None,2564.19747689995,None,2564.19747689995,None,2564.19747689995,None,2564.19747689995,None,2564.19747689995,None,2564.19747689995,None,2564.19747689995,None,75,48,47,53,75,40,2566.714699599892,None,7.0,0.6830308001954108,2566.714699599892,None,2566.714699599892,None,2566.714699599892,None,2566.714699599892,None,None,None,2567.415595599916,None,,,,,,,130,f,1,2022_Dec_12_1448,RL,2021.2.3,59.928972171566855,
