bandit,trials.thisRepN,trials.thisTrialN,trials.thisN,trials.thisIndex,instru_img1.started,instru_img1.stopped,instru_resp.keys,instru_resp.rt,instru_resp.started,instru_resp.stopped,instru_img2.started,instru_img2.stopped,instru_resp2.keys,instru_resp2.rt,instru_resp2.started,instru_resp2.stopped,fixbefore_2.started,fixbefore_2.stopped,rest_image.started,rest_image.stopped,rest_response.keys,rest_response.started,rest_response.stopped,red.started,red.stopped,green.started,green.stopped,yellow.started,yellow.stopped,blue.started,blue.stopped,choose_bandit.keys,choose_bandit.rt,choose_bandit.started,choose_bandit.stopped,Fixation.started,Fixation.stopped,black.started,black.stopped,red_2.started,red_2.stopped,green_2.started,green_2.stopped,yellow_2.started,yellow_2.stopped,blue_2.started,blue_2.stopped,fixation_2.started,fixation_2.stopped,docs.started,docs.stopped,image_2.started,image_2.stopped,black_com.started,black_com.stopped,reward_sub.started,reward_sub.stopped,palyerb.started,palyerb.stopped,reward__sub.started,reward__sub.stopped,compare.started,compare.stopped,red_compare.started,red_compare.stopped,green_com.started,green_com.stopped,yellow_com.started,yellow_com.stopped,blue_com.started,blue_com.stopped,rewardyellow,rewardred,rewardblue,rewardgreen,subchoose,playerb,image_3.started,image_3.stopped,slider.response,slider.rt,slider.started,slider.stopped,text.started,text.stopped,image_4.started,image_4.stopped,image_5.started,image_5.stopped,bigx.started,bigx.stopped,intertrialfix.started,intertrialfix.stopped,rest_response.rt,image.started,image.stopped,key_resp.keys,key_resp.started,key_resp.stopped,participant,Gender,Age,date,expName,psychopyVersion,frameRate,
,,,,,1204.0845226999372,None,space,33.61487220018171,1204.0845226999372,None,,,,,,,,,,,,,,,,,,,,,,,,,,,,,,,,,,,,,,,,,,,,,,,,,,,,,,,,,,,,,,,,,,,,,,,,,,,,,,,,,,,,,,,,,,131,f,1,2022_Dec_12_1537,RL,2021.2.3,59.8497412520611,
,,,,,,,,,,,1237.7247075000778,None,space,79.2863996999804,1237.7247075000778,None,,,,,,,,,,,,,,,,,,,,,,,,,,,,,,,,,,,,,,,,,,,,,,,,,,,,,,,,,,,,,,,,,,,,,,,,,,,,,,,,,,,,131,f,1,2022_Dec_12_1537,RL,2021.2.3,59.8497412520611,
1,0,0,0,0,,,,,,,,,,,,,1317.0405248999596,None,None,None,None,None,None,1318.059511499945,None,1318.059511499945,None,1318.059511499945,None,1318.059511499945,None,i,0.37923739990219474,1318.059511499945,None,1318.059511499945,None,1318.4920154998545,None,1318.4920154998545,None,1318.4920154998545,None,1318.4920154998545,None,1318.4920154998545,None,1318.4920154998545,None,1318.779161799932,1320.0465052998625,1318.779161799932,1320.0465052998625,1320.085258499952,None,1320.085258499952,None,1320.085258499952,None,1320.085258499952,None,1320.085258499952,None,1320.085258499952,None,1320.085258499952,None,1320.085258499952,None,1320.085258499952,None,60,61,56,29,56,50,1322.6234271998983,None,5.0,3.287916500121355,1322.6234271998983,None,1322.6234271998983,None,1322.6234271998983,None,1322.6234271998983,None,None,None,1325.94088010001,None,,,,,,,131,f,1,2022_Dec_12_1537,RL,2021.2.3,59.8497412520611,
1,1,0,1,0,,,,,,,,,,,,,,,None,None,None,None,None,1327.7046034999657,None,1327.7046034999657,None,1327.7046034999657,None,1327.7046034999657,None,f,0.32392540015280247,1327.7046034999657,None,1327.7046034999657,None,1328.079151700018,None,1328.079151700018,None,1328.079151700018,None,1328.079151700018,None,1328.079151700018,None,1328.079151700018,None,1328.3694277000614,None,1328.3694277000614,None,1329.635837999871,None,1329.635837999871,None,1329.635837999871,None,1329.635837999871,None,1329.635837999871,None,1329.635837999871,None,1329.635837999871,None,1329.635837999871,None,1329.635837999871,None,60,52,61,34,52,53,1332.1506334999576,None,4.0,4.723944999976084,1332.1506334999576,None,1332.1506334999576,None,1332.1506334999576,None,1332.1506334999576,None,None,None,1336.8914178998675,None,,,,,,,131,f,1,2022_Dec_12_1537,RL,2021.2.3,59.8497412520611,
1,2,0,2,0,,,,,,,,,,,,,,,None,None,None,None,None,1338.7462196000852,None,1338.7462196000852,None,1338.7462196000852,None,1338.7462196000852,None,f,0.3227180000394583,1338.7462196000852,None,1338.7462196000852,None,1339.1152242999524,None,1339.1152242999524,None,1339.1152242999524,None,1339.1152242999524,None,1339.1152242999524,None,1339.1152242999524,None,1339.410011400003,None,1339.410011400003,None,1340.3927781998646,None,1340.3927781998646,None,1340.3927781998646,None,1340.3927781998646,None,1340.3927781998646,None,1340.3927781998646,None,1340.3927781998646,None,1340.3927781998646,None,1340.3927781998646,None,66,52,51,33,52,60,1342.9090457998682,None,3.0,2.7564159999601543,1342.9090457998682,None,1342.9090457998682,None,1342.9090457998682,None,1342.9090457998682,None,None,None,1345.6867068000138,None,,,,,,,131,f,1,2022_Dec_12_1537,RL,2021.2.3,59.8497412520611,
1,3,0,3,0,,,,,,,,,,,,,,,None,None,None,None,None,1347.5516339000314,None,1347.5516339000314,None,1347.5516339000314,None,1347.5516339000314,None,j,0.267206700053066,1347.5516339000314,None,1347.5516339000314,None,1347.8696783999912,None,1347.8696783999912,None,1347.8696783999912,None,1347.8696783999912,None,1347.8696783999912,None,1347.8696783999912,None,1348.1662232999224,None,1348.1662232999224,None,1350.0170128999744,None,1350.0170128999744,None,1350.0170128999744,None,1350.0170128999744,None,1350.0170128999744,None,1350.0170128999744,None,1350.0170128999744,None,1350.0170128999744,None,1350.0170128999744,None,60,54,52,37,37,50,1352.5313969000708,None,2.0,3.156385200098157,1352.5313969000708,None,1352.5313969000708,None,1352.5313969000708,None,1352.5313969000708,None,None,None,1355.7046431999188,None,,,,,,,131,f,1,2022_Dec_12_1537,RL,2021.2.3,59.8497412520611,
1,4,0,4,0,,,,,,,,,,,,,,,None,None,None,None,None,1357.6090748000424,None,1357.6090748000424,None,1357.6090748000424,None,1357.6090748000424,None,r,0.30990910017862916,1357.6090748000424,None,1357.6090748000424,None,1357.9614738000091,None,1357.9614738000091,None,1357.9614738000091,None,1357.9614738000091,None,1357.9614738000091,None,1357.9614738000091,None,1358.256675499957,None,1358.256675499957,None,1359.8610890000127,None,1359.8610890000127,None,1359.8610890000127,None,1359.8610890000127,None,1359.8610890000127,None,1359.8610890000127,None,1359.8610890000127,None,1359.8610890000127,None,1359.8610890000127,None,64,60,49,30,64,37,1362.3730285000056,None,6.0,1.521891200216487,1362.3730285000056,None,1362.3730285000056,None,1362.3730285000056,None,1362.3730285000056,None,None,None,1363.9186227000318,None,,,,,,,131,f,1,2022_Dec_12_1537,RL,2021.2.3,59.8497412520611,
1,5,0,5,0,,,,,,,,,,,,,,,None,None,None,None,None,1365.6313994000666,None,1365.6313994000666,None,1365.6313994000666,None,1365.6313994000666,None,f,0.33757560001686215,1365.6313994000666,None,1365.6313994000666,None,1366.0171735999174,None,1366.0171735999174,None,1366.0171735999174,None,1366.0171735999174,None,1366.0171735999174,None,1366.0171735999174,None,1366.3121219000313,None,1366.3121219000313,None,1368.0105137000792,None,1368.0105137000792,None,1368.0105137000792,None,1368.0105137000792,None,1368.0105137000792,None,1368.0105137000792,None,1368.0105137000792,None,1368.0105137000792,None,1368.0105137000792,None,58,57,46,34,57,46,1370.5284424999263,None,5.0,1.2037855999078602,1370.5284424999263,None,1370.5284424999263,None,1370.5284424999263,None,1370.5284424999263,None,None,None,1371.7488263999112,None,,,,,,,131,f,1,2022_Dec_12_1537,RL,2021.2.3,59.8497412520611,
1,6,0,6,0,,,,,,,,,,,,,,,None,None,None,None,None,1373.4032056999858,None,1373.4032056999858,None,1373.4032056999858,None,1373.4032056999858,None,i,0.45599779998883605,1373.4032056999858,None,1373.4032056999858,None,1373.9058757000603,None,1373.9058757000603,None,1373.9058757000603,None,1373.9058757000603,None,1373.9058757000603,None,1373.9058757000603,None,1374.2009646000806,None,1374.2009646000806,None,1376.206312400056,None,1376.206312400056,None,1376.206312400056,None,1376.206312400056,None,1376.206312400056,None,1376.206312400056,None,1376.206312400056,None,1376.206312400056,None,1376.206312400056,None,63,53,42,40,42,41,1378.7187387000304,None,5.0,1.2530599001329392,1378.7187387000304,None,1378.7187387000304,None,1378.7187387000304,None,1378.7187387000304,None,None,None,1379.987804699922,None,,,,,,,131,f,1,2022_Dec_12_1537,RL,2021.2.3,59.8497412520611,
1,7,0,7,0,,,,,,,,,,,,,,,None,None,None,None,None,1381.992243600078,None,1381.992243600078,None,1381.992243600078,None,1381.992243600078,None,f,0.38697580015286803,1381.992243600078,None,1381.992243600078,None,1382.4279153000098,None,1382.4279153000098,None,1382.4279153000098,None,1382.4279153000098,None,1382.4279153000098,None,1382.4279153000098,None,1382.7236232999712,None,1382.7236232999712,None,1384.1072354000062,None,1384.1072354000062,None,1384.1072354000062,None,1384.1072354000062,None,1384.1072354000062,None,1384.1072354000062,None,1384.1072354000062,None,1384.1072354000062,None,1384.1072354000062,None,60,59,48,41,59,38,1386.6211979999207,None,6.0,1.6069531000684947,1386.6211979999207,None,1386.6211979999207,None,1386.6211979999207,None,1386.6211979999207,None,None,None,1388.2436373999808,None,,,,,,,131,f,1,2022_Dec_12_1537,RL,2021.2.3,59.8497412520611,
1,8,0,8,0,,,,,,,,,,,,,,,None,None,None,None,None,1389.814606799977,None,1389.814606799977,None,1389.814606799977,None,1389.814606799977,None,i,0.33466980000957847,1389.814606799977,None,1389.814606799977,None,1390.2034807999153,None,1390.2034807999153,None,1390.2034807999153,None,1390.2034807999153,None,1390.2034807999153,None,1390.2034807999153,None,1390.4954985000659,1391.5796908999328,1390.4954985000659,1391.5796908999328,1391.6100393999368,None,1391.6100393999368,None,1391.6100393999368,None,1391.6100393999368,None,1391.6100393999368,None,1391.6100393999368,None,1391.6100393999368,None,1391.6100393999368,None,1391.6100393999368,None,47,64,42,43,42,43,1394.1289093999658,None,4.0,1.3374494998715818,1394.1289093999658,None,1394.1289093999658,None,1394.1289093999658,None,1394.1289093999658,None,None,None,1395.4818545999005,None,,,,,,,131,f,1,2022_Dec_12_1537,RL,2021.2.3,59.8497412520611,
1,9,0,9,0,,,,,,,,,,,,,,,None,None,None,None,None,1397.2531787999906,None,1397.2531787999906,None,1397.2531787999906,None,1397.2531787999906,None,f,0.2859570998698473,1397.2531787999906,None,1397.2531787999906,None,1397.5890128000174,None,1397.5890128000174,None,1397.5890128000174,None,1397.5890128000174,None,1397.5890128000174,None,1397.5890128000174,None,1397.8839477000292,1399.7853637998924,1397.8839477000292,1399.7853637998924,1399.8163461999502,None,1399.8163461999502,None,1399.8163461999502,None,1399.8163461999502,None,1399.8163461999502,None,1399.8163461999502,None,1399.8163461999502,None,1399.8163461999502,None,1399.8163461999502,None,46,61,38,40,61,50,1402.3352129000705,None,4.0,1.5379233001731336,1402.3352129000705,None,1402.3352129000705,None,1402.3352129000705,None,1402.3352129000705,None,None,None,1403.8875760999508,None,,,,,,,131,f,1,2022_Dec_12_1537,RL,2021.2.3,59.8497412520611,
1,10,0,10,0,,,,,,,,,,,,,,,None,None,None,None,None,1405.508591499878,None,1405.508591499878,None,1405.508591499878,None,1405.508591499878,None,i,0.3107553001027554,1405.508591499878,None,1405.508591499878,None,1405.8622234000359,None,1405.8622234000359,None,1405.8622234000359,None,1405.8622234000359,None,1405.8622234000359,None,1405.8622234000359,None,1406.1563778000418,None,1406.1563778000418,None,1407.702927700011,None,1407.702927700011,None,1407.702927700011,None,1407.702927700011,None,1407.702927700011,None,1407.702927700011,None,1407.702927700011,None,1407.702927700011,None,1407.702927700011,None,40,73,37,46,37,53,1410.222654900048,None,5.0,1.0703316000290215,1410.222654900048,None,1410.222654900048,None,1410.222654900048,None,1410.222654900048,None,None,None,1411.3125398999546,None,,,,,,,131,f,1,2022_Dec_12_1537,RL,2021.2.3,59.8497412520611,
1,11,0,11,0,,,,,,,,,,,,,,,None,None,None,None,None,1413.2143071999308,None,1413.2143071999308,None,1413.2143071999308,None,1413.2143071999308,None,f,0.2649755999445915,1413.2143071999308,None,1413.2143071999308,None,1413.5326089998707,None,1413.5326089998707,None,1413.5326089998707,None,1413.5326089998707,None,1413.5326089998707,None,1413.5326089998707,None,1413.8283231998794,None,1413.8283231998794,None,1415.4156297999434,None,1415.4156297999434,None,1415.4156297999434,None,1415.4156297999434,None,1415.4156297999434,None,1415.4156297999434,None,1415.4156297999434,None,1415.4156297999434,None,1415.4156297999434,None,45,62,38,38,62,44,1417.9295862000436,None,5.0,0.8048032000660896,1417.9295862000436,None,1417.9295862000436,None,1417.9295862000436,None,1417.9295862000436,None,None,None,1418.7579598000739,None,,,,,,,131,f,1,2022_Dec_12_1537,RL,2021.2.3,59.8497412520611,
1,12,0,12,0,,,,,,,,,,,,,,,None,None,None,None,None,1420.3359332000837,None,1420.3359332000837,None,1420.3359332000837,None,1420.3359332000837,None,r,0.42350780009292066,1420.3359332000837,None,1420.3359332000837,None,1420.8064158000052,None,1420.8064158000052,None,1420.8064158000052,None,1420.8064158000052,None,1420.8064158000052,None,1420.8064158000052,None,1421.0999958000612,None,1421.0999958000612,None,1422.0123655998614,None,1422.0123655998614,None,1422.0123655998614,None,1422.0123655998614,None,1422.0123655998614,None,1422.0123655998614,None,1422.0123655998614,None,1422.0123655998614,None,1422.0123655998614,None,37,66,46,42,37,52,1424.5357661999296,None,4.0,1.2014128998853266,1424.5357661999296,None,1424.5357661999296,None,1424.5357661999296,None,1424.5357661999296,None,None,None,1425.752619100036,None,,,,,,,131,f,1,2022_Dec_12_1537,RL,2021.2.3,59.8497412520611,
1,13,0,13,0,,,,,,,,,,,,,,,None,None,None,None,None,1427.4571602998767,None,1427.4571602998767,None,1427.4571602998767,None,1427.4571602998767,None,r,0.3221742999739945,1427.4571602998767,None,1427.4571602998767,None,1427.8306825000327,None,1427.8306825000327,None,1427.8306825000327,None,1427.8306825000327,None,1427.8306825000327,None,1427.8306825000327,None,1428.1216013000812,None,1428.1216013000812,None,1429.8894618998747,None,1429.8894618998747,None,1429.8894618998747,None,1429.8894618998747,None,1429.8894618998747,None,1429.8894618998747,None,1429.8894618998747,None,1429.8894618998747,None,1429.8894618998747,None,38,67,49,32,38,55,1432.4057153998874,None,3.0,0.9211040001828223,1432.4057153998874,None,1432.4057153998874,None,1432.4057153998874,None,1432.4057153998874,None,None,None,1433.3415095000528,None,,,,,,,131,f,1,2022_Dec_12_1537,RL,2021.2.3,59.8497412520611,
1,14,0,14,0,,,,,,,,,,,,,,,None,None,None,None,None,1435.029339700006,None,1435.029339700006,None,1435.029339700006,None,1435.029339700006,None,r,0.3499137000180781,1435.029339700006,None,1435.029339700006,None,1435.429935199907,None,1435.429935199907,None,1435.429935199907,None,1435.429935199907,None,1435.429935199907,None,1435.429935199907,None,1435.726864400087,1436.9608857000712,1435.726864400087,1436.9608857000712,1436.9912097998895,None,1436.9912097998895,None,1436.9912097998895,None,1436.9912097998895,None,1436.9912097998895,None,1436.9912097998895,None,1436.9912097998895,None,1436.9912097998895,None,1436.9912097998895,None,42,56,51,35,42,47,1439.5076716998592,None,4.0,1.2067883000709116,1439.5076716998592,None,1439.5076716998592,None,1439.5076716998592,None,1439.5076716998592,None,None,None,1440.729902900057,None,,,,,,,131,f,1,2022_Dec_12_1537,RL,2021.2.3,59.8497412520611,
1,15,0,15,0,,,,,,,,,,,,,,,None,None,None,None,None,1442.6513399998657,None,1442.6513399998657,None,1442.6513399998657,None,1442.6513399998657,None,j,0.31913219997659326,1442.6513399998657,None,1442.6513399998657,None,1443.024508100003,None,1443.024508100003,None,1443.024508100003,None,1443.024508100003,None,1443.024508100003,None,1443.024508100003,None,1443.315443099942,1445.149876399897,1443.315443099942,1445.149876399897,1445.1812879999634,None,1445.1812879999634,None,1445.1812879999634,None,1445.1812879999634,None,1445.1812879999634,None,1445.1812879999634,None,1445.1812879999634,None,1445.1812879999634,None,1445.1812879999634,None,46,53,42,40,40,70,1447.6988716998603,None,5.0,1.222151700174436,1447.6988716998603,None,1447.6988716998603,None,1447.6988716998603,None,1447.6988716998603,None,None,None,1448.93576760008,None,,,,,,,131,f,1,2022_Dec_12_1537,RL,2021.2.3,59.8497412520611,
1,16,0,16,0,,,,,,,,,,,,,,,None,None,None,None,None,1450.9063082998618,None,1450.9063082998618,None,1450.9063082998618,None,1450.9063082998618,None,i,0.24430699995718896,1450.9063082998618,None,1450.9063082998618,None,1451.194676300045,None,1451.194676300045,None,1451.194676300045,None,1451.194676300045,None,1451.194676300045,None,1451.194676300045,None,1451.487828699872,None,1451.487828699872,None,1453.0194363000337,None,1453.0194363000337,None,1453.0194363000337,None,1453.0194363000337,None,1453.0194363000337,None,1453.0194363000337,None,1453.0194363000337,None,1453.0194363000337,None,1453.0194363000337,None,33,51,48,37,48,67,1455.5357568999752,None,3.0,0.9555321999359876,1455.5357568999752,None,1455.5357568999752,None,1455.5357568999752,None,1455.5357568999752,None,None,None,1456.5148483999074,None,,,,,,,131,f,1,2022_Dec_12_1537,RL,2021.2.3,59.8497412520611,
1,17,0,17,0,,,,,,,,,,,,,,,None,None,None,None,None,1458.2122003000695,None,1458.2122003000695,None,1458.2122003000695,None,1458.2122003000695,None,f,0.3183567998930812,1458.2122003000695,None,1458.2122003000695,None,1458.5823093999643,None,1458.5823093999643,None,1458.5823093999643,None,1458.5823093999643,None,1458.5823093999643,None,1458.5823093999643,None,1458.8596373999026,1460.3104381999,1458.8596373999026,1460.3104381999,1460.3591875000857,None,1460.3591875000857,None,1460.3591875000857,None,1460.3591875000857,None,1460.3591875000857,None,1460.3591875000857,None,1460.3591875000857,None,1460.3591875000857,None,1460.3591875000857,None,28,56,48,33,56,47,1462.8739138999954,None,5.0,0.9391648001037538,1462.8739138999954,None,1462.8739138999954,None,1462.8739138999954,None,1462.8739138999954,None,None,None,1463.8292000999209,None,,,,,,,131,f,1,2022_Dec_12_1537,RL,2021.2.3,59.8497412520611,
1,18,0,18,0,,,,,,,,,,,,,,,None,None,None,None,None,1465.4839506999124,None,1465.4839506999124,None,1465.4839506999124,None,1465.4839506999124,None,j,0.3064521001651883,1465.4839506999124,None,1465.4839506999124,None,1465.8344014000613,None,1465.8344014000613,None,1465.8344014000613,None,1465.8344014000613,None,1465.8344014000613,None,1465.8344014000613,None,1466.131163700018,1467.7656598999165,1466.131163700018,1467.7656598999165,1467.796547499951,None,1467.796547499951,None,1467.796547499951,None,1467.796547499951,None,1467.796547499951,None,1467.796547499951,None,1467.796547499951,None,1467.796547499951,None,1467.796547499951,None,35,50,50,42,42,57,1470.3135436000302,None,3.0,0.5392383998259902,1470.3135436000302,None,1470.3135436000302,None,1470.3135436000302,None,1470.3135436000302,None,None,None,1470.8674673999194,None,,,,,,,131,f,1,2022_Dec_12_1537,RL,2021.2.3,59.8497412520611,
1,19,0,19,0,,,,,,,,,,,,,,,None,None,None,None,None,1472.8221976999193,None,1472.8221976999193,None,1472.8221976999193,None,1472.8221976999193,None,j,0.3285664999857545,1472.8221976999193,None,1472.8221976999193,None,1473.1914435999934,None,1473.1914435999934,None,1473.1914435999934,None,1473.1914435999934,None,1473.1914435999934,None,1473.1914435999934,None,1473.4863394000567,None,1473.4863394000567,None,1475.0175469999667,None,1475.0175469999667,None,1475.0175469999667,None,1475.0175469999667,None,1475.0175469999667,None,1475.0175469999667,None,1475.0175469999667,None,1475.0175469999667,None,1475.0175469999667,None,33,49,56,40,40,56,1477.5367103999015,None,4.0,0.7870089998468757,1477.5367103999015,None,1477.5367103999015,None,1477.5367103999015,None,1477.5367103999015,None,None,None,1478.3390995999798,None,,,,,,,131,f,1,2022_Dec_12_1537,RL,2021.2.3,59.8497412520611,
1,20,0,20,0,,,,,,,,,,,,,,,None,None,None,None,None,1479.9938850998878,None,1479.9938850998878,None,1479.9938850998878,None,1479.9938850998878,None,i,0.25708490004763007,1479.9938850998878,None,1479.9938850998878,None,1480.2976432000287,None,1480.2976432000287,None,1480.2976432000287,None,1480.2976432000287,None,1480.2976432000287,None,1480.2976432000287,None,1480.5913712000474,None,1480.5913712000474,None,1481.811440099962,None,1481.811440099962,None,1481.811440099962,None,1481.811440099962,None,1481.811440099962,None,1481.811440099962,None,1481.811440099962,None,1481.811440099962,None,1481.811440099962,None,33,60,44,40,44,41,1484.3223218000494,None,3.0,0.9405755000188947,1484.3223218000494,None,1484.3223218000494,None,1484.3223218000494,None,1484.3223218000494,None,None,None,1485.2776959999464,None,,,,,,,131,f,1,2022_Dec_12_1537,RL,2021.2.3,59.8497412520611,
1,21,0,21,0,,,,,,,,,,,,,,,None,None,None,None,None,1486.8652923998889,None,1486.8652923998889,None,1486.8652923998889,None,1486.8652923998889,None,f,0.3052566999103874,1486.8652923998889,None,1486.8652923998889,None,1487.2172302999534,None,1487.2172302999534,None,1487.2172302999534,None,1487.2172302999534,None,1487.2172302999534,None,1487.2172302999534,None,1487.5128647999372,None,1487.5128647999372,None,1488.8955089999363,None,1488.8955089999363,None,1488.8955089999363,None,1488.8955089999363,None,1488.8955089999363,None,1488.8955089999363,None,1488.8955089999363,None,1488.8955089999363,None,1488.8955089999363,None,46,55,42,38,55,50,1491.4102509000804,None,3.0,0.8907625998836011,1491.4102509000804,None,1491.4102509000804,None,1491.4102509000804,None,1491.4102509000804,None,None,None,1492.3203855999745,None,,,,,,,131,f,1,2022_Dec_12_1537,RL,2021.2.3,59.8497412520611,
1,22,0,22,0,,,,,,,,,,,,,,,None,None,None,None,None,1494.1848362998571,None,1494.1848362998571,None,1494.1848362998571,None,1494.1848362998571,None,f,0.2859088000841439,1494.1848362998571,None,1494.1848362998571,None,1494.5230383998714,None,1494.5230383998714,None,1494.5230383998714,None,1494.5230383998714,None,1494.5230383998714,None,1494.5230383998714,None,1494.8180163998622,None,1494.8180163998622,None,1495.6488041998819,None,1495.6488041998819,None,1495.6488041998819,None,1495.6488041998819,None,1495.6488041998819,None,1495.6488041998819,None,1495.6488041998819,None,1495.6488041998819,None,1495.6488041998819,None,44,59,52,44,59,65,1498.1658461999614,None,5.0,1.2687597000040114,1498.1658461999614,None,1498.1658461999614,None,1498.1658461999614,None,1498.1658461999614,None,None,None,1499.4548231998924,None,,,,,,,131,f,1,2022_Dec_12_1537,RL,2021.2.3,59.8497412520611,
1,23,0,23,0,,,,,,,,,,,,,,,None,None,None,None,None,1501.4248919999227,None,1501.4248919999227,None,1501.4248919999227,None,1501.4248919999227,None,i,0.28597850003279746,1501.4248919999227,None,1501.4248919999227,None,1501.7596779000014,None,1501.7596779000014,None,1501.7596779000014,None,1501.7596779000014,None,1501.7596779000014,None,1501.7596779000014,None,1502.0560147999786,1504.0574729000218,1502.0560147999786,1504.0574729000218,1504.0904695999343,None,1504.0904695999343,None,1504.0904695999343,None,1504.0904695999343,None,1504.0904695999343,None,1504.0904695999343,None,1504.0904695999343,None,1504.0904695999343,None,1504.0904695999343,None,41,51,38,36,38,59,1506.6041367999278,None,5.0,1.2567493999376893,1506.6041367999278,None,1506.6041367999278,None,1506.6041367999278,None,1506.6041367999278,None,None,None,1507.8767059000675,None,,,,,,,131,f,1,2022_Dec_12_1537,RL,2021.2.3,59.8497412520611,
1,24,0,24,0,,,,,,,,,,,,,,,None,None,None,None,None,1509.8648329998832,None,1509.8648329998832,None,1509.8648329998832,None,1509.8648329998832,None,f,0.3662093998864293,1509.8648329998832,None,1509.8648329998832,None,1510.284674699884,None,1510.284674699884,None,1510.284674699884,None,1510.284674699884,None,1510.284674699884,None,1510.284674699884,None,1510.5787969999947,1511.829736100044,1510.5787969999947,1511.829736100044,1511.8594607999548,None,1511.8594607999548,None,1511.8594607999548,None,1511.8594607999548,None,1511.8594607999548,None,1511.8594607999548,None,1511.8594607999548,None,1511.8594607999548,None,1511.8594607999548,None,39,56,39,44,56,44,1514.378917099908,None,6.0,0.7712767000775784,1514.378917099908,None,1514.378917099908,None,1514.378917099908,None,1514.378917099908,None,None,None,1515.164805300068,None,,,,,,,131,f,1,2022_Dec_12_1537,RL,2021.2.3,59.8497412520611,
1,25,0,25,0,,,,,,,,,,,,,,,None,None,None,None,None,1517.1034722998738,None,1517.1034722998738,None,1517.1034722998738,None,1517.1034722998738,None,j,0.317297600209713,1517.1034722998738,None,1517.1034722998738,None,1517.4719028999098,None,1517.4719028999098,None,1517.4719028999098,None,1517.4719028999098,None,1517.4719028999098,None,1517.4719028999098,None,1517.7670384999365,1519.6849291999824,1517.7670384999365,1519.6849291999824,1519.722050299868,None,1519.722050299868,None,1519.722050299868,None,1519.722050299868,None,1519.722050299868,None,1519.722050299868,None,1519.722050299868,None,1519.722050299868,None,1519.722050299868,None,37,51,44,45,45,57,1522.233140300028,None,2.0,0.754355400102213,1522.233140300028,None,1522.233140300028,None,1522.233140300028,None,1522.233140300028,None,None,None,1523.003517499892,None,,,,,,,131,f,1,2022_Dec_12_1537,RL,2021.2.3,59.8497412520611,
1,26,0,26,0,,,,,,,,,,,,,,,None,None,None,None,None,1524.738287199987,None,1524.738287199987,None,1524.738287199987,None,1524.738287199987,None,i,0.3828014999162406,1524.738287199987,None,1524.738287199987,None,1525.1625804998912,None,1525.1625804998912,None,1525.1625804998912,None,1525.1625804998912,None,1525.1625804998912,None,1525.1625804998912,None,1525.4392639000434,1526.9734350000508,1525.4392639000434,1526.9734350000508,1527.0050516999327,None,1527.0050516999327,None,1527.0050516999327,None,1527.0050516999327,None,1527.0050516999327,None,1527.0050516999327,None,1527.0050516999327,None,1527.0050516999327,None,1527.0050516999327,None,38,57,38,46,38,29,1529.5223079000134,None,3.0,1.1540248999372125,1529.5223079000134,None,1529.5223079000134,None,1529.5223079000134,None,1529.5223079000134,None,None,None,1530.6936417000834,None,,,,,,,131,f,1,2022_Dec_12_1537,RL,2021.2.3,59.8497412520611,
1,27,0,27,0,,,,,,,,,,,,,,,None,None,None,None,None,1532.5804468998685,None,1532.5804468998685,None,1532.5804468998685,None,1532.5804468998685,None,r,0.3006092000287026,1532.5804468998685,None,1532.5804468998685,None,1532.9333967000712,None,1532.9333967000712,None,1532.9333967000712,None,1532.9333967000712,None,1532.9333967000712,None,1532.9333967000712,None,1533.2278086999431,None,1533.2278086999431,None,1535.0096640998963,None,1535.0096640998963,None,1535.0096640998963,None,1535.0096640998963,None,1535.0096640998963,None,1535.0096640998963,None,1535.0096640998963,None,1535.0096640998963,None,1535.0096640998963,None,39,53,44,48,39,35,1537.5265430998988,None,2.0,1.1032755998894572,1537.5265430998988,None,1537.5265430998988,None,1537.5265430998988,None,1537.5265430998988,None,None,None,1538.6483974999283,None,,,,,,,131,f,1,2022_Dec_12_1537,RL,2021.2.3,59.8497412520611,
1,28,0,28,0,,,,,,,,,,,,,,,None,None,None,None,None,1540.4187199999578,None,1540.4187199999578,None,1540.4187199999578,None,1540.4187199999578,None,f,0.2920224000699818,1540.4187199999578,None,1540.4187199999578,None,1540.7528402998578,None,1540.7528402998578,None,1540.7528402998578,None,1540.7528402998578,None,1540.7528402998578,None,1540.7528402998578,None,1541.0499432000797,None,1541.0499432000797,None,1542.98264260008,None,1542.98264260008,None,1542.98264260008,None,1542.98264260008,None,1542.98264260008,None,1542.98264260008,None,1542.98264260008,None,1542.98264260008,None,1542.98264260008,None,38,52,37,52,52,61,1545.4993737998884,None,4.0,1.20409270003438,1545.4993737998884,None,1545.4993737998884,None,1545.4993737998884,None,1545.4993737998884,None,None,None,1546.7200775998645,None,,,,,,,131,f,1,2022_Dec_12_1537,RL,2021.2.3,59.8497412520611,
1,29,0,29,0,,,,,,,,,,,,,,,None,None,None,None,None,1548.6409006998874,None,1548.6409006998874,None,1548.6409006998874,None,1548.6409006998874,None,f,0.39024279988370836,1548.6409006998874,None,1548.6409006998874,None,1549.085475599859,None,1549.085475599859,None,1549.085475599859,None,1549.085475599859,None,1549.085475599859,None,1549.085475599859,None,1549.3724913999904,None,1549.3724913999904,None,1550.8747413000092,None,1550.8747413000092,None,1550.8747413000092,None,1550.8747413000092,None,1550.8747413000092,None,1550.8747413000092,None,1550.8747413000092,None,1550.8747413000092,None,1550.8747413000092,None,49,49,30,53,49,61,1553.3938233000226,None,5.0,1.817779100034386,1553.3938233000226,None,1553.3938233000226,None,1553.3938233000226,None,1553.3938233000226,None,None,None,1555.226021999959,None,,,,,,,131,f,1,2022_Dec_12_1537,RL,2021.2.3,59.8497412520611,
1,30,0,30,0,,,,,,,,,,,,,,,None,None,None,None,None,1556.8970701999497,None,1556.8970701999497,None,1556.8970701999497,None,1556.8970701999497,None,f,0.35408319998532534,1556.8970701999497,None,1556.8970701999497,None,1557.2993524998892,None,1557.2993524998892,None,1557.2993524998892,None,1557.2993524998892,None,1557.2993524998892,None,1557.2993524998892,None,1557.5946809998713,None,1557.5946809998713,None,1558.5738017000258,None,1558.5738017000258,None,1558.5738017000258,None,1558.5738017000258,None,1558.5738017000258,None,1558.5738017000258,None,1558.5738017000258,None,1558.5738017000258,None,1558.5738017000258,None,41,51,29,45,51,57,1561.093171000015,None,3.0,1.1378322998061776,1561.093171000015,None,1561.093171000015,None,1561.093171000015,None,1561.093171000015,None,None,None,1562.2473102000076,None,,,,,,,131,f,1,2022_Dec_12_1537,RL,2021.2.3,59.8497412520611,
1,31,0,31,0,,,,,,,,,,,,,,,None,None,None,None,None,1564.2186950999312,None,1564.2186950999312,None,1564.2186950999312,None,1564.2186950999312,None,i,0.262505300110206,1564.2186950999312,None,1564.2186950999312,None,1564.5206965000834,None,1564.5206965000834,None,1564.5206965000834,None,1564.5206965000834,None,1564.5206965000834,None,1564.5206965000834,None,1564.8165726999287,None,1564.8165726999287,None,1565.9175793998875,None,1565.9175793998875,None,1565.9175793998875,None,1565.9175793998875,None,1565.9175793998875,None,1565.9175793998875,None,1565.9175793998875,None,1565.9175793998875,None,1565.9175793998875,None,45,54,29,45,29,32,1568.432572599966,None,2.0,1.853734100004658,1568.432572599966,None,1568.432572599966,None,1568.432572599966,None,1568.432572599966,None,None,None,1570.3030453999527,None,,,,,,,131,f,1,2022_Dec_12_1537,RL,2021.2.3,59.8497412520611,
1,32,0,32,0,,,,,,,,,,,,,,,None,None,None,None,None,1572.0746150000487,None,1572.0746150000487,None,1572.0746150000487,None,1572.0746150000487,None,i,0.3266412999946624,1572.0746150000487,None,1572.0746150000487,None,1572.4446940000635,None,1572.4446940000635,None,1572.4446940000635,None,1572.4446940000635,None,1572.4446940000635,None,1572.4446940000635,None,1572.7385203000158,None,1572.7385203000158,None,1574.3710427000187,None,1574.3710427000187,None,1574.3710427000187,None,1574.3710427000187,None,1574.3710427000187,None,1574.3710427000187,None,1574.3710427000187,None,1574.3710427000187,None,1574.3710427000187,None,43,58,31,46,31,46,1576.8928062000778,None,2.0,0.716939500067383,1576.8928062000778,None,1576.8928062000778,None,1576.8928062000778,None,1576.8928062000778,None,None,None,1577.6246579000726,None,,,,,,,131,f,1,2022_Dec_12_1537,RL,2021.2.3,59.8497412520611,
1,33,0,33,0,,,,,,,,,,,,,,,None,None,None,None,None,1579.462351199938,None,1579.462351199938,None,1579.462351199938,None,1579.462351199938,None,f,0.32901380001567304,1579.462351199938,None,1579.462351199938,None,1579.831198599888,None,1579.831198599888,None,1579.831198599888,None,1579.831198599888,None,1579.831198599888,None,1579.831198599888,None,1580.1269551999867,1580.9606623,1580.1269551999867,1580.9606623,1580.9937483998947,None,1580.9937483998947,None,1580.9937483998947,None,1580.9937483998947,None,1580.9937483998947,None,1580.9937483998947,None,1580.9937483998947,None,1580.9937483998947,None,1580.9937483998947,None,39,57,24,45,57,60,1583.5075725999195,None,6.0,1.0598886001389474,1583.5075725999195,None,1583.5075725999195,None,1583.5075725999195,None,1583.5075725999195,None,None,None,1584.5886429999955,None,,,,,,,131,f,1,2022_Dec_12_1537,RL,2021.2.3,59.8497412520611,
1,34,0,34,0,,,,,,,,,,,,,,,None,None,None,None,None,1586.2835510000587,None,1586.2835510000587,None,1586.2835510000587,None,1586.2835510000587,None,f,0.2777554001659155,1586.2835510000587,None,1586.2835510000587,None,1586.603996800026,None,1586.603996800026,None,1586.603996800026,None,1586.603996800026,None,1586.603996800026,None,1586.603996800026,None,1586.8983674000483,1588.0823613000102,1586.8983674000483,1588.0823613000102,1588.1193063999526,None,1588.1193063999526,None,1588.1193063999526,None,1588.1193063999526,None,1588.1193063999526,None,1588.1193063999526,None,1588.1193063999526,None,1588.1193063999526,None,1588.1193063999526,None,35,45,32,43,45,53,1590.6549456999637,None,3.0,2.0001974999904633,1590.6549456999637,None,1590.6549456999637,None,1590.6549456999637,None,1590.6549456999637,None,None,None,1592.6685526000801,None,,,,,,,131,f,1,2022_Dec_12_1537,RL,2021.2.3,59.8497412520611,
1,35,0,35,0,,,,,,,,,,,,,,,None,None,None,None,None,1594.3898153000046,None,1594.3898153000046,None,1594.3898153000046,None,1594.3898153000046,None,i,0.4320825000759214,1594.3898153000046,None,1594.3898153000046,None,1594.862817300018,None,1594.862817300018,None,1594.862817300018,None,1594.862817300018,None,1594.862817300018,None,1594.862817300018,None,1595.1374389999546,1596.3380815000273,1595.1374389999546,1596.3380815000273,1596.386888399953,None,1596.386888399953,None,1596.386888399953,None,1596.386888399953,None,1596.386888399953,None,1596.386888399953,None,1596.386888399953,None,1596.386888399953,None,1596.386888399953,None,37,40,29,49,29,48,1598.904894300038,None,3.0,1.4204347000923008,1598.904894300038,None,1598.904894300038,None,1598.904894300038,None,1598.904894300038,None,None,None,1600.3403423000127,None,,,,,,,131,f,1,2022_Dec_12_1537,RL,2021.2.3,59.8497412520611,
1,36,0,36,0,,,,,,,,,,,,,,,None,None,None,None,None,1602.2951003999915,None,1602.2951003999915,None,1602.2951003999915,None,1602.2951003999915,None,i,0.257271199952811,1602.2951003999915,None,1602.2951003999915,None,1602.6001829998568,None,1602.6001829998568,None,1602.6001829998568,None,1602.6001829998568,None,1602.6001829998568,None,1602.6001829998568,None,1602.8760722000152,1604.0934901998844,1602.8760722000152,1604.0934901998844,1604.1258771999273,None,1604.1258771999273,None,1604.1258771999273,None,1604.1258771999273,None,1604.1258771999273,None,1604.1258771999273,None,1604.1258771999273,None,1604.1258771999273,None,1604.1258771999273,None,32,56,29,56,29,58,1606.6401309999637,None,2.0,1.1225467000622302,1606.6401309999637,None,1606.6401309999637,None,1606.6401309999637,None,1606.6401309999637,None,None,None,1607.7792290998623,None,,,,,,,131,f,1,2022_Dec_12_1537,RL,2021.2.3,59.8497412520611,
1,37,0,37,0,,,,,,,,,,,,,,,None,None,None,None,None,1609.483913499862,None,1609.483913499862,None,1609.483913499862,None,1609.483913499862,None,j,0.40862339991144836,1609.483913499862,None,1609.483913499862,None,1609.9366784000304,None,1609.9366784000304,None,1609.9366784000304,None,1609.9366784000304,None,1609.9366784000304,None,1609.9366784000304,None,1610.2312378999777,None,1610.2312378999777,None,1612.18036759994,None,1612.18036759994,None,1612.18036759994,None,1612.18036759994,None,1612.18036759994,None,1612.18036759994,None,1612.18036759994,None,1612.18036759994,None,1612.18036759994,None,29,52,29,58,58,50,1614.6964557999745,None,5.0,0.7551692998968065,1614.6964557999745,None,1614.6964557999745,None,1614.6964557999745,None,1614.6964557999745,None,None,None,1615.467950399965,None,,,,,,,131,f,1,2022_Dec_12_1537,RL,2021.2.3,59.8497412520611,
1,38,0,38,0,,,,,,,,,,,,,,,None,None,None,None,None,1617.1057565000374,None,1617.1057565000374,None,1617.1057565000374,None,1617.1057565000374,None,f,0.29679440008476377,1617.1057565000374,None,1617.1057565000374,None,1617.4433732999023,None,1617.4433732999023,None,1617.4433732999023,None,1617.4433732999023,None,1617.4433732999023,None,1617.4433732999023,None,1617.7362436000258,1619.6541524999775,1617.7362436000258,1619.6541524999775,1619.6834678999148,None,1619.6834678999148,None,1619.6834678999148,None,1619.6834678999148,None,1619.6834678999148,None,1619.6834678999148,None,1619.6834678999148,None,1619.6834678999148,None,1619.6834678999148,None,26,53,38,49,53,51,1622.2027732999995,None,5.0,0.9041877000126988,1622.2027732999995,None,1622.2027732999995,None,1622.2027732999995,None,1622.2027732999995,None,None,None,1623.1226870999672,None,,,,,,,131,f,1,2022_Dec_12_1537,RL,2021.2.3,59.8497412520611,
1,39,0,39,0,,,,,,,,,,,,,,,None,None,None,None,None,1624.7929181000218,None,1624.7929181000218,None,1624.7929181000218,None,1624.7929181000218,None,f,0.3396393000148237,1624.7929181000218,None,1624.7929181000218,None,1625.1776433999185,None,1625.1776433999185,None,1625.1776433999185,None,1625.1776433999185,None,1625.1776433999185,None,1625.1776433999185,None,1625.4750486998819,None,1625.4750486998819,None,1627.3800260999706,None,1627.3800260999706,None,1627.3800260999706,None,1627.3800260999706,None,1627.3800260999706,None,1627.3800260999706,None,1627.3800260999706,None,1627.3800260999706,None,1627.3800260999706,None,24,55,33,48,55,45,1629.9075015999842,None,6.0,0.8219618001021445,1629.9075015999842,None,1629.9075015999842,None,1629.9075015999842,None,1629.9075015999842,None,None,None,1630.748114499962,None,,,,,,,131,f,1,2022_Dec_12_1537,RL,2021.2.3,59.8497412520611,
1,40,0,40,0,,,,,,,,,,,,,,,None,None,None,None,None,1632.7495973999612,None,1632.7495973999612,None,1632.7495973999612,None,1632.7495973999612,None,r,0.29264939995482564,1632.7495973999612,None,1632.7495973999612,None,1633.0832354999147,None,1633.0832354999147,None,1633.0832354999147,None,1633.0832354999147,None,1633.0832354999147,None,1633.0832354999147,None,1633.3808124000207,None,1633.3808124000207,None,1634.9108917999547,None,1634.9108917999547,None,1634.9108917999547,None,1634.9108917999547,None,1634.9108917999547,None,1634.9108917999547,None,1634.9108917999547,None,1634.9108917999547,None,1634.9108917999547,None,31,56,33,59,31,33,1637.4347975999117,None,4.0,0.9688891000114381,1637.4347975999117,None,1637.4347975999117,None,1637.4347975999117,None,1637.4347975999117,None,None,None,1638.4280880000442,None,,,,,,,131,f,1,2022_Dec_12_1537,RL,2021.2.3,59.8497412520611,
1,41,0,41,0,,,,,,,,,,,,,,,None,None,None,None,None,1640.3552151999902,None,1640.3552151999902,None,1640.3552151999902,None,1640.3552151999902,None,j,0.43710950016975403,1640.3552151999902,None,1640.3552151999902,None,1640.8394406000152,None,1640.8394406000152,None,1640.8394406000152,None,1640.8394406000152,None,1640.8394406000152,None,1640.8394406000152,None,1641.135893000057,1642.0199579999316,1641.135893000057,1642.0199579999316,1642.0598418998998,None,1642.0598418998998,None,1642.0598418998998,None,1642.0598418998998,None,1642.0598418998998,None,1642.0598418998998,None,1642.0598418998998,None,1642.0598418998998,None,1642.0598418998998,None,32,43,32,53,53,40,1644.5842776999343,None,5.0,0.7881771000102162,1644.5842776999343,None,1644.5842776999343,None,1644.5842776999343,None,1644.5842776999343,None,None,None,1645.3887284998782,None,,,,,,,131,f,1,2022_Dec_12_1537,RL,2021.2.3,59.8497412520611,
1,42,0,42,0,,,,,,,,,,,,,,,None,None,None,None,None,1647.2267297999933,None,1647.2267297999933,None,1647.2267297999933,None,1647.2267297999933,None,i,0.34558279998600483,1647.2267297999933,None,1647.2267297999933,None,1647.6088528998662,None,1647.6088528998662,None,1647.6088528998662,None,1647.6088528998662,None,1647.6088528998662,None,1647.6088528998662,None,1647.907562599983,None,1647.907562599983,None,1649.9241875999141,None,1649.9241875999141,None,1649.9241875999141,None,1649.9241875999141,None,1649.9241875999141,None,1649.9241875999141,None,1649.9241875999141,None,1649.9241875999141,None,1649.9241875999141,None,35,50,33,55,33,36,1652.4402379000094,None,3.0,0.8218666999600828,1652.4402379000094,None,1652.4402379000094,None,1652.4402379000094,None,1652.4402379000094,None,None,None,1653.2772061999422,None,,,,,,,131,f,1,2022_Dec_12_1537,RL,2021.2.3,59.8497412520611,
1,43,0,43,0,,,,,,,,,,,,,,,None,None,None,None,None,1654.915289599914,None,1654.915289599914,None,1654.915289599914,None,1654.915289599914,None,r,0.4775625001639128,1654.915289599914,None,1654.915289599914,None,1655.4357471999247,None,1655.4357471999247,None,1655.4357471999247,None,1655.4357471999247,None,1655.4357471999247,None,1655.4357471999247,None,1655.729389199987,None,1655.729389199987,None,1657.0267922999337,None,1657.0267922999337,None,1657.0267922999337,None,1657.0267922999337,None,1657.0267922999337,None,1657.0267922999337,None,1657.0267922999337,None,1657.0267922999337,None,1657.0267922999337,None,28,56,43,61,28,37,1659.5455153000075,None,3.0,1.1545929999556392,1659.5455153000075,None,1659.5455153000075,None,1659.5455153000075,None,1659.5455153000075,None,None,None,1660.7155055999756,None,,,,,,,131,f,1,2022_Dec_12_1537,RL,2021.2.3,59.8497412520611,
1,44,0,44,0,,,,,,,,,,,,,,,None,None,None,None,None,1662.2370603000745,None,1662.2370603000745,None,1662.2370603000745,None,1662.2370603000745,None,j,0.2557136001996696,1662.2370603000745,None,1662.2370603000745,None,1662.5371419999283,None,1662.5371419999283,None,1662.5371419999283,None,1662.5371419999283,None,1662.5371419999283,None,1662.5371419999283,None,1662.834222999867,None,1662.834222999867,None,1664.8326801999938,None,1664.8326801999938,None,1664.8326801999938,None,1664.8326801999938,None,1664.8326801999938,None,1664.8326801999938,None,1664.8326801999938,None,1664.8326801999938,None,1664.8326801999938,None,31,51,37,57,57,47,1667.3510272998828,None,5.0,1.1057478000875562,1667.3510272998828,None,1667.3510272998828,None,1667.3510272998828,None,1667.3510272998828,None,None,None,1668.4731910000555,None,,,,,,,131,f,1,2022_Dec_12_1537,RL,2021.2.3,59.8497412520611,
1,45,0,45,0,,,,,,,,,,,,,,,None,None,None,None,None,1670.4088634999935,None,1670.4088634999935,None,1670.4088634999935,None,1670.4088634999935,None,f,0.5640648999251425,1670.4088634999935,None,1670.4088634999935,None,1671.0134874000214,None,1671.0134874000214,None,1671.0134874000214,None,1671.0134874000214,None,1671.0134874000214,None,1671.0134874000214,None,1671.307108100038,None,1671.307108100038,None,1672.7713631999213,None,1672.7713631999213,None,1672.7713631999213,None,1672.7713631999213,None,1672.7713631999213,None,1672.7713631999213,None,1672.7713631999213,None,1672.7713631999213,None,1672.7713631999213,None,31,62,37,71,62,39,1675.287736499915,None,6.0,1.1383191000204533,1675.287736499915,None,1675.287736499915,None,1675.287736499915,None,1675.287736499915,None,None,None,1676.443262099987,None,,,,,,,131,f,1,2022_Dec_12_1537,RL,2021.2.3,59.8497412520611,
1,46,0,46,0,,,,,,,,,,,,,,,None,None,None,None,None,1678.3635366000235,None,1678.3635366000235,None,1678.3635366000235,None,1678.3635366000235,None,f,0.49949069996364415,1678.3635366000235,None,1678.3635366000235,None,1678.9060750000644,None,1678.9060750000644,None,1678.9060750000644,None,1678.9060750000644,None,1678.9060750000644,None,1678.9060750000644,None,1679.1955371999647,None,1679.1955371999647,None,1680.594989300007,None,1680.594989300007,None,1680.594989300007,None,1680.594989300007,None,1680.594989300007,None,1680.594989300007,None,1680.594989300007,None,1680.594989300007,None,1680.594989300007,None,43,62,45,69,62,50,1683.1112023000605,None,5.0,0.7706009999383241,1683.1112023000605,None,1683.1112023000605,None,1683.1112023000605,None,1683.1112023000605,None,None,None,1683.8985496000387,None,,,,,,,131,f,1,2022_Dec_12_1537,RL,2021.2.3,59.8497412520611,
1,47,0,47,0,,,,,,,,,,,,,,,None,None,None,None,None,1685.4866706999019,None,1685.4866706999019,None,1685.4866706999019,None,1685.4866706999019,None,j,0.22618830017745495,1685.4866706999019,None,1685.4866706999019,None,1685.7554917999078,None,1685.7554917999078,None,1685.7554917999078,None,1685.7554917999078,None,1685.7554917999078,None,1685.7554917999078,None,1686.050245200051,None,1686.050245200051,None,1687.8471164999064,None,1687.8471164999064,None,1687.8471164999064,None,1687.8471164999064,None,1687.8471164999064,None,1687.8471164999064,None,1687.8471164999064,None,1687.8471164999064,None,1687.8471164999064,None,26,55,42,63,63,42,1690.3662258000113,None,5.0,0.8874236999545246,1690.3662258000113,None,1690.3662258000113,None,1690.3662258000113,None,1690.3662258000113,None,None,None,1691.2708018000703,None,,,,,,,131,f,1,2022_Dec_12_1537,RL,2021.2.3,59.8497412520611,
1,48,0,48,0,,,,,,,,,,,,,,,None,None,None,None,None,1693.1745792999864,None,1693.1745792999864,None,1693.1745792999864,None,1693.1745792999864,None,i,0.40828249999321997,1693.1745792999864,None,1693.1745792999864,None,1693.629503400065,None,1693.629503400065,None,1693.629503400065,None,1693.629503400065,None,1693.629503400065,None,1693.629503400065,None,1693.9223905000836,None,1693.9223905000836,None,1695.7070478999522,None,1695.7070478999522,None,1695.7070478999522,None,1695.7070478999522,None,1695.7070478999522,None,1695.7070478999522,None,1695.7070478999522,None,1695.7070478999522,None,1695.7070478999522,None,33,58,34,61,34,42,1698.2213916999754,None,5.0,0.8685717999469489,1698.2213916999754,None,1698.2213916999754,None,1698.2213916999754,None,1698.2213916999754,None,None,None,1699.1093345000409,None,,,,,,,131,f,1,2022_Dec_12_1537,RL,2021.2.3,59.8497412520611,
1,49,0,49,0,,,,,,,,,,,,,,,None,None,None,None,None,1700.9469320999924,None,1700.9469320999924,None,1700.9469320999924,None,1700.9469320999924,None,i,0.5060258000157773,1700.9469320999924,None,1700.9469320999924,None,1701.4998585998546,None,1701.4998585998546,None,1701.4998585998546,None,1701.4998585998546,None,1701.4998585998546,None,1701.4998585998546,None,1701.7946738998871,None,1701.7946738998871,None,1702.8437494998798,None,1702.8437494998798,None,1702.8437494998798,None,1702.8437494998798,None,1702.8437494998798,None,1702.8437494998798,None,1702.8437494998798,None,1702.8437494998798,None,1702.8437494998798,None,34,63,36,60,36,45,1705.3588383998722,None,4.0,1.3745506999548525,1705.3588383998722,None,1705.3588383998722,None,1705.3588383998722,None,1705.3588383998722,None,None,None,1706.7476055999286,None,,,,,,,131,f,1,2022_Dec_12_1537,RL,2021.2.3,59.8497412520611,
1,50,0,50,0,,,,,,,,,,,,,,,None,None,None,None,None,1708.3851226000115,None,1708.3851226000115,None,1708.3851226000115,None,1708.3851226000115,None,j,0.308134000049904,1708.3851226000115,None,1708.3851226000115,None,1708.736841399921,None,1708.736841399921,None,1708.736841399921,None,1708.736841399921,None,1708.736841399921,None,1708.736841399921,None,1709.033106100047,1710.3172669999767,1709.033106100047,1710.3172669999767,1710.3498004998546,None,1710.3498004998546,None,1710.3498004998546,None,1710.3498004998546,None,1710.3498004998546,None,1710.3498004998546,None,1710.3498004998546,None,1710.3498004998546,None,1710.3498004998546,None,29,63,43,60,60,1,1712.8723122999072,None,5.0,1.5344945001415908,1712.8723122999072,None,1712.8723122999072,None,1712.8723122999072,None,1712.8723122999072,None,None,None,1714.4293016998563,None,,,,,,,131,f,1,2022_Dec_12_1537,RL,2021.2.3,59.8497412520611,
1,51,0,51,0,,,,,,,,,,,,,,,None,None,None,None,None,1716.073812799994,None,1716.073812799994,None,1716.073812799994,None,1716.073812799994,None,f,0.3193136998452246,1716.073812799994,None,1716.073812799994,None,1716.4443957998883,None,1716.4443957998883,None,1716.4443957998883,None,1716.4443957998883,None,1716.4443957998883,None,1716.4443957998883,None,1716.7216669998597,1717.88897119998,1716.7216669998597,1717.88897119998,1717.9193786999676,None,1717.9193786999676,None,1717.9193786999676,None,1717.9193786999676,None,1717.9193786999676,None,1717.9193786999676,None,1717.9193786999676,None,1717.9193786999676,None,1717.9193786999676,None,38,69,39,64,69,41,1720.4352907000575,None,6.0,1.2755638998933136,1720.4352907000575,None,1720.4352907000575,None,1720.4352907000575,None,1720.4352907000575,None,None,None,1721.7362240999937,None,,,,,,,131,f,1,2022_Dec_12_1537,RL,2021.2.3,59.8497412520611,
1,52,0,52,0,,,,,,,,,,,,,,,None,None,None,None,None,1723.3430246999487,None,1723.3430246999487,None,1723.3430246999487,None,1723.3430246999487,None,r,0.25040250015445054,1723.3430246999487,None,1723.3430246999487,None,1723.632450300036,None,1723.632450300036,None,1723.632450300036,None,1723.632450300036,None,1723.632450300036,None,1723.632450300036,None,1723.9266760000028,1725.1941490999889,1723.9266760000028,1725.1941490999889,1725.227537699975,None,1725.227537699975,None,1725.227537699975,None,1725.227537699975,None,1725.227537699975,None,1725.227537699975,None,1725.227537699975,None,1725.227537699975,None,1725.227537699975,None,41,73,39,59,41,48,1727.7471851999871,None,5.0,0.8022342000622302,1727.7471851999871,None,1727.7471851999871,None,1727.7471851999871,None,1727.7471851999871,None,None,None,1728.5627357000485,None,,,,,,,131,f,1,2022_Dec_12_1537,RL,2021.2.3,59.8497412520611,
1,53,0,53,0,,,,,,,,,,,,,,,None,None,None,None,None,1730.0836740999948,None,1730.0836740999948,None,1730.0836740999948,None,1730.0836740999948,None,f,0.4493241000454873,1730.0836740999948,None,1730.0836740999948,None,1730.592073299922,None,1730.592073299922,None,1730.592073299922,None,1730.592073299922,None,1730.592073299922,None,1730.592073299922,None,1730.8815937000327,1732.5992012999486,1730.8815937000327,1732.5992012999486,1732.6299672999885,None,1732.6299672999885,None,1732.6299672999885,None,1732.6299672999885,None,1732.6299672999885,None,1732.6299672999885,None,1732.6299672999885,None,1732.6299672999885,None,1732.6299672999885,None,45,61,35,55,61,51,1735.1521711999085,None,5.0,0.7184138000011444,1735.1521711999085,None,1735.1521711999085,None,1735.1521711999085,None,1735.1521711999085,None,None,None,1735.884400199866,None,,,,,,,131,f,1,2022_Dec_12_1537,RL,2021.2.3,59.8497412520611,
1,54,0,54,0,,,,,,,,,,,,,,,None,None,None,None,None,1737.7891476999503,None,1737.7891476999503,None,1737.7891476999503,None,1737.7891476999503,None,i,0.203813900006935,1737.7891476999503,None,1737.7891476999503,None,1738.042473099893,None,1738.042473099893,None,1738.042473099893,None,1738.042473099893,None,1738.042473099893,None,1738.042473099893,None,1738.3366781999357,1739.6206573999953,1738.3366781999357,1739.6206573999953,1739.652046199888,None,1739.652046199888,None,1739.652046199888,None,1739.652046199888,None,1739.652046199888,None,1739.652046199888,None,1739.652046199888,None,1739.652046199888,None,1739.652046199888,None,43,72,34,58,34,56,1742.1730824999977,None,4.0,1.00129109993577,1742.1730824999977,None,1742.1730824999977,None,1742.1730824999977,None,1742.1730824999977,None,None,None,1743.1894068000838,None,,,,,,,131,f,1,2022_Dec_12_1537,RL,2021.2.3,59.8497412520611,
1,55,0,55,0,,,,,,,,,,,,,,,None,None,None,None,None,1744.710135600064,None,1744.710135600064,None,1744.710135600064,None,1744.710135600064,None,i,0.232849600026384,1744.710135600064,None,1744.710135600064,None,1744.9988204999827,None,1744.9988204999827,None,1744.9988204999827,None,1744.9988204999827,None,1744.9988204999827,None,1744.9988204999827,None,1745.2915872000158,None,1745.2915872000158,None,1746.539233099902,None,1746.539233099902,None,1746.539233099902,None,1746.539233099902,None,1746.539233099902,None,1746.539233099902,None,1746.539233099902,None,1746.539233099902,None,1746.539233099902,None,51,63,37,56,37,48,1749.0568252999801,None,4.0,1.055649199988693,1749.0568252999801,None,1749.0568252999801,None,1749.0568252999801,None,1749.0568252999801,None,None,None,1750.1276112999767,None,,,,,,,131,f,1,2022_Dec_12_1537,RL,2021.2.3,59.8497412520611,
1,56,0,56,0,,,,,,,,,,,,,,,None,None,None,None,None,1751.9658544000704,None,1751.9658544000704,None,1751.9658544000704,None,1751.9658544000704,None,i,0.23732590000145137,1751.9658544000704,None,1751.9658544000704,None,1752.252830900019,None,1752.252830900019,None,1752.252830900019,None,1752.252830900019,None,1752.252830900019,None,1752.252830900019,None,1752.546504699858,None,1752.546504699858,None,1753.415186200058,None,1753.415186200058,None,1753.415186200058,None,1753.415186200058,None,1753.415186200058,None,1753.415186200058,None,1753.415186200058,None,1753.415186200058,None,1753.415186200058,None,43,65,23,50,23,58,1755.927954300074,None,2.0,0.7388341999612749,1755.927954300074,None,1755.927954300074,None,1755.927954300074,None,1755.927954300074,None,None,None,1756.6822021000553,None,,,,,,,131,f,1,2022_Dec_12_1537,RL,2021.2.3,59.8497412520611,
1,57,0,57,0,,,,,,,,,,,,,,,None,None,None,None,None,1758.5193479999434,None,1758.5193479999434,None,1758.5193479999434,None,1758.5193479999434,None,f,0.2946529998444021,1758.5193479999434,None,1758.5193479999434,None,1758.8647829999682,None,1758.8647829999682,None,1758.8647829999682,None,1758.8647829999682,None,1758.8647829999682,None,1758.8647829999682,None,1759.1510669998825,1761.1021914999,1759.1510669998825,1761.1021914999,1761.133342599962,None,1761.133342599962,None,1761.133342599962,None,1761.133342599962,None,1761.133342599962,None,1761.133342599962,None,1761.133342599962,None,1761.133342599962,None,1761.133342599962,None,33,69,40,52,69,53,1763.6511856999714,None,6.0,0.9723648000508547,1763.6511856999714,None,1763.6511856999714,None,1763.6511856999714,None,1763.6511856999714,None,None,None,1764.6469940999523,None,,,,,,,131,f,1,2022_Dec_12_1537,RL,2021.2.3,59.8497412520611,
1,58,0,58,0,,,,,,,,,,,,,,,None,None,None,None,None,1766.3420774000697,None,1766.3420774000697,None,1766.3420774000697,None,1766.3420774000697,None,i,0.2320438998285681,1766.3420774000697,None,1766.3420774000697,None,1766.6333594999742,None,1766.6333594999742,None,1766.6333594999742,None,1766.6333594999742,None,1766.6333594999742,None,1766.6333594999742,None,1766.9229476000182,1767.8735362999141,1766.9229476000182,1767.8735362999141,1767.9115287999157,None,1767.9115287999157,None,1767.9115287999157,None,1767.9115287999157,None,1767.9115287999157,None,1767.9115287999157,None,1767.9115287999157,None,1767.9115287999157,None,1767.9115287999157,None,37,71,27,56,27,34,1770.4396265000105,None,3.0,1.3895994001068175,1770.4396265000105,None,1770.4396265000105,None,1770.4396265000105,None,1770.4396265000105,None,None,None,1771.843200699892,None,,,,,,,131,f,1,2022_Dec_12_1537,RL,2021.2.3,59.8497412520611,
1,59,0,59,0,,,,,,,,,,,,,,,None,None,None,None,None,1773.479840300046,None,1773.479840300046,None,1773.479840300046,None,1773.479840300046,None,j,0.22445140010677278,1773.479840300046,None,1773.479840300046,None,1773.748669799883,None,1773.748669799883,None,1773.748669799883,None,1773.748669799883,None,1773.748669799883,None,1773.748669799883,None,1774.044826499885,None,1774.044826499885,None,1775.6428161000367,None,1775.6428161000367,None,1775.6428161000367,None,1775.6428161000367,None,1775.6428161000367,None,1775.6428161000367,None,1775.6428161000367,None,1775.6428161000367,None,1775.6428161000367,None,43,69,37,53,53,36,1778.1691200998612,None,5.0,1.4485207998659462,1778.1691200998612,None,1778.1691200998612,None,1778.1691200998612,None,1778.1691200998612,None,None,None,1779.631563999923,None,,,,,,,131,f,1,2022_Dec_12_1537,RL,2021.2.3,59.8497412520611,
1,60,0,60,0,,,,,,,,,,,,,,,None,None,None,None,None,1781.586156199919,None,1781.586156199919,None,1781.586156199919,None,1781.586156199919,None,j,0.5583174999337643,1781.586156199919,None,1781.586156199919,None,1782.189679800067,None,1782.189679800067,None,1782.189679800067,None,1782.189679800067,None,1782.189679800067,None,1782.189679800067,None,1782.4839383000508,None,1782.4839383000508,None,1783.982548299944,None,1783.982548299944,None,1783.982548299944,None,1783.982548299944,None,1783.982548299944,None,1783.982548299944,None,1783.982548299944,None,1783.982548299944,None,1783.982548299944,None,38,68,34,54,54,64,1786.4925865000114,None,6.0,1.0774344000965357,1786.4925865000114,None,1786.4925865000114,None,1786.4925865000114,None,1786.4925865000114,None,None,None,1787.5868532999884,None,,,,,,,131,f,1,2022_Dec_12_1537,RL,2021.2.3,59.8497412520611,
1,61,0,61,0,,,,,,,,,,,,,,,None,None,None,None,None,1789.1582253999077,None,1789.1582253999077,None,1789.1582253999077,None,1789.1582253999077,None,r,0.6362022999674082,1789.1582253999077,None,1789.1582253999077,None,1789.8422413999215,None,1789.8422413999215,None,1789.8422413999215,None,1789.8422413999215,None,1789.8422413999215,None,1789.8422413999215,None,1790.139196800068,None,1790.139196800068,None,1792.0187136998866,None,1792.0187136998866,None,1792.0187136998866,None,1792.0187136998866,None,1792.0187136998866,None,1792.0187136998866,None,1792.0187136998866,None,1792.0187136998866,None,1792.0187136998866,None,36,69,35,53,36,36,1794.538665900007,None,5.0,0.7858712000306696,1794.538665900007,None,1794.538665900007,None,1794.538665900007,None,1794.538665900007,None,None,None,1795.3424893999472,None,,,,,,,131,f,1,2022_Dec_12_1537,RL,2021.2.3,59.8497412520611,
1,62,0,62,0,,,,,,,,,,,,,,,None,None,None,None,None,1797.1803470999002,None,1797.1803470999002,None,1797.1803470999002,None,1797.1803470999002,None,r,0.25408799992874265,1797.1803470999002,None,1797.1803470999002,None,1797.482503599953,None,1797.482503599953,None,1797.482503599953,None,1797.482503599953,None,1797.482503599953,None,1797.482503599953,None,1797.777797699906,None,1797.777797699906,None,1799.0109155999962,None,1799.0109155999962,None,1799.0109155999962,None,1799.0109155999962,None,1799.0109155999962,None,1799.0109155999962,None,1799.0109155999962,None,1799.0109155999962,None,1799.0109155999962,None,35,75,35,49,35,54,1801.5342397999484,None,4.0,1.31674259994179,1801.5342397999484,None,1801.5342397999484,None,1801.5342397999484,None,1801.5342397999484,None,None,None,1802.864215800073,None,,,,,,,131,f,1,2022_Dec_12_1537,RL,2021.2.3,59.8497412520611,
1,63,0,63,0,,,,,,,,,,,,,,,None,None,None,None,None,1804.4155814000405,None,1804.4155814000405,None,1804.4155814000405,None,1804.4155814000405,None,i,0.24885319988243282,1804.4155814000405,None,1804.4155814000405,None,1804.7054224999156,None,1804.7054224999156,None,1804.7054224999156,None,1804.7054224999156,None,1804.7054224999156,None,1804.7054224999156,None,1804.9995114998892,None,1804.9995114998892,None,1806.8300192998722,None,1806.8300192998722,None,1806.8300192998722,None,1806.8300192998722,None,1806.8300192998722,None,1806.8300192998722,None,1806.8300192998722,None,1806.8300192998722,None,1806.8300192998722,None,43,82,32,42,32,42,1809.3487521000206,None,5.0,0.6880607001949102,1809.3487521000206,None,1809.3487521000206,None,1809.3487521000206,None,1809.3487521000206,None,None,None,1810.052282199962,None,,,,,,,131,f,1,2022_Dec_12_1537,RL,2021.2.3,59.8497412520611,
1,64,0,64,0,,,,,,,,,,,,,,,None,None,None,None,None,1811.856506299926,None,1811.856506299926,None,1811.856506299926,None,1811.856506299926,None,j,0.22802869998849928,1811.856506299926,None,1811.856506299926,None,1812.1267396998592,None,1812.1267396998592,None,1812.1267396998592,None,1812.1267396998592,None,1812.1267396998592,None,1812.1267396998592,None,1812.421445199987,None,1812.421445199987,None,1813.9531365998555,None,1813.9531365998555,None,1813.9531365998555,None,1813.9531365998555,None,1813.9531365998555,None,1813.9531365998555,None,1813.9531365998555,None,1813.9531365998555,None,1813.9531365998555,None,42,73,35,59,59,53,1816.4725671999622,None,6.0,0.8514680999796838,1816.4725671999622,None,1816.4725671999622,None,1816.4725671999622,None,1816.4725671999622,None,None,None,1817.3413124000654,None,,,,,,,131,f,1,2022_Dec_12_1537,RL,2021.2.3,59.8497412520611,
1,65,0,65,0,,,,,,,,,,,,,,,None,None,None,None,None,1819.1621488998644,None,1819.1621488998644,None,1819.1621488998644,None,1819.1621488998644,None,r,0.25245669996365905,1819.1621488998644,None,1819.1621488998644,None,1819.4666792999487,None,1819.4666792999487,None,1819.4666792999487,None,1819.4666792999487,None,1819.4666792999487,None,1819.4666792999487,None,1819.7596712999512,1821.2105886999052,1819.7596712999512,1821.2105886999052,1821.2410551998764,None,1821.2410551998764,None,1821.2410551998764,None,1821.2410551998764,None,1821.2410551998764,None,1821.2410551998764,None,1821.2410551998764,None,1821.2410551998764,None,1821.2410551998764,None,46,81,26,55,46,38,1823.7593237999827,None,6.0,0.7870312999002635,1823.7593237999827,None,1823.7593237999827,None,1823.7593237999827,None,1823.7593237999827,None,None,None,1824.562534000026,None,,,,,,,131,f,1,2022_Dec_12_1537,RL,2021.2.3,59.8497412520611,
1,66,0,66,0,,,,,,,,,,,,,,,None,None,None,None,None,1826.517366199987,None,1826.517366199987,None,1826.517366199987,None,1826.517366199987,None,f,0.267043299973011,1826.517366199987,None,1826.517366199987,None,1826.834964599926,None,1826.834964599926,None,1826.834964599926,None,1826.834964599926,None,1826.834964599926,None,1826.834964599926,None,1827.1317415998783,1828.3988701999187,1827.1317415998783,1828.3988701999187,1828.4290229000617,None,1828.4290229000617,None,1828.4290229000617,None,1828.4290229000617,None,1828.4290229000617,None,1828.4290229000617,None,1828.4290229000617,None,1828.4290229000617,None,1828.4290229000617,None,45,81,35,69,81,46,1830.9480621998664,None,7.0,0.6725212999153882,1830.9480621998664,None,1830.9480621998664,None,1830.9480621998664,None,1830.9480621998664,None,None,None,1831.6340781999752,None,,,,,,,131,f,1,2022_Dec_12_1537,RL,2021.2.3,59.8497412520611,
1,67,0,67,0,,,,,,,,,,,,,,,None,None,None,None,None,1833.6057670998853,None,1833.6057670998853,None,1833.6057670998853,None,1833.6057670998853,None,j,0.34997349977493286,1833.6057670998853,None,1833.6057670998853,None,1834.0096374999266,None,1834.0096374999266,None,1834.0096374999266,None,1834.0096374999266,None,1834.0096374999266,None,1834.0096374999266,None,1834.2865359000862,1836.2544982999098,1834.2865359000862,1836.2544982999098,1836.2869166000746,None,1836.2869166000746,None,1836.2869166000746,None,1836.2869166000746,None,1836.2869166000746,None,1836.2869166000746,None,1836.2869166000746,None,1836.2869166000746,None,1836.2869166000746,None,43,79,35,69,69,43,1838.7968627000228,None,6.0,1.3615584000945091,1838.7968627000228,None,1838.7968627000228,None,1838.7968627000228,None,1838.7968627000228,None,None,None,1840.173471499933,None,,,,,,,131,f,1,2022_Dec_12_1537,RL,2021.2.3,59.8497412520611,
1,68,0,68,0,,,,,,,,,,,,,,,None,None,None,None,None,1841.9786185000557,None,1841.9786185000557,None,1841.9786185000557,None,1841.9786185000557,None,i,0.21619920013472438,1841.9786185000557,None,1841.9786185000557,None,1842.2488573999144,None,1842.2488573999144,None,1842.2488573999144,None,1842.2488573999144,None,1842.2488573999144,None,1842.2488573999144,None,1842.5421849000268,None,1842.5421849000268,None,1844.2610543000046,None,1844.2610543000046,None,1844.2610543000046,None,1844.2610543000046,None,1844.2610543000046,None,1844.2610543000046,None,1844.2610543000046,None,1844.2610543000046,None,1844.2610543000046,None,47,83,35,76,35,47,1846.775024499977,None,6.0,1.1226097999606282,1846.775024499977,None,1846.775024499977,None,1846.775024499977,None,1846.775024499977,None,None,None,1847.9120885999873,None,,,,,,,131,f,1,2022_Dec_12_1537,RL,2021.2.3,59.8497412520611,
1,69,0,69,0,,,,,,,,,,,,,,,None,None,None,None,None,1849.7163623999804,None,1849.7163623999804,None,1849.7163623999804,None,1849.7163623999804,None,j,0.358562899986282,1849.7163623999804,None,1849.7163623999804,None,1850.120115699945,None,1850.120115699945,None,1850.120115699945,None,1850.120115699945,None,1850.120115699945,None,1850.120115699945,None,1850.4143270999193,None,1850.4143270999193,None,1852.196065200027,None,1852.196065200027,None,1852.196065200027,None,1852.196065200027,None,1852.196065200027,None,1852.196065200027,None,1852.196065200027,None,1852.196065200027,None,1852.196065200027,None,44,84,34,65,65,42,1854.7174853000324,None,6.0,1.4039676999673247,1854.7174853000324,None,1854.7174853000324,None,1854.7174853000324,None,1854.7174853000324,None,None,None,1856.1356301000342,None,,,,,,,131,f,1,2022_Dec_12_1537,RL,2021.2.3,59.8497412520611,
1,70,0,70,0,,,,,,,,,,,,,,,None,None,None,None,None,1857.67223190004,None,1857.67223190004,None,1857.67223190004,None,1857.67223190004,None,f,0.22264849999919534,1857.67223190004,None,1857.67223190004,None,1857.941731999861,None,1857.941731999861,None,1857.941731999861,None,1857.941731999861,None,1857.941731999861,None,1857.941731999861,None,1858.2365439999849,1859.203748999862,1858.2365439999849,1859.203748999862,1859.2345344000496,None,1859.2345344000496,None,1859.2345344000496,None,1859.2345344000496,None,1859.2345344000496,None,1859.2345344000496,None,1859.2345344000496,None,1859.2345344000496,None,1859.2345344000496,None,40,87,42,75,87,48,1861.7529787998646,None,7.0,0.9039022999349982,1861.7529787998646,None,1861.7529787998646,None,1861.7529787998646,None,1861.7529787998646,None,None,None,1862.6724805999547,None,,,,,,,131,f,1,2022_Dec_12_1537,RL,2021.2.3,59.8497412520611,
1,71,0,71,0,,,,,,,,,,,,,,,None,None,None,None,None,1864.2269798999187,None,1864.2269798999187,None,1864.2269798999187,None,1864.2269798999187,None,f,0.2876873000059277,1864.2269798999187,None,1864.2269798999187,None,1864.5606168999802,None,1864.5606168999802,None,1864.5606168999802,None,1864.5606168999802,None,1864.5606168999802,None,1864.5606168999802,None,1864.8577002999373,None,1864.8577002999373,None,1866.4572753999382,None,1866.4572753999382,None,1866.4572753999382,None,1866.4572753999382,None,1866.4572753999382,None,1866.4572753999382,None,1866.4572753999382,None,1866.4572753999382,None,1866.4572753999382,None,40,83,29,70,83,33,1868.9772808998823,None,7.0,1.016836900031194,1868.9772808998823,None,1868.9772808998823,None,1868.9772808998823,None,1868.9772808998823,None,None,None,1870.0107309999876,None,,,,,,,131,f,1,2022_Dec_12_1537,RL,2021.2.3,59.8497412520611,
1,72,0,72,0,,,,,,,,,,,,,,,None,None,None,None,None,1871.731633800082,None,1871.731633800082,None,1871.731633800082,None,1871.731633800082,None,f,0.28339180001057684,1871.731633800082,None,1871.731633800082,None,1872.067306400044,None,1872.067306400044,None,1872.067306400044,None,1872.067306400044,None,1872.067306400044,None,1872.067306400044,None,1872.3628640000243,None,1872.3628640000243,None,1873.6728864999022,None,1873.6728864999022,None,1873.6728864999022,None,1873.6728864999022,None,1873.6728864999022,None,1873.6728864999022,None,1873.6728864999022,None,1873.6728864999022,None,1873.6728864999022,None,35,88,18,75,88,43,1876.1957201999612,None,7.0,0.9890572000294924,1876.1957201999612,None,1876.1957201999612,None,1876.1957201999612,None,1876.1957201999612,None,None,None,1877.2049324000254,None,,,,,,,131,f,1,2022_Dec_12_1537,RL,2021.2.3,59.8497412520611,
1,73,0,73,0,,,,,,,,,,,,,,,None,None,None,None,None,1878.770429899916,None,1878.770429899916,None,1878.770429899916,None,1878.770429899916,None,f,0.24444010015577078,1878.770429899916,None,1878.770429899916,None,1879.055429799948,None,1879.055429799948,None,1879.055429799948,None,1879.055429799948,None,1879.055429799948,None,1879.055429799948,None,1879.351253699977,None,1879.351253699977,None,1880.661067900015,None,1880.661067900015,None,1880.661067900015,None,1880.661067900015,None,1880.661067900015,None,1880.661067900015,None,1880.661067900015,None,1880.661067900015,None,1880.661067900015,None,43,76,22,69,76,56,1883.184282900067,None,7.0,1.0211336999200284,1883.184282900067,None,1883.184282900067,None,1883.184282900067,None,1883.184282900067,None,None,None,1884.2204475998878,None,,,,,,,131,f,1,2022_Dec_12_1537,RL,2021.2.3,59.8497412520611,
1,74,0,74,0,,,,,,,,,,,,,,,None,None,None,None,None,1885.7744849000592,None,1885.7744849000592,None,1885.7744849000592,None,1885.7744849000592,None,j,0.28027789993211627,1885.7744849000592,None,1885.7744849000592,None,1886.0962867999915,None,1886.0962867999915,None,1886.0962867999915,None,1886.0962867999915,None,1886.0962867999915,None,1886.0962867999915,None,1886.3894376999233,None,1886.3894376999233,None,1888.2206856999546,None,1888.2206856999546,None,1888.2206856999546,None,1888.2206856999546,None,1888.2206856999546,None,1888.2206856999546,None,1888.2206856999546,None,1888.2206856999546,None,1888.2206856999546,None,35,83,21,76,76,41,1890.7377549000084,None,6.0,0.5048694000579417,1890.7377549000084,None,1890.7377549000084,None,1890.7377549000084,None,1890.7377549000084,None,None,None,1891.259090000065,None,,,,,,,131,f,1,2022_Dec_12_1537,RL,2021.2.3,59.8497412520611,
1,75,0,75,0,,,,,,,,,,,,,,,1893.0103235999122,None,q,1893.0103235999122,None,2005.740678299917,None,2005.740678299917,None,2005.740678299917,None,2005.740678299917,None,i,0.6700355000793934,2005.740678299917,None,2005.740678299917,None,2006.4612831000704,None,2006.4612831000704,None,2006.4612831000704,None,2006.4612831000704,None,2006.4612831000704,None,2006.4612831000704,None,2006.7561657000333,None,2006.7561657000333,None,2007.7950521998573,None,2007.7950521998573,None,2007.7950521998573,None,2007.7950521998573,None,2007.7950521998573,None,2007.7950521998573,None,2007.7950521998573,None,2007.7950521998573,None,2007.7950521998573,None,32,81,29,74,29,55,2010.3235315999482,None,5.0,0.754915300058201,2010.3235315999482,None,2010.3235315999482,None,2010.3235315999482,None,2010.3235315999482,None,None,None,2011.0951398999896,None,112.70437569986098,,,,,,131,f,1,2022_Dec_12_1537,RL,2021.2.3,59.8497412520611,
1,76,0,76,0,,,,,,,,,,,,,,,None,None,None,None,None,2012.913190299878,None,2012.913190299878,None,2012.913190299878,None,2012.913190299878,None,f,0.23748250002972782,2012.913190299878,None,2012.913190299878,None,2013.1977174999192,None,2013.1977174999192,None,2013.1977174999192,None,2013.1977174999192,None,2013.1977174999192,None,2013.1977174999192,None,2013.4940170999616,2015.011661999859,2013.4940170999616,2015.011661999859,2015.0422523999587,None,2015.0422523999587,None,2015.0422523999587,None,2015.0422523999587,None,2015.0422523999587,None,2015.0422523999587,None,2015.0422523999587,None,2015.0422523999587,None,2015.0422523999587,None,22,78,21,61,78,54,2017.5594397999812,None,6.0,0.7225043999496847,2017.5594397999812,None,2017.5594397999812,None,2017.5594397999812,None,2017.5594397999812,None,None,None,2018.297079199925,None,,,,,,,131,f,1,2022_Dec_12_1537,RL,2021.2.3,59.8497412520611,
1,77,0,77,0,,,,,,,,,,,,,,,None,None,None,None,None,2019.9517274999525,None,2019.9517274999525,None,2019.9517274999525,None,2019.9517274999525,None,r,0.21894589997828007,2019.9517274999525,None,2019.9517274999525,None,2020.2194411000237,None,2020.2194411000237,None,2020.2194411000237,None,2020.2194411000237,None,2020.2194411000237,None,2020.2194411000237,None,2020.5155865999404,None,2020.5155865999404,None,2021.7468725999352,None,2021.7468725999352,None,2021.7468725999352,None,2021.7468725999352,None,2021.7468725999352,None,2021.7468725999352,None,2021.7468725999352,None,2021.7468725999352,None,2021.7468725999352,None,42,75,25,79,42,41,2024.2707515000366,None,4.0,0.8503904999233782,2024.2707515000366,None,2024.2707515000366,None,2024.2707515000366,None,2024.2707515000366,None,None,None,2025.13501359988,None,,,,,,,131,f,1,2022_Dec_12_1537,RL,2021.2.3,59.8497412520611,
1,78,0,78,0,,,,,,,,,,,,,,,None,None,None,None,None,2026.6726941999514,None,2026.6726941999514,None,2026.6726941999514,None,2026.6726941999514,None,f,0.25915729999542236,2026.6726941999514,None,2026.6726941999514,None,2026.978972800076,None,2026.978972800076,None,2026.978972800076,None,2026.978972800076,None,2026.978972800076,None,2026.978972800076,None,2027.2702347999439,2028.9381478000432,2027.2702347999439,2028.9381478000432,2028.9706391000655,None,2028.9706391000655,None,2028.9706391000655,None,2028.9706391000655,None,2028.9706391000655,None,2028.9706391000655,None,2028.9706391000655,None,2028.9706391000655,None,2028.9706391000655,None,38,80,28,70,80,66,2031.485283399932,None,7.0,0.8894162001088262,2031.485283399932,None,2031.485283399932,None,2031.485283399932,None,2031.485283399932,None,None,None,2032.3901317000855,None,,,,,,,131,f,1,2022_Dec_12_1537,RL,2021.2.3,59.8497412520611,
1,79,0,79,0,,,,,,,,,,,,,,,None,None,None,None,None,2034.0448817999568,None,2034.0448817999568,None,2034.0448817999568,None,2034.0448817999568,None,j,0.217038800008595,2034.0448817999568,None,2034.0448817999568,None,2034.3176267999224,None,2034.3176267999224,None,2034.3176267999224,None,2034.3176267999224,None,2034.3176267999224,None,2034.3176267999224,None,2034.6083541000262,2035.8431128999218,2034.6083541000262,2035.8431128999218,2035.8746114000678,None,2035.8746114000678,None,2035.8746114000678,None,2035.8746114000678,None,2035.8746114000678,None,2035.8746114000678,None,2035.8746114000678,None,2035.8746114000678,None,2035.8746114000678,None,30,83,25,84,84,49,2038.3897372998763,None,7.0,0.5203066999092698,2038.3897372998763,None,2038.3897372998763,None,2038.3897372998763,None,2038.3897372998763,None,None,None,2038.9278207998723,None,,,,,,,131,f,1,2022_Dec_12_1537,RL,2021.2.3,59.8497412520611,
1,80,0,80,0,,,,,,,,,,,,,,,None,None,None,None,None,2040.7161288999487,None,2040.7161288999487,None,2040.7161288999487,None,2040.7161288999487,None,j,0.22576720011420548,2040.7161288999487,None,2040.7161288999487,None,2040.9850391999353,None,2040.9850391999353,None,2040.9850391999353,None,2040.9850391999353,None,2040.9850391999353,None,2040.9850391999353,None,2041.279971800046,2042.9145164000802,2041.279971800046,2042.9145164000802,2042.952932199929,None,2042.952932199929,None,2042.952932199929,None,2042.952932199929,None,2042.952932199929,None,2042.952932199929,None,2042.952932199929,None,2042.952932199929,None,2042.952932199929,None,26,80,17,73,73,65,2045.4781732999254,None,7.0,0.588517599971965,2045.4781732999254,None,2045.4781732999254,None,2045.4781732999254,None,2045.4781732999254,None,None,None,2046.0833961998578,None,,,,,,,131,f,1,2022_Dec_12_1537,RL,2021.2.3,59.8497412520611,
1,81,0,81,0,,,,,,,,,,,,,,,None,None,None,None,None,2047.7210130998865,None,2047.7210130998865,None,2047.7210130998865,None,2047.7210130998865,None,i,0.211234699934721,2047.7210130998865,None,2047.7210130998865,None,2047.973073199857,None,2047.973073199857,None,2047.973073199857,None,2047.973073199857,None,2047.973073199857,None,2047.973073199857,None,2048.268157900078,2049.9524902000558,2048.268157900078,2049.9524902000558,2049.983937599929,None,2049.983937599929,None,2049.983937599929,None,2049.983937599929,None,2049.983937599929,None,2049.983937599929,None,2049.983937599929,None,2049.983937599929,None,2049.983937599929,None,23,81,21,67,21,58,2052.4996400000528,None,3.0,0.6896510000806302,2052.4996400000528,None,2052.4996400000528,None,2052.4996400000528,None,2052.4996400000528,None,None,None,2053.2045185999013,None,,,,,,,131,f,1,2022_Dec_12_1537,RL,2021.2.3,59.8497412520611,
1,82,0,82,0,,,,,,,,,,,,,,,None,None,None,None,None,2055.1088232998736,None,2055.1088232998736,None,2055.1088232998736,None,2055.1088232998736,None,i,0.17329980013892055,2055.1088232998736,None,2055.1088232998736,None,2055.3279544999823,None,2055.3279544999823,None,2055.3279544999823,None,2055.3279544999823,None,2055.3279544999823,None,2055.3279544999823,None,2055.62343050004,2057.207520300057,2055.62343050004,2057.207520300057,2057.237548199948,None,2057.237548199948,None,2057.237548199948,None,2057.237548199948,None,2057.237548199948,None,2057.237548199948,None,2057.237548199948,None,2057.237548199948,None,2057.237548199948,None,40,72,16,72,16,60,2059.7553860000335,None,3.0,0.6059816000051796,2059.7553860000335,None,2059.7553860000335,None,2059.7553860000335,None,2059.7553860000335,None,None,None,2060.37619989994,None,,,,,,,131,f,1,2022_Dec_12_1537,RL,2021.2.3,59.8497412520611,
1,83,0,83,0,,,,,,,,,,,,,,,None,None,None,None,None,2061.8971986998804,None,2061.8971986998804,None,2061.8971986998804,None,2061.8971986998804,None,f,0.30469250003807247,2061.8971986998804,None,2061.8971986998804,None,2062.247093499871,None,2062.247093499871,None,2062.247093499871,None,2062.247093499871,None,2062.247093499871,None,2062.247093499871,None,2062.5447796999943,2064.1290557999164,2062.5447796999943,2064.1290557999164,2064.160344499862,None,2064.160344499862,None,2064.160344499862,None,2064.160344499862,None,2064.160344499862,None,2064.160344499862,None,2064.160344499862,None,2064.160344499862,None,2064.160344499862,None,33,80,21,78,80,54,2066.6766582999844,None,6.0,0.6218111000489444,2066.6766582999844,None,2066.6766582999844,None,2066.6766582999844,None,2066.6766582999844,None,None,None,2067.3171687999275,None,,,,,,,131,f,1,2022_Dec_12_1537,RL,2021.2.3,59.8497412520611,
1,84,0,84,0,,,,,,,,,,,,,,,None,None,None,None,None,2069.1858630999923,None,2069.1858630999923,None,2069.1858630999923,None,2069.1858630999923,None,r,0.21628349996171892,2069.1858630999923,None,2069.1858630999923,None,2069.4530507999007,None,2069.4530507999007,None,2069.4530507999007,None,2069.4530507999007,None,2069.4530507999007,None,2069.4530507999007,None,2069.7496750000864,None,2069.7496750000864,None,2071.513821099885,None,2071.513821099885,None,2071.513821099885,None,2071.513821099885,None,2071.513821099885,None,2071.513821099885,None,2071.513821099885,None,2071.513821099885,None,2071.513821099885,None,39,81,17,74,39,52,2074.032834399957,None,4.0,0.9376512998715043,2074.032834399957,None,2074.032834399957,None,2074.032834399957,None,2074.032834399957,None,None,None,2074.9867058000527,None,,,,,,,131,f,1,2022_Dec_12_1537,RL,2021.2.3,59.8497412520611,
1,85,0,85,0,,,,,,,,,,,,,,,None,None,None,None,None,2076.6575257999357,None,2076.6575257999357,None,2076.6575257999357,None,2076.6575257999357,None,i,0.23497570003382862,2076.6575257999357,None,2076.6575257999357,None,2076.9444859998766,None,2076.9444859998766,None,2076.9444859998766,None,2076.9444859998766,None,2076.9444859998766,None,2076.9444859998766,None,2077.2382354000583,2079.0227948999964,2077.2382354000583,2079.0227948999964,2079.054956899956,None,2079.054956899956,None,2079.054956899956,None,2079.054956899956,None,2079.054956899956,None,2079.054956899956,None,2079.054956899956,None,2079.054956899956,None,2079.054956899956,None,33,81,15,75,15,58,2081.570999899879,None,3.0,0.7215212001465261,2081.570999899879,None,2081.570999899879,None,2081.570999899879,None,2081.570999899879,None,None,None,2082.3079260999803,None,,,,,,,131,f,1,2022_Dec_12_1537,RL,2021.2.3,59.8497412520611,
1,86,0,86,0,,,,,,,,,,,,,,,None,None,None,None,None,2084.079643700039,None,2084.079643700039,None,2084.079643700039,None,2084.079643700039,None,i,0.4123257000464946,2084.079643700039,None,2084.079643700039,None,2084.5405766998883,None,2084.5405766998883,None,2084.5405766998883,None,2084.5405766998883,None,2084.5405766998883,None,2084.5405766998883,None,2084.826811600011,2086.694546099985,2084.826811600011,2086.694546099985,2086.730570100015,None,2086.730570100015,None,2086.730570100015,None,2086.730570100015,None,2086.730570100015,None,2086.730570100015,None,2086.730570100015,None,2086.730570100015,None,2086.730570100015,None,29,90,27,81,27,66,2089.245255399961,None,3.0,0.9684033000376076,2089.245255399961,None,2089.245255399961,None,2089.245255399961,None,2089.245255399961,None,None,None,2090.230133000063,None,,,,,,,131,f,1,2022_Dec_12_1537,RL,2021.2.3,59.8497412520611,
1,87,0,87,0,,,,,,,,,,,,,,,None,None,None,None,None,2092.16801750008,None,2092.16801750008,None,2092.16801750008,None,2092.16801750008,None,f,0.29453109996393323,2092.16801750008,None,2092.16801750008,None,2092.5039015999064,None,2092.5039015999064,None,2092.5039015999064,None,2092.5039015999064,None,2092.5039015999064,None,2092.5039015999064,None,2092.7992364999373,2094.183112599887,2092.7992364999373,2094.183112599887,2094.216342800064,None,2094.216342800064,None,2094.216342800064,None,2094.216342800064,None,2094.216342800064,None,2094.216342800064,None,2094.216342800064,None,2094.216342800064,None,2094.216342800064,None,27,90,28,69,90,62,2096.732559700031,None,7.0,0.7523548000026494,2096.732559700031,None,2096.732559700031,None,2096.732559700031,None,2096.732559700031,None,None,None,2097.501579700038,None,,,,,,,131,f,1,2022_Dec_12_1537,RL,2021.2.3,59.8497412520611,
1,88,0,88,0,,,,,,,,,,,,,,,None,None,None,None,None,2099.2729445998557,None,2099.2729445998557,None,2099.2729445998557,None,2099.2729445998557,None,r,0.3294637000653893,2099.2729445998557,None,2099.2729445998557,None,2099.6510143999476,None,2099.6510143999476,None,2099.6510143999476,None,2099.6510143999476,None,2099.6510143999476,None,2099.6510143999476,None,2099.937301199883,2100.7709947000258,2099.937301199883,2100.7709947000258,2100.80300970003,None,2100.80300970003,None,2100.80300970003,None,2100.80300970003,None,2100.80300970003,None,2100.80300970003,None,2100.80300970003,None,2100.80300970003,None,2100.80300970003,None,32,81,26,63,32,66,2103.3214050999377,None,6.0,0.8703709999099374,2103.3214050999377,None,2103.3214050999377,None,2103.3214050999377,None,2103.3214050999377,None,None,None,2104.208121399861,None,,,,,,,131,f,1,2022_Dec_12_1537,RL,2021.2.3,59.8497412520611,
1,89,0,89,0,,,,,,,,,,,,,,,None,None,None,None,None,2106.111580000026,None,2106.111580000026,None,2106.111580000026,None,2106.111580000026,None,i,0.2606776000466198,2106.111580000026,None,2106.111580000026,None,2106.4175454999786,None,2106.4175454999786,None,2106.4175454999786,None,2106.4175454999786,None,2106.4175454999786,None,2106.4175454999786,None,2106.708672599867,2108.3430226999335,2106.708672599867,2108.3430226999335,2108.374891999876,None,2108.374891999876,None,2108.374891999876,None,2108.374891999876,None,2108.374891999876,None,2108.374891999876,None,2108.374891999876,None,2108.374891999876,None,2108.374891999876,None,37,84,22,66,22,36,2110.8905591999646,None,2.0,0.6902175999712199,2110.8905591999646,None,2110.8905591999646,None,2110.8905591999646,None,2110.8905591999646,None,None,None,2111.6025900999084,None,,,,,,,131,f,1,2022_Dec_12_1537,RL,2021.2.3,59.8497412520611,
1,90,0,90,0,,,,,,,,,,,,,,,None,None,None,None,None,2113.1996104000136,None,2113.1996104000136,None,2113.1996104000136,None,2113.1996104000136,None,f,0.4428471999708563,2113.1996104000136,None,2113.1996104000136,None,2113.691144200042,None,2113.691144200042,None,2113.691144200042,None,2113.691144200042,None,2113.691144200042,None,2113.691144200042,None,2113.9802373999264,2115.7316777999513,2113.9802373999264,2115.7316777999513,2115.765160900075,None,2115.765160900075,None,2115.765160900075,None,2115.765160900075,None,2115.765160900075,None,2115.765160900075,None,2115.765160900075,None,2115.765160900075,None,2115.765160900075,None,28,92,20,65,92,60,2118.2791834999807,None,7.0,0.6224366000387818,2118.2791834999807,None,2118.2791834999807,None,2118.2791834999807,None,2118.2791834999807,None,None,None,2118.9165076999925,None,,,,,,,131,f,1,2022_Dec_12_1537,RL,2021.2.3,59.8497412520611,
1,91,0,91,0,,,,,,,,,,,,,,,None,None,None,None,None,2120.721493500052,None,2120.721493500052,None,2120.721493500052,None,2120.721493500052,None,r,0.2707380000501871,2120.721493500052,None,2120.721493500052,None,2121.041429299861,None,2121.041429299861,None,2121.041429299861,None,2121.041429299861,None,2121.041429299861,None,2121.041429299861,None,2121.3353339000605,None,2121.3353339000605,None,2123.253284299979,None,2123.253284299979,None,2123.253284299979,None,2123.253284299979,None,2123.253284299979,None,2123.253284299979,None,2123.253284299979,None,2123.253284299979,None,2123.253284299979,None,37,85,17,54,37,63,2125.766488299938,None,4.0,0.8727561000268906,2125.766488299938,None,2125.766488299938,None,2125.766488299938,None,2125.766488299938,None,None,None,2126.6551302999724,None,,,,,,,131,f,1,2022_Dec_12_1537,RL,2021.2.3,59.8497412520611,
1,92,0,92,0,,,,,,,,,,,,,,,None,None,None,None,None,2128.609769299859,None,2128.609769299859,None,2128.609769299859,None,2128.609769299859,None,r,0.31292009982280433,2128.609769299859,None,2128.609769299859,None,2128.966534399893,None,2128.966534399893,None,2128.966534399893,None,2128.966534399893,None,2128.966534399893,None,2128.966534399893,None,2129.2576943000313,None,2129.2576943000313,None,2130.755713199964,None,2130.755713199964,None,2130.755713199964,None,2130.755713199964,None,2130.755713199964,None,2130.755713199964,None,2130.755713199964,None,2130.755713199964,None,2130.755713199964,None,35,82,20,54,35,59,2133.273648099974,None,3.0,0.8871604001615196,2133.273648099974,None,2133.273648099974,None,2133.273648099974,None,2133.273648099974,None,None,None,2134.177134400001,None,,,,,,,131,f,1,2022_Dec_12_1537,RL,2021.2.3,59.8497412520611,
1,93,0,93,0,,,,,,,,,,,,,,,None,None,None,None,None,2135.84847899992,None,2135.84847899992,None,2135.84847899992,None,2135.84847899992,None,j,0.30392240011133254,2135.84847899992,None,2135.84847899992,None,2136.2012720999774,None,2136.2012720999774,None,2136.2012720999774,None,2136.2012720999774,None,2136.2012720999774,None,2136.2012720999774,None,2136.4959092999343,2137.813472500071,2136.4959092999343,2137.813472500071,2137.8432354000397,None,2137.8432354000397,None,2137.8432354000397,None,2137.8432354000397,None,2137.8432354000397,None,2137.8432354000397,None,2137.8432354000397,None,2137.8432354000397,None,2137.8432354000397,None,39,80,11,60,60,56,2140.361250499962,None,5.0,0.5364843998104334,2140.361250499962,None,2140.361250499962,None,2140.361250499962,None,2140.361250499962,None,None,None,2140.916005200008,None,,,,,,,131,f,1,2022_Dec_12_1537,RL,2021.2.3,59.8497412520611,
1,94,0,94,0,,,,,,,,,,,,,,,None,None,None,None,None,2142.7533305999823,None,2142.7533305999823,None,2142.7533305999823,None,2142.7533305999823,None,i,0.21890829992480576,2142.7533305999823,None,2142.7533305999823,None,2143.0235593998805,None,2143.0235593998805,None,2143.0235593998805,None,2143.0235593998805,None,2143.0235593998805,None,2143.0235593998805,None,2143.317277400056,None,2143.317277400056,None,2144.513969199965,None,2144.513969199965,None,2144.513969199965,None,2144.513969199965,None,2144.513969199965,None,2144.513969199965,None,2144.513969199965,None,2144.513969199965,None,2144.513969199965,None,41,82,20,60,20,65,2147.031796500087,None,2.0,0.6226909998804331,2147.031796500087,None,2147.031796500087,None,2147.031796500087,None,2147.031796500087,None,None,None,2147.669743000064,None,,,,,,,131,f,1,2022_Dec_12_1537,RL,2021.2.3,59.8497412520611,
1,95,0,95,0,,,,,,,,,,,,,,,None,None,None,None,None,2149.2078945999965,None,2149.2078945999965,None,2149.2078945999965,None,2149.2078945999965,None,f,0.2946251002140343,2149.2078945999965,None,2149.2078945999965,None,2149.542277300032,None,2149.542277300032,None,2149.542277300032,None,2149.542277300032,None,2149.542277300032,None,2149.542277300032,None,2149.8385930000804,None,2149.8385930000804,None,2151.220479399897,None,2151.220479399897,None,2151.220479399897,None,2151.220479399897,None,2151.220479399897,None,2151.220479399897,None,2151.220479399897,None,2151.220479399897,None,2151.220479399897,None,39,79,9,53,79,35,2153.7380778000224,None,6.0,0.6715130000375211,2153.7380778000224,None,2153.7380778000224,None,2153.7380778000224,None,2153.7380778000224,None,None,None,2154.4245190999936,None,,,,,,,131,f,1,2022_Dec_12_1537,RL,2021.2.3,59.8497412520611,
1,96,0,96,0,,,,,,,,,,,,,,,None,None,None,None,None,2156.279335399857,None,2156.279335399857,None,2156.279335399857,None,2156.279335399857,None,r,0.27308009983971715,2156.279335399857,None,2156.279335399857,None,2156.5995555000845,None,2156.5995555000845,None,2156.5995555000845,None,2156.5995555000845,None,2156.5995555000845,None,2156.5995555000845,None,2156.8934647999704,None,2156.8934647999704,None,2158.391860799864,None,2158.391860799864,None,2158.391860799864,None,2158.391860799864,None,2158.391860799864,None,2158.391860799864,None,2158.391860799864,None,2158.391860799864,None,2158.391860799864,None,39,84,14,52,39,70,2160.9095294999424,None,3.0,1.023021899862215,2160.9095294999424,None,2160.9095294999424,None,2160.9095294999424,None,2160.9095294999424,None,None,None,2161.9467466999777,None,,,,,,,131,f,1,2022_Dec_12_1537,RL,2021.2.3,59.8497412520611,
1,97,0,97,0,,,,,,,,,,,,,,,None,None,None,None,None,2163.651427899953,None,2163.651427899953,None,2163.651427899953,None,2163.651427899953,None,i,0.22118220012634993,2163.651427899953,None,2163.651427899953,None,2163.92400670005,None,2163.92400670005,None,2163.92400670005,None,2163.92400670005,None,2163.92400670005,None,2163.92400670005,None,2164.21520700003,2166.116459599929,2164.21520700003,2166.116459599929,2166.1550948000513,None,2166.1550948000513,None,2166.1550948000513,None,2166.1550948000513,None,2166.1550948000513,None,2166.1550948000513,None,2166.1550948000513,None,2166.1550948000513,None,2166.1550948000513,None,40,71,14,61,14,46,2168.6872103998903,None,2.0,0.8185289001557976,2168.6872103998903,None,2168.6872103998903,None,2168.6872103998903,None,2168.6872103998903,None,None,None,2169.5187198000494,None,,,,,,,131,f,1,2022_Dec_12_1537,RL,2021.2.3,59.8497412520611,
1,98,0,98,0,,,,,,,,,,,,,,,None,None,None,None,None,2171.3072609999217,None,2171.3072609999217,None,2171.3072609999217,None,2171.3072609999217,None,j,0.2557470998726785,2171.3072609999217,None,2171.3072609999217,None,2171.6121771000326,None,2171.6121771000326,None,2171.6121771000326,None,2171.6121771000326,None,2171.6121771000326,None,2171.6121771000326,None,2171.9039831000846,2173.38811849989,2171.9039831000846,2173.38811849989,2173.420167000033,None,2173.420167000033,None,2173.420167000033,None,2173.420167000033,None,2173.420167000033,None,2173.420167000033,None,2173.420167000033,None,2173.420167000033,None,2173.420167000033,None,36,82,19,55,55,54,2175.935677899979,None,5.0,1.120722800027579,2175.935677899979,None,2175.935677899979,None,2175.935677899979,None,2175.935677899979,None,None,None,2177.0735637999605,None,,,,,,,131,f,1,2022_Dec_12_1537,RL,2021.2.3,59.8497412520611,
1,99,0,99,0,,,,,,,,,,,,,,,None,None,None,None,None,2178.7945749000646,None,2178.7945749000646,None,2178.7945749000646,None,2178.7945749000646,None,f,0.24833430000580847,2178.7945749000646,None,2178.7945749000646,None,2179.0816041000653,None,2179.0816041000653,None,2179.0816041000653,None,2179.0816041000653,None,2179.0816041000653,None,2179.0816041000653,None,2179.3757458999753,2180.943365300074,2179.3757458999753,2180.943365300074,2180.9763034998905,None,2180.9763034998905,None,2180.9763034998905,None,2180.9763034998905,None,2180.9763034998905,None,2180.9763034998905,None,2180.9763034998905,None,2180.9763034998905,None,2180.9763034998905,None,29,69,11,57,69,68,2183.4914911999367,None,6.0,0.6218703999184072,2183.4914911999367,None,2183.4914911999367,None,2183.4914911999367,None,2183.4914911999367,None,None,None,2184.1284070999827,None,,,,,,,131,f,1,2022_Dec_12_1537,RL,2021.2.3,59.8497412520611,
1,100,0,100,0,,,,,,,,,,,,,,,None,None,None,None,None,2186.1167127999943,None,2186.1167127999943,None,2186.1167127999943,None,2186.1167127999943,None,f,0.3171566999517381,2186.1167127999943,None,2186.1167127999943,None,2186.4839240000583,None,2186.4839240000583,None,2186.4839240000583,None,2186.4839240000583,None,2186.4839240000583,None,2186.4839240000583,None,2186.780930500012,None,2186.780930500012,None,2187.7610031999648,None,2187.7610031999648,None,2187.7610031999648,None,2187.7610031999648,None,2187.7610031999648,None,2187.7610031999648,None,2187.7610031999648,None,2187.7610031999648,None,2187.7610031999648,None,31,78,14,54,78,50,2190.279763699975,None,6.0,0.5687311999499798,2190.279763699975,None,2190.279763699975,None,2190.279763699975,None,2190.279763699975,None,None,None,2190.8676861000713,None,,,,,,,131,f,1,2022_Dec_12_1537,RL,2021.2.3,59.8497412520611,
1,101,0,101,0,,,,,,,,,,,,,,,None,None,None,None,None,2192.853672099998,None,2192.853672099998,None,2192.853672099998,None,2192.853672099998,None,j,0.5101624000817537,2192.853672099998,None,2192.853672099998,None,2193.4075332998764,None,2193.4075332998764,None,2193.4075332998764,None,2193.4075332998764,None,2193.4075332998764,None,2193.4075332998764,None,2193.702574899886,2195.420058700023,2193.702574899886,2195.420058700023,2195.4533098998945,None,2195.4533098998945,None,2195.4533098998945,None,2195.4533098998945,None,2195.4533098998945,None,2195.4533098998945,None,2195.4533098998945,None,2195.4533098998945,None,2195.4533098998945,None,24,79,16,46,46,60,2197.9657391000073,None,5.0,0.7397545001003891,2197.9657391000073,None,2197.9657391000073,None,2197.9657391000073,None,2197.9657391000073,None,None,None,2198.721879699966,None,,,,,,,131,f,1,2022_Dec_12_1537,RL,2021.2.3,59.8497412520611,
1,102,0,102,0,,,,,,,,,,,,,,,None,None,None,None,None,2200.693509500008,None,2200.693509500008,None,2200.693509500008,None,2200.693509500008,None,f,0.2303792000748217,2200.693509500008,None,2200.693509500008,None,2200.9631155999377,None,2200.9631155999377,None,2200.9631155999377,None,2200.9631155999377,None,2200.9631155999377,None,2200.9631155999377,None,2201.2574396999553,None,2201.2574396999553,None,2202.6887650000863,None,2202.6887650000863,None,2202.6887650000863,None,2202.6887650000863,None,2202.6887650000863,None,2202.6887650000863,None,2202.6887650000863,None,2202.6887650000863,None,2202.6887650000863,None,32,76,21,58,76,69,2205.205342199886,None,6.0,0.4872796998824924,2205.205342199886,None,2205.205342199886,None,2205.205342199886,None,2205.205342199886,None,None,None,2205.7102244000416,None,,,,,,,131,f,1,2022_Dec_12_1537,RL,2021.2.3,59.8497412520611,
1,103,0,103,0,,,,,,,,,,,,,,,None,None,None,None,None,2207.2970801999327,None,2207.2970801999327,None,2207.2970801999327,None,2207.2970801999327,None,f,0.30682870000600815,2207.2970801999327,None,2207.2970801999327,None,2207.651038599899,None,2207.651038599899,None,2207.651038599899,None,2207.651038599899,None,2207.651038599899,None,2207.651038599899,None,2207.9457719000056,2208.8963715999853,2207.9457719000056,2208.8963715999853,2208.9266629000194,None,2208.9266629000194,None,2208.9266629000194,None,2208.9266629000194,None,2208.9266629000194,None,2208.9266629000194,None,2208.9266629000194,None,2208.9266629000194,None,2208.9266629000194,None,28,81,22,47,81,51,2211.4460888998583,None,6.0,0.4529176999349147,2211.4460888998583,None,2211.4460888998583,None,2211.4460888998583,None,2211.4460888998583,None,None,None,2211.9228795000818,None,,,,,,,131,f,1,2022_Dec_12_1537,RL,2021.2.3,59.8497412520611,
1,104,0,104,0,,,,,,,,,,,,,,,None,None,None,None,None,2213.869140099967,None,2213.869140099967,None,2213.869140099967,None,2213.869140099967,None,f,0.2848492998164147,2213.869140099967,None,2213.869140099967,None,2214.210273799952,None,2214.210273799952,None,2214.210273799952,None,2214.210273799952,None,2214.210273799952,None,2214.210273799952,None,2214.5000229999423,None,2214.5000229999423,None,2215.7306959000416,None,2215.7306959000416,None,2215.7306959000416,None,2215.7306959000416,None,2215.7306959000416,None,2215.7306959000416,None,2215.7306959000416,None,2215.7306959000416,None,2215.7306959000416,None,30,83,17,52,83,72,2218.249547400046,None,6.0,0.7371294000186026,2218.249547400046,None,2218.249547400046,None,2218.249547400046,None,2218.249547400046,None,None,None,2219.002966699889,None,,,,,,,131,f,1,2022_Dec_12_1537,RL,2021.2.3,59.8497412520611,
1,105,0,105,0,,,,,,,,,,,,,,,None,None,None,None,None,2220.523662300082,None,2220.523662300082,None,2220.523662300082,None,2220.523662300082,None,f,0.25038670003414154,2220.523662300082,None,2220.523662300082,None,2220.836980199907,None,2220.836980199907,None,2220.836980199907,None,2220.836980199907,None,2220.836980199907,None,2220.836980199907,None,2221.121312699979,2223.0059672000352,2221.121312699979,2223.0059672000352,2223.0376130999066,None,2223.0376130999066,None,2223.0376130999066,None,2223.0376130999066,None,2223.0376130999066,None,2223.0376130999066,None,2223.0376130999066,None,2223.0376130999066,None,2223.0376130999066,None,28,81,20,64,81,74,2225.555240900023,None,7.0,0.8861023001372814,2225.555240900023,None,2225.555240900023,None,2225.555240900023,None,2225.555240900023,None,None,None,2226.459194399882,None,,,,,,,131,f,1,2022_Dec_12_1537,RL,2021.2.3,59.8497412520611,
1,106,0,106,0,,,,,,,,,,,,,,,None,None,None,None,None,2228.429053100059,None,2228.429053100059,None,2228.429053100059,None,2228.429053100059,None,f,0.36519999988377094,2228.429053100059,None,2228.429053100059,None,2228.8313092000317,None,2228.8313092000317,None,2228.8313092000317,None,2228.8313092000317,None,2228.8313092000317,None,2228.8313092000317,None,2229.1268356998917,None,2229.1268356998917,None,2230.1397333000787,None,2230.1397333000787,None,2230.1397333000787,None,2230.1397333000787,None,2230.1397333000787,None,2230.1397333000787,None,2230.1397333000787,None,2230.1397333000787,None,2230.1397333000787,None,25,79,25,52,79,30,2232.658034800086,None,7.0,0.6543417000211775,2232.658034800086,None,2232.658034800086,None,2232.658034800086,None,2232.658034800086,None,None,None,2233.3291613999754,None,,,,,,,131,f,1,2022_Dec_12_1537,RL,2021.2.3,59.8497412520611,
1,107,0,107,0,,,,,,,,,,,,,,,None,None,None,None,None,2235.2344205998816,None,2235.2344205998816,None,2235.2344205998816,None,2235.2344205998816,None,f,0.2795912001747638,2235.2344205998816,None,2235.2344205998816,None,2235.554500499973,None,2235.554500499973,None,2235.554500499973,None,2235.554500499973,None,2235.554500499973,None,2235.554500499973,None,2235.8481276999228,2237.416029700078,2235.8481276999228,2237.416029700078,2237.4477073999587,None,2237.4477073999587,None,2237.4477073999587,None,2237.4477073999587,None,2237.4477073999587,None,2237.4477073999587,None,2237.4477073999587,None,2237.4477073999587,None,2237.4477073999587,None,20,88,18,54,88,85,2239.963539300021,None,7.0,0.7224697000347078,2239.963539300021,None,2239.963539300021,None,2239.963539300021,None,2239.963539300021,None,None,None,2240.701306700008,None,,,,,,,131,f,1,2022_Dec_12_1537,RL,2021.2.3,59.8497412520611,
1,108,0,108,0,,,,,,,,,,,,,,,None,None,None,None,None,2242.4387459999416,None,2242.4387459999416,None,2242.4387459999416,None,2242.4387459999416,None,f,0.29532120004296303,2242.4387459999416,None,2242.4387459999416,None,2242.7729197000153,None,2242.7729197000153,None,2242.7729197000153,None,2242.7729197000153,None,2242.7729197000153,None,2242.7729197000153,None,2243.0698335999623,None,2243.0698335999623,None,2244.199628900038,None,2244.199628900038,None,2244.199628900038,None,2244.199628900038,None,2244.199628900038,None,2244.199628900038,None,2244.199628900038,None,2244.199628900038,None,2244.199628900038,None,13,73,13,54,73,44,2246.717651200015,None,6.0,0.5571846000384539,2246.717651200015,None,2246.717651200015,None,2246.717651200015,None,2246.717651200015,None,None,None,2247.2904723000247,None,,,,,,,131,f,1,2022_Dec_12_1537,RL,2021.2.3,59.8497412520611,
1,109,0,109,0,,,,,,,,,,,,,,,None,None,None,None,None,2249.1430355000775,None,2249.1430355000775,None,2249.1430355000775,None,2249.1430355000775,None,f,0.44101680000312626,2249.1430355000775,None,2249.1430355000775,None,2249.6301359999925,None,2249.6301359999925,None,2249.6301359999925,None,2249.6301359999925,None,2249.6301359999925,None,2249.6301359999925,None,2249.9246217000764,None,2249.9246217000764,None,2251.0559696999844,None,2251.0559696999844,None,2251.0559696999844,None,2251.0559696999844,None,2251.0559696999844,None,2251.0559696999844,None,2251.0559696999844,None,2251.0559696999844,None,2251.0559696999844,None,25,88,5,54,88,46,2253.5731814000756,None,6.0,0.5225170000921935,2253.5731814000756,None,2253.5731814000756,None,2253.5731814000756,None,2253.5731814000756,None,None,None,2254.1102187000215,None,,,,,,,131,f,1,2022_Dec_12_1537,RL,2021.2.3,59.8497412520611,
