bandit,trials.thisRepN,trials.thisTrialN,trials.thisN,trials.thisIndex,instru_img1.started,instru_resp.started,instru_resp.keys,instru_resp.rt,instru_img2.started,instru_resp2.started,instru_resp2.keys,instru_resp2.rt,fixbefore_2.started,rest_response.keys,red.started,green.started,yellow.started,blue.started,choose_bandit.started,Fixation.started,choose_bandit.keys,choose_bandit.rt,black.started,red_2.started,green_2.started,yellow_2.started,blue_2.started,fixation_2.started,docs.started,image_2.started,docs.stopped,image_2.stopped,black.stopped,red_2.stopped,green_2.stopped,yellow_2.stopped,blue_2.stopped,fixation_2.stopped,black_com.started,reward_sub.started,palyerb.started,reward__sub.started,compare.started,red_compare.started,green_com.started,yellow_com.started,blue_com.started,image_3.started,slider.started,text.started,image_4.started,image_5.started,rewardyellow,rewardred,rewardblue,rewardgreen,subchoose,playerb,slider.response,slider.rt,intertrialfix.started,intertrialfix.stopped,rest_image.started,rest_response.started,rest_response.rt,bigx.started,bigx.stopped,image.started,key_resp.started,key_resp.keys,participant,Gender,Age,date,expName,psychopyVersion,frameRate,
,,,,,19.907175099942833,19.907175099942833,space,13.873920499812812,,,,,,,,,,,,,,,,,,,,,,,,,,,,,,,,,,,,,,,,,,,,,,,,,,,,,,,,,,,,,,,133,f,1,2022-12-12_16h41.00.420,RL,2022.2.4,60.12845843676791,
,,,,,,,,,33.81865769997239,33.81865769997239,space,4.777157800272107,,,,,,,,,,,,,,,,,,,,,,,,,,,,,,,,,,,,,,,,,,,,,,,,,,,,,,,,,,,133,f,1,2022-12-12_16h41.00.420,RL,2022.2.4,60.12845843676791,
1,0,0,0,0,,,,,,,,,38.61492440011352,None,39.63004339998588,39.63004339998588,39.63004339998588,39.63004339998588,39.63004339998588,39.63004339998588,r,0.2643465003930032,39.965875199995935,39.965875199995935,39.965875199995935,39.965875199995935,39.965875199995935,39.965875199995935,40.21145070018247,40.21145070018247,41.574104600120336,41.574104600120336,41.62990629998967,41.62990629998967,41.62990629998967,41.62990629998967,41.62990629998967,41.62990629998967,41.62990629998967,41.62990629998967,41.62990629998967,41.62990629998967,41.62990629998967,41.62990629998967,41.62990629998967,41.62990629998967,41.62990629998967,44.13375789998099,44.13375789998099,44.13375789998099,44.13375789998099,44.13375789998099,65,36,51,41,65,29,4.0,2.1268445001915097,46.31890319986269,47.90668850019574,,,,,,,,,133,f,1,2022-12-12_16h41.00.420,RL,2022.2.4,60.12845843676791,
1,1,0,1,0,,,,,,,,,,None,47.90668850019574,47.90668850019574,47.90668850019574,47.90668850019574,47.90668850019574,47.90668850019574,f,1.0290109002962708,48.9562109997496,48.9562109997496,48.9562109997496,48.9562109997496,48.9562109997496,48.9562109997496,49.25327750016004,49.25327750016004,50.46699990006164,50.46699990006164,50.46699990006164,50.46699990006164,50.46699990006164,50.46699990006164,50.46699990006164,50.46699990006164,50.46699990006164,50.46699990006164,50.46699990006164,50.46699990006164,50.46699990006164,50.46699990006164,50.46699990006164,50.46699990006164,50.46699990006164,52.97602920001373,52.97602920001373,52.97602920001373,52.97602920001373,52.97602920001373,67,29,62,39,29,43,3.0,2.3929722998291254,55.38628409989178,57.1318426001817,,,,,,,,,133,f,1,2022-12-12_16h41.00.420,RL,2022.2.4,60.12845843676791,
1,2,0,2,0,,,,,,,,,,None,57.1318426001817,57.1318426001817,57.1318426001817,57.1318426001817,57.1318426001817,57.1318426001817,i,0.559783199802041,57.7152919000946,57.7152919000946,57.7152919000946,57.7152919000946,57.7152919000946,57.7152919000946,58.012840799987316,58.012840799987316,59.32567249983549,59.32567249983549,59.32567249983549,59.32567249983549,59.32567249983549,59.32567249983549,59.32567249983549,59.32567249983549,59.32567249983549,59.32567249983549,59.32567249983549,59.32567249983549,59.32567249983549,59.32567249983549,59.32567249983549,59.32567249983549,59.32567249983549,61.835159400012344,61.835159400012344,61.835159400012344,61.835159400012344,61.835159400012344,61,33,51,51,51,42,5.0,1.079741499852389,62.931938299909234,64.87715819990262,,,,,,,,,133,f,1,2022-12-12_16h41.00.420,RL,2022.2.4,60.12845843676791,
1,3,0,3,0,,,,,,,,,,None,64.87715819990262,64.87715819990262,64.87715819990262,64.87715819990262,64.87715819990262,64.87715819990262,j,0.7384474999271333,65.64503529993817,65.64503529993817,65.64503529993817,65.64503529993817,65.64503529993817,65.64503529993817,65.9414118998684,65.9414118998684,67.1049456000328,67.1049456000328,67.12110280012712,67.12110280012712,67.12110280012712,67.12110280012712,67.12110280012712,67.12110280012712,67.12110280012712,67.12110280012712,67.12110280012712,67.12110280012712,67.12110280012712,67.12110280012712,67.12110280012712,67.12110280012712,67.12110280012712,69.63041420001537,69.63041420001537,69.63041420001537,69.63041420001537,69.63041420001537,68,28,49,50,50,46,6.0,1.0456644999794662,70.69438230013475,72.37351709976792,,,,,,,,,133,f,1,2022-12-12_16h41.00.420,RL,2022.2.4,60.12845843676791,
1,4,0,4,0,,,,,,,,,,None,72.37351709976792,72.37351709976792,72.37351709976792,72.37351709976792,72.37351709976792,72.37351709976792,r,0.6235972000285983,73.02361979987472,73.02361979987472,73.02361979987472,73.02361979987472,73.02361979987472,73.02361979987472,73.32112539978698,73.32112539978698,74.65077059995383,74.65077059995383,74.66714809974656,74.66714809974656,74.66714809974656,74.66714809974656,74.66714809974656,74.66714809974656,74.66714809974656,74.66714809974656,74.66714809974656,74.66714809974656,74.66714809974656,74.66714809974656,74.66714809974656,74.66714809974656,74.66714809974656,77.17648060014471,77.17648060014471,77.17648060014471,77.17648060014471,77.17648060014471,72,42,55,44,72,63,7.0,1.2297052000649273,78.4232008997351,80.26878680009395,,,,,,,,,133,f,1,2022-12-12_16h41.00.420,RL,2022.2.4,60.12845843676791,
1,5,0,5,0,,,,,,,,,,None,80.26878680009395,80.26878680009395,80.26878680009395,80.26878680009395,80.26878680009395,80.26878680009395,f,0.9586645998060703,81.25174929993227,81.25174929993227,81.25174929993227,81.25174929993227,81.25174929993227,81.25174929993227,81.54903130000457,81.54903130000457,83.32705850014463,83.32705850014463,83.32705850014463,83.32705850014463,83.32705850014463,83.32705850014463,83.32705850014463,83.32705850014463,83.32705850014463,83.32705850014463,83.32705850014463,83.32705850014463,83.32705850014463,83.32705850014463,83.32705850014463,83.32705850014463,83.32705850014463,85.83608489995822,85.83608489995822,85.83608489995822,85.83608489995822,85.83608489995822,72,30,52,53,30,59,2.0,0.8299248996190727,86.68398139998317,88.41294809989631,,,,,,,,,133,f,1,2022-12-12_16h41.00.420,RL,2022.2.4,60.12845843676791,
1,6,0,6,0,,,,,,,,,,None,88.41294809989631,88.41294809989631,88.41294809989631,88.41294809989631,88.41294809989631,88.41294809989631,r,0.6441827998496592,89.08023890014738,89.08023890014738,89.08023890014738,89.08023890014738,89.08023890014738,89.08023890014738,89.37741040019318,89.37741040019318,90.59049279987812,90.59049279987812,90.60720029985532,90.60720029985532,90.60720029985532,90.60720029985532,90.60720029985532,90.60720029985532,90.60720029985532,90.60720029985532,90.60720029985532,90.60720029985532,90.60720029985532,90.60720029985532,90.60720029985532,90.60720029985532,90.60720029985532,93.11666020005941,93.11666020005941,93.11666020005941,93.11666020005941,93.11666020005941,63,32,48,44,63,52,5.0,0.929557700175792,94.06391290016472,95.90927799977362,,,,,,,,,133,f,1,2022-12-12_16h41.00.420,RL,2022.2.4,60.12845843676791,
1,7,0,7,0,,,,,,,,,,None,95.90927799977362,95.90927799977362,95.90927799977362,95.90927799977362,95.90927799977362,95.90927799977362,i,0.8731089998036623,96.80898740002885,96.80898740002885,96.80898740002885,96.80898740002885,96.80898740002885,96.80898740002885,97.10673009976745,97.10673009976745,98.8181007001549,98.8181007001549,98.8181007001549,98.8181007001549,98.8181007001549,98.8181007001549,98.8181007001549,98.8181007001549,98.8181007001549,98.8181007001549,98.8181007001549,98.8181007001549,98.8181007001549,98.8181007001549,98.8181007001549,98.8181007001549,98.8181007001549,101.32720889989287,101.32720889989287,101.32720889989287,101.32720889989287,101.32720889989287,66,33,50,48,50,68,4.0,0.6807605000212789,102.02564739994705,103.95378870004788,,,,,,,,,133,f,1,2022-12-12_16h41.00.420,RL,2022.2.4,60.12845843676791,
1,8,0,8,0,,,,,,,,,,None,103.95378870004788,103.95378870004788,103.95378870004788,103.95378870004788,103.95378870004788,103.95378870004788,j,0.6689805001951754,104.65432950016111,104.65432950016111,104.65432950016111,104.65432950016111,104.65432950016111,104.65432950016111,104.95141519978642,104.95141519978642,106.0153469000943,106.0153469000943,106.0153469000943,106.0153469000943,106.0153469000943,106.0153469000943,106.0153469000943,106.0153469000943,106.0153469000943,106.0153469000943,106.0153469000943,106.0153469000943,106.0153469000943,106.0153469000943,106.0153469000943,106.0153469000943,106.0153469000943,108.52423870004714,108.52423870004714,108.52423870004714,108.52423870004714,108.52423870004714,74,37,47,50,50,51,4.0,0.563696900382638,109.10636219987646,111.05102880019695,,,,,,,,,133,f,1,2022-12-12_16h41.00.420,RL,2022.2.4,60.12845843676791,
1,9,0,9,0,,,,,,,,,,None,111.05102880019695,111.05102880019695,111.05102880019695,111.05102880019695,111.05102880019695,111.05102880019695,r,0.5632253000512719,111.63490659976378,111.63490659976378,111.63490659976378,111.63490659976378,111.63490659976378,111.63490659976378,111.93256280012429,111.93256280012429,112.96323380013928,112.96323380013928,112.96323380013928,112.96323380013928,112.96323380013928,112.96323380013928,112.96323380013928,112.96323380013928,112.96323380013928,112.96323380013928,112.96323380013928,112.96323380013928,112.96323380013928,112.96323380013928,112.96323380013928,112.96323380013928,112.96323380013928,115.4722548997961,115.4722548997961,115.4722548997961,115.4722548997961,115.4722548997961,75,39,47,36,75,45,6.0,1.4116911999881268,116.90138779999688,118.76367559982464,,,,,,,,,133,f,1,2022-12-12_16h41.00.420,RL,2022.2.4,60.12845843676791,
1,10,0,10,0,,,,,,,,,,None,118.76367559982464,118.76367559982464,118.76367559982464,118.76367559982464,118.76367559982464,118.76367559982464,r,0.5956639000214636,119.38126499997452,119.38126499997452,119.38126499997452,119.38126499997452,119.38126499997452,119.38126499997452,119.67803329974413,119.67803329974413,120.60887110000476,120.60887110000476,120.60887110000476,120.60887110000476,120.60887110000476,120.60887110000476,120.60887110000476,120.60887110000476,120.60887110000476,120.60887110000476,120.60887110000476,120.60887110000476,120.60887110000476,120.60887110000476,120.60887110000476,120.60887110000476,120.60887110000476,123.11800909973681,123.11800909973681,123.11800909973681,123.11800909973681,123.11800909973681,66,30,51,49,66,47,5.0,1.1954707000404596,124.33120450004935,126.0768275000155,,,,,,,,,133,f,1,2022-12-12_16h41.00.420,RL,2022.2.4,60.12845843676791,
1,11,0,11,0,,,,,,,,,,None,126.0768275000155,126.0768275000155,126.0768275000155,126.0768275000155,126.0768275000155,126.0768275000155,r,0.48453509993851185,126.59472319995984,126.59472319995984,126.59472319995984,126.59472319995984,126.59472319995984,126.59472319995984,126.8918106998317,126.8918106998317,128.67015870008618,128.67015870008618,128.67015870008618,128.67015870008618,128.67015870008618,128.67015870008618,128.67015870008618,128.67015870008618,128.67015870008618,128.67015870008618,128.67015870008618,128.67015870008618,128.67015870008618,128.67015870008618,128.67015870008618,128.67015870008618,128.67015870008618,131.1791893998161,131.1791893998161,131.1791893998161,131.1791893998161,131.1791893998161,65,39,56,53,65,49,6.0,0.8636640002951026,132.06019889982417,133.72295429976657,,,,,,,,,133,f,1,2022-12-12_16h41.00.420,RL,2022.2.4,60.12845843676791,
1,12,0,12,0,,,,,,,,,,None,133.72295429976657,133.72295429976657,133.72295429976657,133.72295429976657,133.72295429976657,133.72295429976657,r,0.6630251999013126,134.4057538001798,134.4057538001798,134.4057538001798,134.4057538001798,134.4057538001798,134.4057538001798,134.70380580006167,134.70380580006167,136.2497672997415,136.2497672997415,136.2497672997415,136.2497672997415,136.2497672997415,136.2497672997415,136.2497672997415,136.2497672997415,136.2497672997415,136.2497672997415,136.2497672997415,136.2497672997415,136.2497672997415,136.2497672997415,136.2497672997415,136.2497672997415,136.2497672997415,138.75866509974003,138.75866509974003,138.75866509974003,138.75866509974003,138.75866509974003,75,43,54,49,75,31,7.0,0.8141183000989258,139.58990929974243,141.25233849976212,,,,,,,,,133,f,1,2022-12-12_16h41.00.420,RL,2022.2.4,60.12845843676791,
1,13,0,13,0,,,,,,,,,,None,141.25233849976212,141.25233849976212,141.25233849976212,141.25233849976212,141.25233849976212,141.25233849976212,r,0.5370324999094009,141.82035019993782,141.82035019993782,141.82035019993782,141.82035019993782,141.82035019993782,141.82035019993782,142.11733399983495,142.11733399983495,143.28034539986402,143.28034539986402,143.28034539986402,143.28034539986402,143.28034539986402,143.28034539986402,143.28034539986402,143.28034539986402,143.28034539986402,143.28034539986402,143.28034539986402,143.28034539986402,143.28034539986402,143.28034539986402,143.28034539986402,143.28034539986402,143.28034539986402,145.78950770013034,145.78950770013034,145.78950770013034,145.78950770013034,145.78950770013034,73,37,39,41,73,51,7.0,0.5476626004092395,146.35426479997113,148.2828937000595,,,,,,,,,133,f,1,2022-12-12_16h41.00.420,RL,2022.2.4,60.12845843676791,
1,14,0,14,0,,,,,,,,,,None,148.2828937000595,148.2828937000595,148.2828937000595,148.2828937000595,148.2828937000595,148.2828937000595,j,0.4998316001147032,148.81782330013812,148.81782330013812,148.81782330013812,148.81782330013812,148.81782330013812,148.81782330013812,149.11439940007403,149.11439940007403,150.64362759981304,150.64362759981304,150.66015700018033,150.66015700018033,150.66015700018033,150.66015700018033,150.66015700018033,150.66015700018033,150.66015700018033,150.66015700018033,150.66015700018033,150.66015700018033,150.66015700018033,150.66015700018033,150.66015700018033,150.66015700018033,150.66015700018033,153.16908999998122,153.16908999998122,153.16908999998122,153.16908999998122,153.16908999998122,66,43,47,40,40,28,5.0,0.8803979996591806,154.0666165999137,155.94557960005477,,,,,,,,,133,f,1,2022-12-12_16h41.00.420,RL,2022.2.4,60.12845843676791,
1,15,0,15,0,,,,,,,,,,None,155.94557960005477,155.94557960005477,155.94557960005477,155.94557960005477,155.94557960005477,155.94557960005477,r,0.47641840018332005,156.44551010010764,156.44551010010764,156.44551010010764,156.44551010010764,156.44551010010764,156.44551010010764,156.74346259981394,156.74346259981394,158.25621809996665,158.25621809996665,158.25621809996665,158.25621809996665,158.25621809996665,158.25621809996665,158.25621809996665,158.25621809996665,158.25621809996665,158.25621809996665,158.25621809996665,158.25621809996665,158.25621809996665,158.25621809996665,158.25621809996665,158.25621809996665,158.25621809996665,160.7652602000162,160.7652602000162,160.7652602000162,160.7652602000162,160.7652602000162,62,46,46,48,62,37,5.0,0.7139204996638,161.49647929985076,163.42522099986672,,,,,,,,,133,f,1,2022-12-12_16h41.00.420,RL,2022.2.4,60.12845843676791,
1,16,0,16,0,,,,,,,,,,None,163.42522099986672,163.42522099986672,163.42522099986672,163.42522099986672,163.42522099986672,163.42522099986672,j,0.4182072998955846,163.87585450010374,163.87585450010374,163.87585450010374,163.87585450010374,163.87585450010374,163.87585450010374,164.1733526000753,164.1733526000753,166.15095480019227,166.15095480019227,166.16777230007574,166.16777230007574,166.16777230007574,166.16777230007574,166.16777230007574,166.16777230007574,166.16777230007574,166.16777230007574,166.16777230007574,166.16777230007574,166.16777230007574,166.16777230007574,166.16777230007574,166.16777230007574,166.16777230007574,168.67666789982468,168.67666789982468,168.67666789982468,168.67666789982468,168.67666789982468,61,40,49,52,52,42,6.0,0.8962518000043929,169.59097809996456,171.12053690012544,,,,,,,,,133,f,1,2022-12-12_16h41.00.420,RL,2022.2.4,60.12845843676791,
1,17,0,17,0,,,,,,,,,,None,171.12053690012544,171.12053690012544,171.12053690012544,171.12053690012544,171.12053690012544,171.12053690012544,f,0.3520106999203563,171.5070978999138,171.5070978999138,171.5070978999138,171.5070978999138,171.5070978999138,171.5070978999138,171.80240859976038,171.80240859976038,173.73054010001943,173.73054010001943,173.74705319991335,173.74705319991335,173.74705319991335,173.74705319991335,173.74705319991335,173.74705319991335,173.74705319991335,173.74705319991335,173.74705319991335,173.74705319991335,173.74705319991335,173.74705319991335,173.74705319991335,173.74705319991335,173.74705319991335,176.25657390011474,176.25657390011474,176.25657390011474,176.25657390011474,176.25657390011474,56,39,44,43,39,35,5.0,1.3964132000692189,177.6689522000961,179.28197340015322,,,,,,,,,133,f,1,2022-12-12_16h41.00.420,RL,2022.2.4,60.12845843676791,
1,18,0,18,0,,,,,,,,,,None,179.28197340015322,179.28197340015322,179.28197340015322,179.28197340015322,179.28197340015322,179.28197340015322,i,0.2750294995494187,179.5841180998832,179.5841180998832,179.5841180998832,179.5841180998832,179.5841180998832,179.5841180998832,179.88056179974228,179.88056179974228,181.37682119989768,181.37682119989768,181.37682119989768,181.37682119989768,181.37682119989768,181.37682119989768,181.37682119989768,181.37682119989768,181.37682119989768,181.37682119989768,181.37682119989768,181.37682119989768,181.37682119989768,181.37682119989768,181.37682119989768,181.37682119989768,181.37682119989768,183.88535259990022,183.88535259990022,183.88535259990022,183.88535259990022,183.88535259990022,61,44,56,51,56,45,6.0,1.2460334999486804,185.148550900165,186.7114157998003,,,,,,,,,133,f,1,2022-12-12_16h41.00.420,RL,2022.2.4,60.12845843676791,
1,19,0,19,0,,,,,,,,,,None,186.7114157998003,186.7114157998003,186.7114157998003,186.7114157998003,186.7114157998003,186.7114157998003,r,0.4759105001576245,187.21322500007227,187.21322500007227,187.21322500007227,187.21322500007227,187.21322500007227,187.21322500007227,187.50958340009674,187.50958340009674,188.45694909989834,188.45694909989834,188.45694909989834,188.45694909989834,188.45694909989834,188.45694909989834,188.45694909989834,188.45694909989834,188.45694909989834,188.45694909989834,188.45694909989834,188.45694909989834,188.45694909989834,188.45694909989834,188.45694909989834,188.45694909989834,188.45694909989834,190.9665457000956,190.9665457000956,190.9665457000956,190.9665457000956,190.9665457000956,54,39,63,46,54,38,6.0,0.796598699875176,191.7803401001729,193.4596480000764,,,,,,,,,133,f,1,2022-12-12_16h41.00.420,RL,2022.2.4,60.12845843676791,
1,20,0,20,0,,,,,,,,,,None,193.4596480000764,193.4596480000764,193.4596480000764,193.4596480000764,193.4596480000764,193.4596480000764,j,0.6334317997097969,194.12694890005514,194.12694890005514,194.12694890005514,194.12694890005514,194.12694890005514,194.12694890005514,194.4241875000298,194.4241875000298,196.4020297001116,196.4020297001116,196.4020297001116,196.4020297001116,196.4020297001116,196.4020297001116,196.4020297001116,196.4020297001116,196.4020297001116,196.4020297001116,196.4020297001116,196.4020297001116,196.4020297001116,196.4020297001116,196.4020297001116,196.4020297001116,196.4020297001116,198.91097320010886,198.91097320010886,198.91097320010886,198.91097320010886,198.91097320010886,53,48,58,48,48,40,5.0,1.0291220997460186,199.95812280010432,201.8703318000771,,,,,,,,,133,f,1,2022-12-12_16h41.00.420,RL,2022.2.4,60.12845843676791,
1,21,0,21,0,,,,,,,,,,None,201.8703318000771,201.8703318000771,201.8703318000771,201.8703318000771,201.8703318000771,201.8703318000771,r,0.3574056997895241,202.25627809995785,202.25627809995785,202.25627809995785,202.25627809995785,202.25627809995785,202.25627809995785,202.5519627998583,202.5519627998583,203.798704800196,203.798704800196,203.8152946997434,203.8152946997434,203.8152946997434,203.8152946997434,203.8152946997434,203.8152946997434,203.8152946997434,203.8152946997434,203.8152946997434,203.8152946997434,203.8152946997434,203.8152946997434,203.8152946997434,203.8152946997434,203.8152946997434,206.32449969975278,206.32449969975278,206.32449969975278,206.32449969975278,206.32449969975278,44,45,67,46,44,46,4.0,1.2292916998267174,207.57066299999133,209.5159979001619,,,,,,,,,133,f,1,2022-12-12_16h41.00.420,RL,2022.2.4,60.12845843676791,
1,22,0,22,0,,,,,,,,,,None,209.5159979001619,209.5159979001619,209.5159979001619,209.5159979001619,209.5159979001619,209.5159979001619,r,0.5866569997742772,210.13313890015706,210.13313890015706,210.13313890015706,210.13313890015706,210.13313890015706,210.13313890015706,210.43059419980273,210.43059419980273,211.61086410004646,211.61086410004646,211.61086410004646,211.61086410004646,211.61086410004646,211.61086410004646,211.61086410004646,211.61086410004646,211.61086410004646,211.61086410004646,211.61086410004646,211.61086410004646,211.61086410004646,211.61086410004646,211.61086410004646,211.61086410004646,211.61086410004646,214.11947909975424,214.11947909975424,214.11947909975424,214.11947909975424,214.11947909975424,61,58,57,54,61,32,5.0,0.5636403998360038,214.70126179978251,216.62985899997875,,,,,,,,,133,f,1,2022-12-12_16h41.00.420,RL,2022.2.4,60.12845843676791,
1,23,0,23,0,,,,,,,,,,None,216.62985899997875,216.62985899997875,216.62985899997875,216.62985899997875,216.62985899997875,216.62985899997875,j,0.6828899001702666,217.3453234997578,217.3453234997578,217.3453234997578,217.3453234997578,217.3453234997578,217.3453234997578,217.64396050013602,217.64396050013602,218.95728790014982,218.95728790014982,218.95728790014982,218.95728790014982,218.95728790014982,218.95728790014982,218.95728790014982,218.95728790014982,218.95728790014982,218.95728790014982,218.95728790014982,218.95728790014982,218.95728790014982,218.95728790014982,218.95728790014982,218.95728790014982,218.95728790014982,221.4662120998837,221.4662120998837,221.4662120998837,221.4662120998837,221.4662120998837,47,49,66,49,49,59,2.0,1.2958546001464128,222.77909180009738,224.32573679974303,,,,,,,,,133,f,1,2022-12-12_16h41.00.420,RL,2022.2.4,60.12845843676791,
1,24,0,24,0,,,,,,,,,,None,224.32573679974303,224.32573679974303,224.32573679974303,224.32573679974303,224.32573679974303,224.32573679974303,r,0.3435619999654591,224.6930193998851,224.6930193998851,224.6930193998851,224.6930193998851,224.6930193998851,224.6930193998851,224.99064330011606,224.99064330011606,225.92131310002878,225.92131310002878,225.92131310002878,225.92131310002878,225.92131310002878,225.92131310002878,225.92131310002878,225.92131310002878,225.92131310002878,225.92131310002878,225.92131310002878,225.92131310002878,225.92131310002878,225.92131310002878,225.92131310002878,225.92131310002878,225.92131310002878,228.43065019976348,228.43065019976348,228.43065019976348,228.43065019976348,228.43065019976348,45,49,61,54,45,39,5.0,0.9629005002789199,229.41125130001456,230.94072839990258,,,,,,,,,133,f,1,2022-12-12_16h41.00.420,RL,2022.2.4,60.12845843676791,
1,25,0,25,0,,,,,,,,,,None,230.94072839990258,230.94072839990258,230.94072839990258,230.94072839990258,230.94072839990258,230.94072839990258,i,0.7449253997765481,231.7068032999523,231.7068032999523,231.7068032999523,231.7068032999523,231.7068032999523,231.7068032999523,232.00536549976096,232.00536549976096,233.86732419999316,233.86732419999316,233.86732419999316,233.86732419999316,233.86732419999316,233.86732419999316,233.86732419999316,233.86732419999316,233.86732419999316,233.86732419999316,233.86732419999316,233.86732419999316,233.86732419999316,233.86732419999316,233.86732419999316,233.86732419999316,233.86732419999316,236.37596180010587,236.37596180010587,236.37596180010587,236.37596180010587,236.37596180010587,51,48,64,52,64,30,7.0,1.0631158999167383,237.45622320007533,239.20142249995843,,,,,,,,,133,f,1,2022-12-12_16h41.00.420,RL,2022.2.4,60.12845843676791,
1,26,0,26,0,,,,,,,,,,None,239.20142249995843,239.20142249995843,239.20142249995843,239.20142249995843,239.20142249995843,239.20142249995843,r,0.49962429981678724,239.73564459988847,239.73564459988847,239.73564459988847,239.73564459988847,239.73564459988847,239.73564459988847,240.03300199983642,240.03300199983642,241.99449509987608,241.99449509987608,241.99449509987608,241.99449509987608,241.99449509987608,241.99449509987608,241.99449509987608,241.99449509987608,241.99449509987608,241.99449509987608,241.99449509987608,241.99449509987608,241.99449509987608,241.99449509987608,241.99449509987608,241.99449509987608,241.99449509987608,244.50351860001683,244.50351860001683,244.50351860001683,244.50351860001683,244.50351860001683,53,48,63,48,53,48,6.0,1.7945252996869385,246.31514529976994,247.9112688000314,,,,,,,,,133,f,1,2022-12-12_16h41.00.420,RL,2022.2.4,60.12845843676791,
1,27,0,27,0,,,,,,,,,,None,247.9112688000314,247.9112688000314,247.9112688000314,247.9112688000314,247.9112688000314,247.9112688000314,j,0.33793129958212376,248.28095210017636,248.28095210017636,248.28095210017636,248.28095210017636,248.28095210017636,248.28095210017636,248.57677169982344,248.57677169982344,249.59040550002828,249.59040550002828,249.60711070010439,249.60711070010439,249.60711070010439,249.60711070010439,249.60711070010439,249.60711070010439,249.60711070010439,249.60711070010439,249.60711070010439,249.60711070010439,249.60711070010439,249.60711070010439,249.60711070010439,249.60711070010439,249.60711070010439,252.11624970007688,252.11624970007688,252.11624970007688,252.11624970007688,252.11624970007688,44,42,67,56,56,47,6.0,1.578219700139016,253.71148480009288,255.52399480016902,,,,,,,,,133,f,1,2022-12-12_16h41.00.420,RL,2022.2.4,60.12845843676791,
1,28,0,28,0,,,,,,,,,,None,255.52399480016902,255.52399480016902,255.52399480016902,255.52399480016902,255.52399480016902,255.52399480016902,f,0.5256048003211617,256.07488740002736,256.07488740002736,256.07488740002736,256.07488740002736,256.07488740002736,256.07488740002736,256.37164099980146,256.37164099980146,257.9508822998032,257.9508822998032,257.9508822998032,257.9508822998032,257.9508822998032,257.9508822998032,257.9508822998032,257.9508822998032,257.9508822998032,257.9508822998032,257.9508822998032,257.9508822998032,257.9508822998032,257.9508822998032,257.9508822998032,257.9508822998032,257.9508822998032,260.45976709993556,260.45976709993556,260.45976709993556,260.45976709993556,260.45976709993556,55,57,61,53,57,43,6.0,0.6146970000118017,261.09161280002445,262.75442390004173,,,,,,,,,133,f,1,2022-12-12_16h41.00.420,RL,2022.2.4,60.12845843676791,
1,29,0,29,0,,,,,,,,,,None,262.75442390004173,262.75442390004173,262.75442390004173,262.75442390004173,262.75442390004173,262.75442390004173,i,0.830598599743098,263.6206350000575,263.6206350000575,263.6206350000575,263.6206350000575,263.6206350000575,263.6206350000575,263.9181276001036,263.9181276001036,265.34713369980454,265.34713369980454,265.34713369980454,265.34713369980454,265.34713369980454,265.34713369980454,265.34713369980454,265.34713369980454,265.34713369980454,265.34713369980454,265.34713369980454,265.34713369980454,265.34713369980454,265.34713369980454,265.34713369980454,265.34713369980454,265.34713369980454,267.85673899995163,267.85673899995163,267.85673899995163,267.85673899995163,267.85673899995163,56,58,55,49,55,50,5.0,0.8796316999942064,268.7539853001945,270.2837895001285,,,,,,,,,133,f,1,2022-12-12_16h41.00.420,RL,2022.2.4,60.12845843676791,
1,30,0,30,0,,,,,,,,,,None,270.2837895001285,270.2837895001285,270.2837895001285,270.2837895001285,270.2837895001285,270.2837895001285,j,0.5367489000782371,270.8510547000915,270.8510547000915,270.8510547000915,270.8510547000915,270.8510547000915,270.8510547000915,271.1482039997354,271.1482039997354,272.12894129985943,272.12894129985943,272.12894129985943,272.12894129985943,272.12894129985943,272.12894129985943,272.12894129985943,272.12894129985943,272.12894129985943,272.12894129985943,272.12894129985943,272.12894129985943,272.12894129985943,272.12894129985943,272.12894129985943,272.12894129985943,272.12894129985943,274.63810819992796,274.63810819992796,274.63810819992796,274.63810819992796,274.63810819992796,52,48,57,46,46,39,6.0,0.8305780999362469,275.4855522001162,277.1982303997502,,,,,,,,,133,f,1,2022-12-12_16h41.00.420,RL,2022.2.4,60.12845843676791,
1,31,0,31,0,,,,,,,,,,None,277.1982303997502,277.1982303997502,277.1982303997502,277.1982303997502,277.1982303997502,277.1982303997502,r,0.38340539997443557,277.615430300124,277.615430300124,277.615430300124,277.615430300124,277.615430300124,277.615430300124,277.9132289001718,277.9132289001718,279.19291860004887,279.19291860004887,279.19291860004887,279.19291860004887,279.19291860004887,279.19291860004887,279.19291860004887,279.19291860004887,279.19291860004887,279.19291860004887,279.19291860004887,279.19291860004887,279.19291860004887,279.19291860004887,279.19291860004887,279.19291860004887,279.19291860004887,281.7023176001385,281.7023176001385,281.7023176001385,281.7023176001385,281.7023176001385,55,49,59,59,55,35,6.0,1.3456753003410995,283.06498940009624,284.5947904000059,,,,,,,,,133,f,1,2022-12-12_16h41.00.420,RL,2022.2.4,60.12845843676791,
1,32,0,32,0,,,,,,,,,,None,284.5947904000059,284.5947904000059,284.5947904000059,284.5947904000059,284.5947904000059,284.5947904000059,f,0.6325059998780489,285.263156699948,285.263156699948,285.263156699948,285.263156699948,285.263156699948,285.263156699948,285.55878089973703,285.55878089973703,286.67227219976485,286.67227219976485,286.68918270012364,286.68918270012364,286.68918270012364,286.68918270012364,286.68918270012364,286.68918270012364,286.68918270012364,286.68918270012364,286.68918270012364,286.68918270012364,286.68918270012364,286.68918270012364,286.68918270012364,286.68918270012364,286.68918270012364,289.19807890011,289.19807890011,289.19807890011,289.19807890011,289.19807890011,54,49,61,53,49,34,7.0,0.8631346998736262,290.0788094997406,291.9907601000741,,,,,,,,,133,f,1,2022-12-12_16h41.00.420,RL,2022.2.4,60.12845843676791,
1,33,0,33,0,,,,,,,,,,None,291.9907601000741,291.9907601000741,291.9907601000741,291.9907601000741,291.9907601000741,291.9907601000741,i,0.4468268002383411,292.4580949000083,292.4580949000083,292.4580949000083,292.4580949000083,292.4580949000083,292.4580949000083,292.75602319976315,292.75602319976315,293.6869255998172,293.6869255998172,293.6869255998172,293.6869255998172,293.6869255998172,293.6869255998172,293.6869255998172,293.6869255998172,293.6869255998172,293.6869255998172,293.6869255998172,293.6869255998172,293.6869255998172,293.6869255998172,293.6869255998172,293.6869255998172,293.6869255998172,296.1957283001393,296.1957283001393,296.1957283001393,296.1957283001393,296.1957283001393,63,52,52,60,52,37,6.0,0.6474327999167144,296.8603130001575,298.6894359998405,,,,,,,,,133,f,1,2022-12-12_16h41.00.420,RL,2022.2.4,60.12845843676791,
1,34,0,34,0,,,,,,,,,,None,298.6894359998405,298.6894359998405,298.6894359998405,298.6894359998405,298.6894359998405,298.6894359998405,r,0.38360700011253357,299.1072975001298,299.1072975001298,299.1072975001298,299.1072975001298,299.1072975001298,299.1072975001298,299.4041709997691,299.4041709997691,300.75117709999904,300.75117709999904,300.75117709999904,300.75117709999904,300.75117709999904,300.75117709999904,300.75117709999904,300.75117709999904,300.75117709999904,300.75117709999904,300.75117709999904,300.75117709999904,300.75117709999904,300.75117709999904,300.75117709999904,300.75117709999904,300.75117709999904,303.25988510018215,303.25988510018215,303.25988510018215,303.25988510018215,303.25988510018215,55,48,63,58,55,39,1.0,1.2952791000716388,304.57288879994303,306.1193983000703,,,,,,,,,133,f,1,2022-12-12_16h41.00.420,RL,2022.2.4,60.12845843676791,
1,35,0,35,0,,,,,,,,,,None,306.1193983000703,306.1193983000703,306.1193983000703,306.1193983000703,306.1193983000703,306.1193983000703,j,0.6137521001510322,306.7549809999764,306.7549809999764,306.7549809999764,306.7549809999764,306.7549809999764,306.7549809999764,307.0500989998691,307.0500989998691,308.81208369974047,308.81208369974047,308.82883640006185,308.82883640006185,308.82883640006185,308.82883640006185,308.82883640006185,308.82883640006185,308.82883640006185,308.82883640006185,308.82883640006185,308.82883640006185,308.82883640006185,308.82883640006185,308.82883640006185,308.82883640006185,308.82883640006185,311.3380958000198,311.3380958000198,311.3380958000198,311.3380958000198,311.3380958000198,50,56,62,54,54,24,6.0,0.7638091002590954,312.1190247000195,313.66548359999433,,,,,,,,,133,f,1,2022-12-12_16h41.00.420,RL,2022.2.4,60.12845843676791,
1,36,0,36,0,,,,,,,,,,None,313.66548359999433,313.66548359999433,313.66548359999433,313.66548359999433,313.66548359999433,313.66548359999433,r,0.7024146001785994,314.3989356001839,314.3989356001839,314.3989356001839,314.3989356001839,314.3989356001839,314.3989356001839,314.6961191999726,314.6961191999726,316.540724999737,316.540724999737,316.540724999737,316.540724999737,316.540724999737,316.540724999737,316.540724999737,316.540724999737,316.540724999737,316.540724999737,316.540724999737,316.540724999737,316.540724999737,316.540724999737,316.540724999737,316.540724999737,316.540724999737,319.0501871998422,319.0501871998422,319.0501871998422,319.0501871998422,319.0501871998422,53,47,58,53,53,28,1.0,0.9133569998666644,319.98063489980996,321.87657369999215,,,,,,,,,133,f,1,2022-12-12_16h41.00.420,RL,2022.2.4,60.12845843676791,
1,37,0,37,0,,,,,,,,,,None,321.87657369999215,321.87657369999215,321.87657369999215,321.87657369999215,321.87657369999215,321.87657369999215,r,0.420992000028491,322.3267994001508,322.3267994001508,322.3267994001508,322.3267994001508,322.3267994001508,322.3267994001508,322.6247447999194,322.6247447999194,324.2031689998694,324.2031689998694,324.2031689998694,324.2031689998694,324.2031689998694,324.2031689998694,324.2031689998694,324.2031689998694,324.2031689998694,324.2031689998694,324.2031689998694,324.2031689998694,324.2031689998694,324.2031689998694,324.2031689998694,324.2031689998694,324.2031689998694,326.7126851999201,326.7126851999201,326.7126851999201,326.7126851999201,326.7126851999201,50,40,56,51,50,43,5.0,0.6149552003480494,327.3442742000334,328.94052470009774,,,,,,,,,133,f,1,2022-12-12_16h41.00.420,RL,2022.2.4,60.12845843676791,
1,38,0,38,0,,,,,,,,,,None,328.94052470009774,328.94052470009774,328.94052470009774,328.94052470009774,328.94052470009774,328.94052470009774,i,0.62374969990924,329.5899359998293,329.5899359998293,329.5899359998293,329.5899359998293,329.5899359998293,329.5899359998293,329.88789460016415,329.88789460016415,330.83559089992195,330.83559089992195,330.83559089992195,330.83559089992195,330.83559089992195,330.83559089992195,330.83559089992195,330.83559089992195,330.83559089992195,330.83559089992195,330.83559089992195,330.83559089992195,330.83559089992195,330.83559089992195,330.83559089992195,330.83559089992195,330.83559089992195,333.3441244000569,333.3441244000569,333.3441244000569,333.3441244000569,333.3441244000569,51,49,56,52,56,41,6.0,0.8633357998915017,334.22579569974914,336.00457279989496,,,,,,,,,133,f,1,2022-12-12_16h41.00.420,RL,2022.2.4,60.12845843676791,
1,39,0,39,0,,,,,,,,,,None,336.00457279989496,336.00457279989496,336.00457279989496,336.00457279989496,336.00457279989496,336.00457279989496,f,0.3547509000636637,336.3880202001892,336.3880202001892,336.3880202001892,336.3880202001892,336.3880202001892,336.3880202001892,336.68608669983223,336.68608669983223,337.6335577997379,337.6335577997379,337.6335577997379,337.6335577997379,337.6335577997379,337.6335577997379,337.6335577997379,337.6335577997379,337.6335577997379,337.6335577997379,337.6335577997379,337.6335577997379,337.6335577997379,337.6335577997379,337.6335577997379,337.6335577997379,337.6335577997379,340.142430299893,340.142430299893,340.142430299893,340.142430299893,340.142430299893,48,40,55,54,40,42,4.0,1.6606243001297116,341.8211237001233,343.73341089999303,,,,,,,,,133,f,1,2022-12-12_16h41.00.420,RL,2022.2.4,60.12845843676791,
1,40,0,40,0,,,,,,,,,,None,343.73341089999303,343.73341089999303,343.73341089999303,343.73341089999303,343.73341089999303,343.73341089999303,r,0.2915686001069844,344.04963199980557,344.04963199980557,344.04963199980557,344.04963199980557,344.04963199980557,344.04963199980557,344.348534299992,344.348534299992,346.2596470997669,346.2596470997669,346.2769903000444,346.2769903000444,346.2769903000444,346.2769903000444,346.2769903000444,346.2769903000444,346.2769903000444,346.2769903000444,346.2769903000444,346.2769903000444,346.2769903000444,346.2769903000444,346.2769903000444,346.2769903000444,346.2769903000444,348.78596829995513,348.78596829995513,348.78596829995513,348.78596829995513,348.78596829995513,55,44,64,46,55,18,7.0,0.8635034002363682,349.6664916998707,351.47888799989596,,,,,,,,,133,f,1,2022-12-12_16h41.00.420,RL,2022.2.4,60.12845843676791,
1,41,0,41,0,,,,,,,,,,None,351.47888799989596,351.47888799989596,351.47888799989596,351.47888799989596,351.47888799989596,351.47888799989596,i,0.7202838002704084,352.2283263998106,352.2283263998106,352.2283263998106,352.2283263998106,352.2283263998106,352.2283263998106,352.52649630000815,352.52649630000815,353.65633959975094,353.65633959975094,353.65633959975094,353.65633959975094,353.65633959975094,353.65633959975094,353.65633959975094,353.65633959975094,353.65633959975094,353.65633959975094,353.65633959975094,353.65633959975094,353.65633959975094,353.65633959975094,353.65633959975094,353.65633959975094,353.65633959975094,356.1656581000425,356.1656581000425,356.1656581000425,356.1656581000425,356.1656581000425,55,48,64,42,64,41,6.0,0.7805389999412,356.9630156001076,358.6424393001944,,,,,,,,,133,f,1,2022-12-12_16h41.00.420,RL,2022.2.4,60.12845843676791,
1,42,0,42,0,,,,,,,,,,None,358.6424393001944,358.6424393001944,358.6424393001944,358.6424393001944,358.6424393001944,358.6424393001944,r,0.33727850019931793,359.00868920003995,359.00868920003995,359.00868920003995,359.00868920003995,359.00868920003995,359.00868920003995,359.3074877001345,359.3074877001345,360.7039471999742,360.7039471999742,360.7039471999742,360.7039471999742,360.7039471999742,360.7039471999742,360.7039471999742,360.7039471999742,360.7039471999742,360.7039471999742,360.7039471999742,360.7039471999742,360.7039471999742,360.7039471999742,360.7039471999742,360.7039471999742,360.7039471999742,363.21319090016186,363.21319090016186,363.21319090016186,363.21319090016186,363.21319090016186,56,41,61,46,56,46,5.0,0.8300089002586901,364.06049649976194,365.97235220018774,,,,,,,,,133,f,1,2022-12-12_16h41.00.420,RL,2022.2.4,60.12845843676791,
1,43,0,43,0,,,,,,,,,,None,365.97235220018774,365.97235220018774,365.97235220018774,365.97235220018774,365.97235220018774,365.97235220018774,f,0.4579842002131045,366.45801319973543,366.45801319973543,366.45801319973543,366.45801319973543,366.45801319973543,366.45801319973543,366.7541000000201,366.7541000000201,368.2668758998625,368.2668758998625,368.2829124000855,368.2829124000855,368.2829124000855,368.2829124000855,368.2829124000855,368.2829124000855,368.2829124000855,368.2829124000855,368.2829124000855,368.2829124000855,368.2829124000855,368.2829124000855,368.2829124000855,368.2829124000855,368.2829124000855,370.79226229991764,370.79226229991764,370.79226229991764,370.79226229991764,370.79226229991764,44,39,63,48,39,17,6.0,1.111832800321281,371.9225706998259,373.80106520000845,,,,,,,,,133,f,1,2022-12-12_16h41.00.420,RL,2022.2.4,60.12845843676791,
1,44,0,44,0,,,,,,,,,,None,373.80106520000845,373.80106520000845,373.80106520000845,373.80106520000845,373.80106520000845,373.80106520000845,j,0.35368649987503886,374.1860569999553,374.1860569999553,374.1860569999553,374.1860569999553,374.1860569999553,374.1860569999553,374.4828824000433,374.4828824000433,375.5132375997491,375.5132375997491,375.5132375997491,375.5132375997491,375.5132375997491,375.5132375997491,375.5132375997491,375.5132375997491,375.5132375997491,375.5132375997491,375.5132375997491,375.5132375997491,375.5132375997491,375.5132375997491,375.5132375997491,375.5132375997491,375.5132375997491,378.0223097000271,378.0223097000271,378.0223097000271,378.0223097000271,378.0223097000271,46,33,51,46,46,50,3.0,1.4946159003302455,379.535050699953,381.4470911999233,,,,,,,,,133,f,1,2022-12-12_16h41.00.420,RL,2022.2.4,60.12845843676791,
1,45,0,45,0,,,,,,,,,,None,381.4470911999233,381.4470911999233,381.4470911999233,381.4470911999233,381.4470911999233,381.4470911999233,j,0.37844800017774105,381.8477989998646,381.8477989998646,381.8477989998646,381.8477989998646,381.8477989998646,381.8477989998646,382.14571399986744,382.14571399986744,384.05710069974884,384.05710069974884,384.05710069974884,384.05710069974884,384.05710069974884,384.05710069974884,384.05710069974884,384.05710069974884,384.05710069974884,384.05710069974884,384.05710069974884,384.05710069974884,384.05710069974884,384.05710069974884,384.05710069974884,384.05710069974884,384.05710069974884,386.56626329990104,386.56626329990104,386.56626329990104,386.56626329990104,386.56626329990104,54,32,51,50,50,46,4.0,0.8965174001641572,387.4801783999428,389.05936980014667,,,,,,,,,133,f,1,2022-12-12_16h41.00.420,RL,2022.2.4,60.12845843676791,
1,46,0,46,0,,,,,,,,,,None,389.05936980014667,389.05936980014667,389.05936980014667,389.05936980014667,389.05936980014667,389.05936980014667,r,0.3504550000652671,389.4426262001507,389.4426262001507,389.4426262001507,389.4426262001507,389.4426262001507,389.4426262001507,389.7410810999572,389.7410810999572,390.7551810997538,390.7551810997538,390.7551810997538,390.7551810997538,390.7551810997538,390.7551810997538,390.7551810997538,390.7551810997538,390.7551810997538,390.7551810997538,390.7551810997538,390.7551810997538,390.7551810997538,390.7551810997538,390.7551810997538,390.7551810997538,390.7551810997538,393.263927299995,393.263927299995,393.263927299995,393.263927299995,393.263927299995,53,35,56,55,53,40,5.0,0.6139231002889574,393.89563179994,395.77490200009197,,,,,,,,,133,f,1,2022-12-12_16h41.00.420,RL,2022.2.4,60.12845843676791,
1,47,0,47,0,,,,,,,,,,None,395.77490200009197,395.77490200009197,395.77490200009197,395.77490200009197,395.77490200009197,395.77490200009197,i,0.5109892999753356,396.3071343000047,396.3071343000047,396.3071343000047,396.3071343000047,396.3071343000047,396.3071343000047,396.6057170997374,396.6057170997374,397.586836299859,397.586836299859,397.586836299859,397.586836299859,397.586836299859,397.586836299859,397.586836299859,397.586836299859,397.586836299859,397.586836299859,397.586836299859,397.586836299859,397.586836299859,397.586836299859,397.586836299859,397.586836299859,397.586836299859,400.0959052997641,400.0959052997641,400.0959052997641,400.0959052997641,400.0959052997641,51,36,50,51,50,24,6.0,0.9130072998814285,401.0261117001064,402.93856649985537,,,,,,,,,133,f,1,2022-12-12_16h41.00.420,RL,2022.2.4,60.12845843676791,
1,48,0,48,0,,,,,,,,,,None,402.93856649985537,402.93856649985537,402.93856649985537,402.93856649985537,402.93856649985537,402.93856649985537,r,0.5478507997468114,403.5068093999289,403.5068093999289,403.5068093999289,403.5068093999289,403.5068093999289,403.5068093999289,403.8028107001446,403.8028107001446,405.1326210000552,405.1326210000552,405.1326210000552,405.1326210000552,405.1326210000552,405.1326210000552,405.1326210000552,405.1326210000552,405.1326210000552,405.1326210000552,405.1326210000552,405.1326210000552,405.1326210000552,405.1326210000552,405.1326210000552,405.1326210000552,405.1326210000552,407.6415042001754,407.6415042001754,407.6415042001754,407.6415042001754,407.6415042001754,54,32,60,44,54,46,5.0,0.7000812003389001,408.3561006998643,410.1355786998756,,,,,,,,,133,f,1,2022-12-12_16h41.00.420,RL,2022.2.4,60.12845843676791,
1,49,0,49,0,,,,,,,,,,None,410.1355786998756,410.1355786998756,410.1355786998756,410.1355786998756,410.1355786998756,410.1355786998756,j,0.45026420010253787,410.62095519993454,410.62095519993454,410.62095519993454,410.62095519993454,410.62095519993454,410.62095519993454,410.9167649000883,410.9167649000883,411.8809115001932,411.8809115001932,411.89742509974167,411.89742509974167,411.89742509974167,411.89742509974167,411.89742509974167,411.89742509974167,411.89742509974167,411.89742509974167,411.89742509974167,411.89742509974167,411.89742509974167,411.89742509974167,411.89742509974167,411.89742509974167,411.89742509974167,414.4064623997547,414.4064623997547,414.4064623997547,414.4064623997547,414.4064623997547,59,39,49,48,48,20,7.0,1.4279792001470923,415.85248669981956,417.71489359997213,,,,,,,,,133,f,1,2022-12-12_16h41.00.420,RL,2022.2.4,60.12845843676791,
1,50,0,50,0,,,,,,,,,,None,417.71489359997213,417.71489359997213,417.71489359997213,417.71489359997213,417.71489359997213,417.71489359997213,f,0.40596049977466464,418.14786399994045,418.14786399994045,418.14786399994045,418.14786399994045,418.14786399994045,418.14786399994045,418.44678450003266,418.44678450003266,419.82601149985567,419.82601149985567,419.82601149985567,419.82601149985567,419.82601149985567,419.82601149985567,419.82601149985567,419.82601149985567,419.82601149985567,419.82601149985567,419.82601149985567,419.82601149985567,419.82601149985567,419.82601149985567,419.82601149985567,419.82601149985567,419.82601149985567,422.335053099785,422.335053099785,422.335053099785,422.335053099785,422.335053099785,57,37,49,54,37,60,1.0,1.411816599778831,423.7640737001784,425.2772752000019,,,,,,,,,133,f,1,2022-12-12_16h41.00.420,RL,2022.2.4,60.12845843676791,
1,51,0,51,0,,,,,,,,,,None,425.2772752000019,425.2772752000019,425.2772752000019,425.2772752000019,425.2772752000019,425.2772752000019,j,0.4187227999791503,425.7276714001782,425.7276714001782,425.7276714001782,425.7276714001782,425.7276714001782,425.7276714001782,426.02573559992015,426.02573559992015,427.6710112998262,427.6710112998262,427.6710112998262,427.6710112998262,427.6710112998262,427.6710112998262,427.6710112998262,427.6710112998262,427.6710112998262,427.6710112998262,427.6710112998262,427.6710112998262,427.6710112998262,427.6710112998262,427.6710112998262,427.6710112998262,427.6710112998262,430.1802296000533,430.1802296000533,430.1802296000533,430.1802296000533,430.1802296000533,50,34,59,55,55,39,6.0,0.9124668999575078,431.1107577001676,432.88979340018705,,,,,,,,,133,f,1,2022-12-12_16h41.00.420,RL,2022.2.4,60.12845843676791,
1,52,0,52,0,,,,,,,,,,None,432.88979340018705,432.88979340018705,432.88979340018705,432.88979340018705,432.88979340018705,432.88979340018705,f,0.6803995999507606,433.5902585000731,433.5902585000731,433.5902585000731,433.5902585000731,433.5902585000731,433.5902585000731,433.8874474000186,433.8874474000186,434.96800009999424,434.96800009999424,434.96800009999424,434.96800009999424,434.96800009999424,434.96800009999424,434.96800009999424,434.96800009999424,434.96800009999424,434.96800009999424,434.96800009999424,434.96800009999424,434.96800009999424,434.96800009999424,434.96800009999424,434.96800009999424,434.96800009999424,437.47703150007874,437.47703150007874,437.47703150007874,437.47703150007874,437.47703150007874,52,44,61,54,44,55,2.0,0.7304405001923442,438.2246260000393,440.1537536997348,,,,,,,,,133,f,1,2022-12-12_16h41.00.420,RL,2022.2.4,60.12845843676791,
1,53,0,53,0,,,,,,,,,,None,440.1537536997348,440.1537536997348,440.1537536997348,440.1537536997348,440.1537536997348,440.1537536997348,f,0.46185449976474047,440.63718960015103,440.63718960015103,440.63718960015103,440.63718960015103,440.63718960015103,440.63718960015103,440.9349301997572,440.9349301997572,442.5472598997876,442.5472598997876,442.5472598997876,442.5472598997876,442.5472598997876,442.5472598997876,442.5472598997876,442.5472598997876,442.5472598997876,442.5472598997876,442.5472598997876,442.5472598997876,442.5472598997876,442.5472598997876,442.5472598997876,442.5472598997876,442.5472598997876,445.0561282001436,445.0561282001436,445.0561282001436,445.0561282001436,445.0561282001436,53,42,59,52,42,49,3.0,1.0125167001970112,446.08661699993536,447.749469100032,,,,,,,,,133,f,1,2022-12-12_16h41.00.420,RL,2022.2.4,60.12845843676791,
1,54,0,54,0,,,,,,,,,,None,447.749469100032,447.749469100032,447.749469100032,447.749469100032,447.749469100032,447.749469100032,f,0.305483799893409,448.0857810000889,448.0857810000889,448.0857810000889,448.0857810000889,448.0857810000889,448.0857810000889,448.3813128997572,448.3813128997572,449.7609629998915,449.7609629998915,449.7775348997675,449.7775348997675,449.7775348997675,449.7775348997675,449.7775348997675,449.7775348997675,449.7775348997675,449.7775348997675,449.7775348997675,449.7775348997675,449.7775348997675,449.7775348997675,449.7775348997675,449.7775348997675,449.7775348997675,452.286388900131,452.286388900131,452.286388900131,452.286388900131,452.286388900131,44,40,56,52,40,46,1.0,1.0794267999008298,453.38332440005615,455.06277329986915,,,,,,,,,133,f,1,2022-12-12_16h41.00.420,RL,2022.2.4,60.12845843676791,
1,55,0,55,0,,,,,,,,,,None,455.06277329986915,455.06277329986915,455.06277329986915,455.06277329986915,455.06277329986915,455.06277329986915,f,0.4177100998349488,455.51286499993876,455.51286499993876,455.51286499993876,455.51286499993876,455.51286499993876,455.51286499993876,455.8112960001454,455.8112960001454,456.89134379988536,456.89134379988536,456.89134379988536,456.89134379988536,456.89134379988536,456.89134379988536,456.89134379988536,456.89134379988536,456.89134379988536,456.89134379988536,456.89134379988536,456.89134379988536,456.89134379988536,456.89134379988536,456.89134379988536,456.89134379988536,456.89134379988536,459.4003133000806,459.4003133000806,459.4003133000806,459.4003133000806,459.4003133000806,53,35,66,47,35,45,7.0,0.6145661999471486,460.03227069973946,461.8108501001261,,,,,,,,,133,f,1,2022-12-12_16h41.00.420,RL,2022.2.4,60.12845843676791,
1,56,0,56,0,,,,,,,,,,None,461.8108501001261,461.8108501001261,461.8108501001261,461.8108501001261,461.8108501001261,461.8108501001261,f,0.630678600165993,462.4605172001757,462.4605172001757,462.4605172001757,462.4605172001757,462.4605172001757,462.4605172001757,462.7588778999634,462.7588778999634,464.58730140002444,464.58730140002444,464.58730140002444,464.58730140002444,464.58730140002444,464.58730140002444,464.58730140002444,464.58730140002444,464.58730140002444,464.58730140002444,464.58730140002444,464.58730140002444,464.58730140002444,464.58730140002444,464.58730140002444,464.58730140002444,464.58730140002444,467.0964703997597,467.0964703997597,467.0964703997597,467.0964703997597,467.0964703997597,55,48,50,63,48,53,4.0,1.8770678001455963,468.9908440001309,470.90294509986416,,,,,,,,,133,f,1,2022-12-12_16h41.00.420,RL,2022.2.4,60.12845843676791,
1,57,0,57,0,,,,,,,,,,None,470.90294509986416,470.90294509986416,470.90294509986416,470.90294509986416,470.90294509986416,470.90294509986416,f,0.3858453999273479,471.32134630018845,471.32134630018845,471.32134630018845,471.32134630018845,471.32134630018845,471.32134630018845,471.61788479983807,471.61788479983807,473.1305638998747,473.1305638998747,473.1305638998747,473.1305638998747,473.1305638998747,473.1305638998747,473.1305638998747,473.1305638998747,473.1305638998747,473.1305638998747,473.1305638998747,473.1305638998747,473.1305638998747,473.1305638998747,473.1305638998747,473.1305638998747,473.1305638998747,475.6393883000128,475.6393883000128,475.6393883000128,475.6393883000128,475.6393883000128,47,40,56,60,40,49,7.0,0.5810373001731932,476.2378138001077,477.78421089984477,,,,,,,,,133,f,1,2022-12-12_16h41.00.420,RL,2022.2.4,60.12845843676791,
1,58,0,58,0,,,,,,,,,,None,477.78421089984477,477.78421089984477,477.78421089984477,477.78421089984477,477.78421089984477,477.78421089984477,f,0.345119200181216,478.1509393998422,478.1509393998422,478.1509393998422,478.1509393998422,478.1509393998422,478.1509393998422,478.44938760017976,478.44938760017976,480.0283487997949,480.0283487997949,480.0283487997949,480.0283487997949,480.0283487997949,480.0283487997949,480.0283487997949,480.0283487997949,480.0283487997949,480.0283487997949,480.0283487997949,480.0283487997949,480.0283487997949,480.0283487997949,480.0283487997949,480.0283487997949,480.0283487997949,482.537741499953,482.537741499953,482.537741499953,482.537741499953,482.537741499953,49,41,55,49,41,44,7.0,0.7809152998961508,483.3351115998812,485.06462469976395,,,,,,,,,133,f,1,2022-12-12_16h41.00.420,RL,2022.2.4,60.12845843676791,
1,59,0,59,0,,,,,,,,,,None,485.06462469976395,485.06462469976395,485.06462469976395,485.06462469976395,485.06462469976395,485.06462469976395,f,0.6397188999690115,485.7319021001458,485.7319021001458,485.7319021001458,485.7319021001458,485.7319021001458,485.7319021001458,486.0288057997823,486.0288057997823,487.07555419998243,487.07555419998243,487.07555419998243,487.07555419998243,487.07555419998243,487.07555419998243,487.07555419998243,487.07555419998243,487.07555419998243,487.07555419998243,487.07555419998243,487.07555419998243,487.07555419998243,487.07555419998243,487.07555419998243,487.07555419998243,487.07555419998243,489.5848436001688,489.5848436001688,489.5848436001688,489.5848436001688,489.5848436001688,51,39,61,49,39,47,1.0,0.8301391000859439,490.43231760011986,492.327815100085,,,,,,,,,133,f,1,2022-12-12_16h41.00.420,RL,2022.2.4,60.12845843676791,
1,60,0,60,0,,,,,,,,,,None,492.327815100085,492.327815100085,492.327815100085,492.327815100085,492.327815100085,492.327815100085,i,0.3666929001919925,492.73020419990644,492.73020419990644,492.73020419990644,492.73020419990644,492.73020419990644,492.73020419990644,493.02638599975035,493.02638599975035,494.5221339999698,494.5221339999698,494.5221339999698,494.5221339999698,494.5221339999698,494.5221339999698,494.5221339999698,494.5221339999698,494.5221339999698,494.5221339999698,494.5221339999698,494.5221339999698,494.5221339999698,494.5221339999698,494.5221339999698,494.5221339999698,494.5221339999698,497.0311366999522,497.0311366999522,497.0311366999522,497.0311366999522,497.0311366999522,48,30,64,52,64,44,7.0,1.328713099937886,498.37771249981597,499.95687490003183,,,,,,,,,133,f,1,2022-12-12_16h41.00.420,RL,2022.2.4,60.12845843676791,
1,61,0,61,0,,,,,,,,,,None,499.95687490003183,499.95687490003183,499.95687490003183,499.95687490003183,499.95687490003183,499.95687490003183,f,0.5958794001489878,500.57301619974896,500.57301619974896,500.57301619974896,500.57301619974896,500.57301619974896,500.57301619974896,500.87134729977697,500.87134729977697,501.9021076997742,501.9021076997742,501.9021076997742,501.9021076997742,501.9021076997742,501.9021076997742,501.9021076997742,501.9021076997742,501.9021076997742,501.9021076997742,501.9021076997742,501.9021076997742,501.9021076997742,501.9021076997742,501.9021076997742,501.9021076997742,501.9021076997742,504.41082639992237,504.41082639992237,504.41082639992237,504.41082639992237,504.41082639992237,48,32,61,50,32,32,4.0,1.4623185000382364,505.89045180007815,507.71931010019034,,,,,,,,,133,f,1,2022-12-12_16h41.00.420,RL,2022.2.4,60.12845843676791,
1,62,0,62,0,,,,,,,,,,None,507.71931010019034,507.71931010019034,507.71931010019034,507.71931010019034,507.71931010019034,507.71931010019034,r,0.3338214000687003,508.0854214001447,508.0854214001447,508.0854214001447,508.0854214001447,508.0854214001447,508.0854214001447,508.3844905998558,508.3844905998558,509.73086170013994,509.73086170013994,509.73086170013994,509.73086170013994,509.73086170013994,509.73086170013994,509.73086170013994,509.73086170013994,509.73086170013994,509.73086170013994,509.73086170013994,509.73086170013994,509.73086170013994,509.73086170013994,509.73086170013994,509.73086170013994,509.73086170013994,512.2399781998247,512.2399781998247,512.2399781998247,512.2399781998247,512.2399781998247,54,40,50,59,54,49,6.0,1.14600870013237,513.4029810000211,515.1154263000935,,,,,,,,,133,f,1,2022-12-12_16h41.00.420,RL,2022.2.4,60.12845843676791,
1,63,0,63,0,,,,,,,,,,None,515.1154263000935,515.1154263000935,515.1154263000935,515.1154263000935,515.1154263000935,515.1154263000935,j,0.5416979999281466,515.6834023999982,515.6834023999982,515.6834023999982,515.6834023999982,515.6834023999982,515.6834023999982,515.980514800176,515.980514800176,516.9943409999833,516.9943409999833,516.9943409999833,516.9943409999833,516.9943409999833,516.9943409999833,516.9943409999833,516.9943409999833,516.9943409999833,516.9943409999833,516.9943409999833,516.9943409999833,516.9943409999833,516.9943409999833,516.9943409999833,516.9943409999833,516.9943409999833,519.5031976997852,519.5031976997852,519.5031976997852,519.5031976997852,519.5031976997852,58,42,60,58,58,51,5.0,0.5978620001114905,520.1183925000951,521.7974851001054,,,,,,,,,133,f,1,2022-12-12_16h41.00.420,RL,2022.2.4,60.12845843676791,
1,64,0,64,0,,,,,,,,,,None,521.7974851001054,521.7974851001054,521.7974851001054,521.7974851001054,521.7974851001054,521.7974851001054,r,0.410975799895823,522.2303595999256,522.2303595999256,522.2303595999256,522.2303595999256,522.2303595999256,522.2303595999256,522.5291081001051,522.5291081001051,524.008533900138,524.008533900138,524.008533900138,524.008533900138,524.008533900138,524.008533900138,524.008533900138,524.008533900138,524.008533900138,524.008533900138,524.008533900138,524.008533900138,524.008533900138,524.008533900138,524.008533900138,524.008533900138,524.008533900138,526.5172938001342,526.5172938001342,526.5172938001342,526.5172938001342,526.5172938001342,66,51,50,49,66,51,5.0,0.53077910002321,527.066213299986,528.8615504000336,,,,,,,,,133,f,1,2022-12-12_16h41.00.420,RL,2022.2.4,60.12845843676791,
1,65,0,65,0,,,,,,,,,,None,528.8615504000336,528.8615504000336,528.8615504000336,528.8615504000336,528.8615504000336,528.8615504000336,f,0.48314519971609116,529.3789290999994,529.3789290999994,529.3789290999994,529.3789290999994,529.3789290999994,529.3789290999994,529.6766127999872,529.6766127999872,530.6733937999234,530.6733937999234,530.6733937999234,530.6733937999234,530.6733937999234,530.6733937999234,530.6733937999234,530.6733937999234,530.6733937999234,530.6733937999234,530.6733937999234,530.6733937999234,530.6733937999234,530.6733937999234,530.6733937999234,530.6733937999234,530.6733937999234,533.182378700003,533.182378700003,533.182378700003,533.182378700003,533.182378700003,59,43,53,58,43,46,3.0,0.9287319998256862,534.1303440001793,535.9256822001189,,,,,,,,,133,f,1,2022-12-12_16h41.00.420,RL,2022.2.4,60.12845843676791,
1,66,0,66,0,,,,,,,,,,None,535.9256822001189,535.9256822001189,535.9256822001189,535.9256822001189,535.9256822001189,535.9256822001189,i,0.3993441998027265,536.3598329001106,536.3598329001106,536.3598329001106,536.3598329001106,536.3598329001106,536.3598329001106,536.6571438000537,536.6571438000537,538.4525306001306,538.4525306001306,538.4525306001306,538.4525306001306,538.4525306001306,538.4525306001306,538.4525306001306,538.4525306001306,538.4525306001306,538.4525306001306,538.4525306001306,538.4525306001306,538.4525306001306,538.4525306001306,538.4525306001306,538.4525306001306,538.4525306001306,540.961429100018,540.961429100018,540.961429100018,540.961429100018,540.961429100018,60,50,51,64,51,57,3.0,0.6481111999601126,541.6265865000896,543.4715431998484,,,,,,,,,133,f,1,2022-12-12_16h41.00.420,RL,2022.2.4,60.12845843676791,
1,67,0,67,0,,,,,,,,,,None,543.4715431998484,543.4715431998484,543.4715431998484,543.4715431998484,543.4715431998484,543.4715431998484,j,0.5220792000181973,544.0225931997411,544.0225931997411,544.0225931997411,544.0225931997411,544.0225931997411,544.0225931997411,544.31974419998,544.31974419998,545.3831128999591,545.3831128999591,545.3831128999591,545.3831128999591,545.3831128999591,545.3831128999591,545.3831128999591,545.3831128999591,545.3831128999591,545.3831128999591,545.3831128999591,545.3831128999591,545.3831128999591,545.3831128999591,545.3831128999591,545.3831128999591,545.3831128999591,547.8928108001128,547.8928108001128,547.8928108001128,547.8928108001128,547.8928108001128,55,50,59,60,60,51,7.0,1.0961190001107752,549.0059942998923,550.9846962001175,,,,,,,,,133,f,1,2022-12-12_16h41.00.420,RL,2022.2.4,60.12845843676791,
1,68,0,68,0,,,,,,,,,,None,550.9846962001175,550.9846962001175,550.9846962001175,550.9846962001175,550.9846962001175,550.9846962001175,f,0.6729184999130666,551.6853089998476,551.6853089998476,551.6853089998476,551.6853089998476,551.6853089998476,551.6853089998476,551.9821254997514,551.9821254997514,553.677120400127,553.677120400127,553.677120400127,553.677120400127,553.677120400127,553.677120400127,553.677120400127,553.677120400127,553.677120400127,553.677120400127,553.677120400127,553.677120400127,553.677120400127,553.677120400127,553.677120400127,553.677120400127,553.677120400127,556.1861538998783,556.1861538998783,556.1861538998783,556.1861538998783,556.1861538998783,57,50,56,57,50,53,5.0,1.262062099762261,557.4666114998981,559.228851699736,,,,,,,,,133,f,1,2022-12-12_16h41.00.420,RL,2022.2.4,60.12845843676791,
1,69,0,69,0,,,,,,,,,,None,559.228851699736,559.228851699736,559.228851699736,559.228851699736,559.228851699736,559.228851699736,i,0.6072652000002563,559.8624712000601,559.8624712000601,559.8624712000601,559.8624712000601,559.8624712000601,559.8624712000601,560.1595716001466,560.1595716001466,561.6388682997786,561.6388682997786,561.6388682997786,561.6388682997786,561.6388682997786,561.6388682997786,561.6388682997786,561.6388682997786,561.6388682997786,561.6388682997786,561.6388682997786,561.6388682997786,561.6388682997786,561.6388682997786,561.6388682997786,561.6388682997786,561.6388682997786,564.1482397997752,564.1482397997752,564.1482397997752,564.1482397997752,564.1482397997752,59,42,59,63,59,45,6.0,0.6803510002791882,564.8457976998761,566.4923919001594,,,,,,,,,133,f,1,2022-12-12_16h41.00.420,RL,2022.2.4,60.12845843676791,
1,70,0,70,0,,,,,,,,,,None,566.4923919001594,566.4923919001594,566.4923919001594,566.4923919001594,566.4923919001594,566.4923919001594,j,0.37877839989960194,566.8944419999607,566.8944419999607,566.8944419999607,566.8944419999607,566.8944419999607,566.8944419999607,567.1908462997526,567.1908462997526,569.0190558000468,569.0190558000468,569.0190558000468,569.0190558000468,569.0190558000468,569.0190558000468,569.0190558000468,569.0190558000468,569.0190558000468,569.0190558000468,569.0190558000468,569.0190558000468,569.0190558000468,569.0190558000468,569.0190558000468,569.0190558000468,569.0190558000468,571.527774900198,571.527774900198,571.527774900198,571.527774900198,571.527774900198,57,45,55,59,59,46,7.0,0.7305378997698426,572.2758921999484,574.2541457000189,,,,,,,,,133,f,1,2022-12-12_16h41.00.420,RL,2022.2.4,60.12845843676791,
1,71,0,71,0,,,,,,,,,,None,574.2541457000189,574.2541457000189,574.2541457000189,574.2541457000189,574.2541457000189,574.2541457000189,f,0.38738799979910254,574.6705152001232,574.6705152001232,574.6705152001232,574.6705152001232,574.6705152001232,574.6705152001232,574.9692283999175,574.9692283999175,576.8474761000834,576.8474761000834,576.8474761000834,576.8474761000834,576.8474761000834,576.8474761000834,576.8474761000834,576.8474761000834,576.8474761000834,576.8474761000834,576.8474761000834,576.8474761000834,576.8474761000834,576.8474761000834,576.8474761000834,576.8474761000834,576.8474761000834,579.3564868001267,579.3564868001267,579.3564868001267,579.3564868001267,579.3564868001267,67,47,53,67,47,56,2.0,0.796983600128442,580.1710962001234,581.8005631999113,,,,,,,,,133,f,1,2022-12-12_16h41.00.420,RL,2022.2.4,60.12845843676791,
1,72,0,72,0,,,,,,,,,,None,581.8005631999113,581.8005631999113,581.8005631999113,581.8005631999113,581.8005631999113,581.8005631999113,i,0.4210240002721548,582.250407199841,582.250407199841,582.250407199841,582.250407199841,582.250407199841,582.250407199841,582.5487377997488,582.5487377997488,584.4265732001513,584.4265732001513,584.4265732001513,584.4265732001513,584.4265732001513,584.4265732001513,584.4265732001513,584.4265732001513,584.4265732001513,584.4265732001513,584.4265732001513,584.4265732001513,584.4265732001513,584.4265732001513,584.4265732001513,584.4265732001513,584.4265732001513,586.9362570000812,586.9362570000812,586.9362570000812,586.9362570000812,586.9362570000812,58,45,60,70,60,28,7.0,0.7804648000746965,587.7337929997593,589.2469679000787,,,,,,,,,133,f,1,2022-12-12_16h41.00.420,RL,2022.2.4,60.12845843676791,
1,73,0,73,0,,,,,,,,,,None,589.2469679000787,589.2469679000787,589.2469679000787,589.2469679000787,589.2469679000787,589.2469679000787,j,0.6825251001864672,589.9622638998553,589.9622638998553,589.9622638998553,589.9622638998553,589.9622638998553,589.9622638998553,590.2607921999879,590.2607921999879,591.3411093000323,591.3411093000323,591.3411093000323,591.3411093000323,591.3411093000323,591.3411093000323,591.3411093000323,591.3411093000323,591.3411093000323,591.3411093000323,591.3411093000323,591.3411093000323,591.3411093000323,591.3411093000323,591.3411093000323,591.3411093000323,591.3411093000323,593.8503291998059,593.8503291998059,593.8503291998059,593.8503291998059,593.8503291998059,64,48,54,70,70,31,7.0,0.9132910999469459,594.781154199969,596.5603897999972,,,,,,,,,133,f,1,2022-12-12_16h41.00.420,RL,2022.2.4,60.12845843676791,
1,74,0,74,0,,,,,,,,,,None,596.5603897999972,596.5603897999972,596.5603897999972,596.5603897999972,596.5603897999972,596.5603897999972,f,0.5197177999652922,597.1097257998772,597.1097257998772,597.1097257998772,597.1097257998772,597.1097257998772,597.1097257998772,597.4081834000535,597.4081834000535,599.3531096000224,599.3531096000224,599.3531096000224,599.3531096000224,599.3531096000224,599.3531096000224,599.3531096000224,599.3531096000224,599.3531096000224,599.3531096000224,599.3531096000224,599.3531096000224,599.3531096000224,599.3531096000224,599.3531096000224,599.3531096000224,599.3531096000224,601.862083800137,601.862083800137,601.862083800137,601.862083800137,601.862083800137,66,41,59,57,41,37,4.0,0.8969688001088798,602.7760116001591,604.6547562000342,,,,,,,,,133,f,1,2022-12-12_16h41.00.420,RL,2022.2.4,60.12845843676791,
1,75,0,75,0,,,,,,,,,,q,715.2528650998138,715.2528650998138,715.2528650998138,715.2528650998138,715.2528650998138,715.2528650998138,r,0.7534436001442373,716.0376724000089,716.0376724000089,716.0376724000089,716.0376724000089,716.0376724000089,716.0376724000089,716.3337869998068,716.3337869998068,717.4309017998166,717.4309017998166,717.4309017998166,717.4309017998166,717.4309017998166,717.4309017998166,717.4309017998166,717.4309017998166,717.4309017998166,717.4309017998166,717.4309017998166,717.4309017998166,717.4309017998166,717.4309017998166,717.4309017998166,717.4309017998166,717.4309017998166,719.9399374998175,719.9399374998175,719.9399374998175,719.9399374998175,719.9399374998175,63,48,54,63,63,15,7.0,0.7135800998657942,720.6707870997488,722.6664686999284,604.6547562000342,604.6547562000342,110.57245139963925,,,,,,133,f,1,2022-12-12_16h41.00.420,RL,2022.2.4,60.12845843676791,
1,76,0,76,0,,,,,,,,,,None,722.6664686999284,722.6664686999284,722.6664686999284,722.6664686999284,722.6664686999284,722.6664686999284,i,0.44991530012339354,723.1505883000791,723.1505883000791,723.1505883000791,723.1505883000791,723.1505883000791,723.1505883000791,723.4474229998887,723.4474229998887,724.5113437999971,724.5113437999971,724.5113437999971,724.5113437999971,724.5113437999971,724.5113437999971,724.5113437999971,724.5113437999971,724.5113437999971,724.5113437999971,724.5113437999971,724.5113437999971,724.5113437999971,724.5113437999971,724.5113437999971,724.5113437999971,724.5113437999971,727.0201710998081,727.0201710998081,727.0201710998081,727.0201710998081,727.0201710998081,56,48,48,67,48,30,5.0,1.0799545999616385,728.1171430000104,729.8632645001635,,,,,,,,,133,f,1,2022-12-12_16h41.00.420,RL,2022.2.4,60.12845843676791,
1,77,0,77,0,,,,,,,,,,None,729.8632645001635,729.8632645001635,729.8632645001635,729.8632645001635,729.8632645001635,729.8632645001635,j,0.31376409996300936,730.198006699793,730.198006699793,730.198006699793,730.198006699793,730.198006699793,730.198006699793,730.4950737999752,730.4950737999752,731.8912299000658,731.8912299000658,731.8912299000658,731.8912299000658,731.8912299000658,731.8912299000658,731.8912299000658,731.8912299000658,731.8912299000658,731.8912299000658,731.8912299000658,731.8912299000658,731.8912299000658,731.8912299000658,731.8912299000658,731.8912299000658,731.8912299000658,734.4001628998667,734.4001628998667,734.4001628998667,734.4001628998667,734.4001628998667,59,46,47,64,64,49,7.0,0.5968728000298142,735.0150160999037,736.5948446001858,,,,,,,,,133,f,1,2022-12-12_16h41.00.420,RL,2022.2.4,60.12845843676791,
1,78,0,78,0,,,,,,,,,,None,736.5948446001858,736.5948446001858,736.5948446001858,736.5948446001858,736.5948446001858,736.5948446001858,r,0.4879533997736871,737.1103779999539,737.1103779999539,737.1103779999539,737.1103779999539,737.1103779999539,737.1103779999539,737.4096786999144,737.4096786999144,738.5064344001003,738.5064344001003,738.5064344001003,738.5064344001003,738.5064344001003,738.5064344001003,738.5064344001003,738.5064344001003,738.5064344001003,738.5064344001003,738.5064344001003,738.5064344001003,738.5064344001003,738.5064344001003,738.5064344001003,738.5064344001003,738.5064344001003,741.01535290014,741.01535290014,741.01535290014,741.01535290014,741.01535290014,60,41,56,53,60,36,5.0,1.062955199740827,742.0961405001581,743.625760700088,,,,,,,,,133,f,1,2022-12-12_16h41.00.420,RL,2022.2.4,60.12845843676791,
1,79,0,79,0,,,,,,,,,,None,743.625760700088,743.625760700088,743.625760700088,743.625760700088,743.625760700088,743.625760700088,f,0.30711619975045323,743.9588004997931,743.9588004997931,743.9588004997931,743.9588004997931,743.9588004997931,743.9588004997931,744.2573460000567,744.2573460000567,745.2047839998268,745.2047839998268,745.2214088998735,745.2214088998735,745.2214088998735,745.2214088998735,745.2214088998735,745.2214088998735,745.2214088998735,745.2214088998735,745.2214088998735,745.2214088998735,745.2214088998735,745.2214088998735,745.2214088998735,745.2214088998735,745.2214088998735,747.730543800164,747.730543800164,747.730543800164,747.730543800164,747.730543800164,65,39,49,65,39,17,6.0,0.6643114001490176,748.4122550999746,750.0746589000337,,,,,,,,,133,f,1,2022-12-12_16h41.00.420,RL,2022.2.4,60.12845843676791,
1,80,0,80,0,,,,,,,,,,None,750.0746589000337,750.0746589000337,750.0746589000337,750.0746589000337,750.0746589000337,750.0746589000337,j,0.289253200404346,750.3908826000988,750.3908826000988,750.3908826000988,750.3908826000988,750.3908826000988,750.3908826000988,750.6900396998972,750.6900396998972,751.6206747000106,751.6206747000106,751.6206747000106,751.6206747000106,751.6206747000106,751.6206747000106,751.6206747000106,751.6206747000106,751.6206747000106,751.6206747000106,751.6206747000106,751.6206747000106,751.6206747000106,751.6206747000106,751.6206747000106,751.6206747000106,751.6206747000106,754.1300973999314,754.1300973999314,754.1300973999314,754.1300973999314,754.1300973999314,54,41,58,71,71,38,7.0,0.497764699626714,754.6450232998468,756.4404004998505,,,,,,,,,133,f,1,2022-12-12_16h41.00.420,RL,2022.2.4,60.12845843676791,
1,81,0,81,0,,,,,,,,,,None,756.4404004998505,756.4404004998505,756.4404004998505,756.4404004998505,756.4404004998505,756.4404004998505,i,0.3345208000391722,756.8071330999956,756.8071330999956,756.8071330999956,756.8071330999956,756.8071330999956,756.8071330999956,757.1058688000776,757.1058688000776,758.9839802999049,758.9839802999049,758.9839802999049,758.9839802999049,758.9839802999049,758.9839802999049,758.9839802999049,758.9839802999049,758.9839802999049,758.9839802999049,758.9839802999049,758.9839802999049,758.9839802999049,758.9839802999049,758.9839802999049,758.9839802999049,758.9839802999049,761.4929128000513,761.4929128000513,761.4929128000513,761.4929128000513,761.4929128000513,62,34,54,74,54,27,5.0,1.0289890002459288,762.5402350998484,764.2365091000684,,,,,,,,,133,f,1,2022-12-12_16h41.00.420,RL,2022.2.4,60.12845843676791,
1,82,0,82,0,,,,,,,,,,None,764.2365091000684,764.2365091000684,764.2365091000684,764.2365091000684,764.2365091000684,764.2365091000684,r,0.32306240033358335,764.5857461998239,764.5857461998239,764.5857461998239,764.5857461998239,764.5857461998239,764.5857461998239,764.8848139001057,764.8848139001057,766.3139236001298,766.3139236001298,766.3139236001298,766.3139236001298,766.3139236001298,766.3139236001298,766.3139236001298,766.3139236001298,766.3139236001298,766.3139236001298,766.3139236001298,766.3139236001298,766.3139236001298,766.3139236001298,766.3139236001298,766.3139236001298,766.3139236001298,768.8231603000313,768.8231603000313,768.8231603000313,768.8231603000313,768.8231603000313,60,29,55,79,60,70,3.0,1.1961020999588072,770.0363857997581,771.9150139000267,,,,,,,,,133,f,1,2022-12-12_16h41.00.420,RL,2022.2.4,60.12845843676791,
1,83,0,83,0,,,,,,,,,,None,771.9150139000267,771.9150139000267,771.9150139000267,771.9150139000267,771.9150139000267,771.9150139000267,f,0.4142761998809874,772.3497725999914,772.3497725999914,772.3497725999914,772.3497725999914,772.3497725999914,772.3497725999914,772.6468696999364,772.6468696999364,774.0428043999709,774.0428043999709,774.0428043999709,774.0428043999709,774.0428043999709,774.0428043999709,774.0428043999709,774.0428043999709,774.0428043999709,774.0428043999709,774.0428043999709,774.0428043999709,774.0428043999709,774.0428043999709,774.0428043999709,774.0428043999709,774.0428043999709,776.5517310001887,776.5517310001887,776.5517310001887,776.5517310001887,776.5517310001887,55,35,60,75,35,58,2.0,0.9469742001965642,777.516427999828,779.2284225998446,,,,,,,,,133,f,1,2022-12-12_16h41.00.420,RL,2022.2.4,60.12845843676791,
1,84,0,84,0,,,,,,,,,,None,779.2284225998446,779.2284225998446,779.2284225998446,779.2284225998446,779.2284225998446,779.2284225998446,j,0.3506168001331389,779.6118625998497,779.6118625998497,779.6118625998497,779.6118625998497,779.6118625998497,779.6118625998497,779.9100542999804,779.9100542999804,781.2567789000459,781.2567789000459,781.2567789000459,781.2567789000459,781.2567789000459,781.2567789000459,781.2567789000459,781.2567789000459,781.2567789000459,781.2567789000459,781.2567789000459,781.2567789000459,781.2567789000459,781.2567789000459,781.2567789000459,781.2567789000459,781.2567789000459,783.7659986000508,783.7659986000508,783.7659986000508,783.7659986000508,783.7659986000508,56,40,56,77,77,56,6.0,0.6975301997736096,784.4802510999143,786.2093092999421,,,,,,,,,133,f,1,2022-12-12_16h41.00.420,RL,2022.2.4,60.12845843676791,
1,85,0,85,0,,,,,,,,,,None,786.2093092999421,786.2093092999421,786.2093092999421,786.2093092999421,786.2093092999421,786.2093092999421,i,0.4401479000225663,786.676719199866,786.676719199866,786.676719199866,786.676719199866,786.676719199866,786.676719199866,786.9741294998676,786.9741294998676,788.8857295000926,788.8857295000926,788.8857295000926,788.8857295000926,788.8857295000926,788.8857295000926,788.8857295000926,788.8857295000926,788.8857295000926,788.8857295000926,788.8857295000926,788.8857295000926,788.8857295000926,788.8857295000926,788.8857295000926,788.8857295000926,788.8857295000926,791.3949508997612,791.3949508997612,791.3949508997612,791.3949508997612,791.3949508997612,50,42,63,75,63,32,5.0,1.411819700151682,792.8240025001578,794.4865696001798,,,,,,,,,133,f,1,2022-12-12_16h41.00.420,RL,2022.2.4,60.12845843676791,
1,86,0,86,0,,,,,,,,,,None,794.4865696001798,794.4865696001798,794.4865696001798,794.4865696001798,794.4865696001798,794.4865696001798,f,0.4770881999284029,794.9860097998753,794.9860097998753,794.9860097998753,794.9860097998753,794.9860097998753,794.9860097998753,795.2848294000141,795.2848294000141,796.8971526999958,796.8971526999958,796.8971526999958,796.8971526999958,796.8971526999958,796.8971526999958,796.8971526999958,796.8971526999958,796.8971526999958,796.8971526999958,796.8971526999958,796.8971526999958,796.8971526999958,796.8971526999958,796.8971526999958,796.8971526999958,796.8971526999958,799.406065300107,799.406065300107,799.406065300107,799.406065300107,799.406065300107,51,38,59,80,38,22,5.0,0.863136800006032,800.2872759997845,802.0993575998582,,,,,,,,,133,f,1,2022-12-12_16h41.00.420,RL,2022.2.4,60.12845843676791,
1,87,0,87,0,,,,,,,,,,None,802.0993575998582,802.0993575998582,802.0993575998582,802.0993575998582,802.0993575998582,802.0993575998582,i,0.49361849995329976,802.617682099808,802.617682099808,802.617682099808,802.617682099808,802.617682099808,802.617682099808,802.914403299801,802.914403299801,804.7920277998783,804.7920277998783,804.7920277998783,804.7920277998783,804.7920277998783,804.7920277998783,804.7920277998783,804.7920277998783,804.7920277998783,804.7920277998783,804.7920277998783,804.7920277998783,804.7920277998783,804.7920277998783,804.7920277998783,804.7920277998783,804.7920277998783,807.3013654001988,807.3013654001988,807.3013654001988,807.3013654001988,807.3013654001988,40,40,53,68,53,63,5.0,1.5615741000510752,808.8801045999862,810.5927635999396,,,,,,,,,133,f,1,2022-12-12_16h41.00.420,RL,2022.2.4,60.12845843676791,
1,88,0,88,0,,,,,,,,,,None,810.5927635999396,810.5927635999396,810.5927635999396,810.5927635999396,810.5927635999396,810.5927635999396,j,0.31500109983608127,810.9275083001703,810.9275083001703,810.9275083001703,810.9275083001703,810.9275083001703,810.9275083001703,811.2251252997667,811.2251252997667,812.2053597001359,812.2053597001359,812.2220364999957,812.2220364999957,812.2220364999957,812.2220364999957,812.2220364999957,812.2220364999957,812.2220364999957,812.2220364999957,812.2220364999957,812.2220364999957,812.2220364999957,812.2220364999957,812.2220364999957,812.2220364999957,812.2220364999957,814.7311887000687,814.7311887000687,814.7311887000687,814.7311887000687,814.7311887000687,38,41,62,72,72,54,7.0,0.796545600052923,815.5459809000604,817.0917870998383,,,,,,,,,133,f,1,2022-12-12_16h41.00.420,RL,2022.2.4,60.12845843676791,
1,89,0,89,0,,,,,,,,,,None,817.0917870998383,817.0917870998383,817.0917870998383,817.0917870998383,817.0917870998383,817.0917870998383,f,0.40009350003674626,817.5252037998289,817.5252037998289,817.5252037998289,817.5252037998289,817.5252037998289,817.5252037998289,817.823409399949,817.823409399949,819.5688228998333,819.5688228998333,819.5688228998333,819.5688228998333,819.5688228998333,819.5688228998333,819.5688228998333,819.5688228998333,819.5688228998333,819.5688228998333,819.5688228998333,819.5688228998333,819.5688228998333,819.5688228998333,819.5688228998333,819.5688228998333,819.5688228998333,822.0778366001323,822.0778366001323,822.0778366001323,822.0778366001323,822.0778366001323,43,41,54,76,41,65,4.0,1.228416099678725,823.3243610998616,824.970277399756,,,,,,,,,133,f,1,2022-12-12_16h41.00.420,RL,2022.2.4,60.12845843676791,
1,90,0,90,0,,,,,,,,,,None,824.970277399756,824.970277399756,824.970277399756,824.970277399756,824.970277399756,824.970277399756,i,0.47554210014641285,825.4711783998646,825.4711783998646,825.4711783998646,825.4711783998646,825.4711783998646,825.4711783998646,825.768501999788,825.768501999788,827.4636364998296,827.4636364998296,827.4636364998296,827.4636364998296,827.4636364998296,827.4636364998296,827.4636364998296,827.4636364998296,827.4636364998296,827.4636364998296,827.4636364998296,827.4636364998296,827.4636364998296,827.4636364998296,827.4636364998296,827.4636364998296,827.4636364998296,829.9729228001088,829.9729228001088,829.9729228001088,829.9729228001088,829.9729228001088,47,33,61,62,61,60,5.0,1.7107037999667227,831.7016849000938,833.6633612001315,,,,,,,,,133,f,1,2022-12-12_16h41.00.420,RL,2022.2.4,60.12845843676791,
1,91,0,91,0,,,,,,,,,,None,833.6633612001315,833.6633612001315,833.6633612001315,833.6633612001315,833.6633612001315,833.6633612001315,r,0.4958641999401152,834.17899509985,834.17899509985,834.17899509985,834.17899509985,834.17899509985,834.17899509985,834.4780955999158,834.4780955999158,836.0903909001499,836.0903909001499,836.0903909001499,836.0903909001499,836.0903909001499,836.0903909001499,836.0903909001499,836.0903909001499,836.0903909001499,836.0903909001499,836.0903909001499,836.0903909001499,836.0903909001499,836.0903909001499,836.0903909001499,836.0903909001499,836.0903909001499,838.5992133999243,838.5992133999243,838.5992133999243,838.5992133999243,838.5992133999243,39,45,63,63,39,62,2.0,0.7975763999857008,839.4135397998616,840.9270049999468,,,,,,,,,133,f,1,2022-12-12_16h41.00.420,RL,2022.2.4,60.12845843676791,
1,92,0,92,0,,,,,,,,,,None,840.9270049999468,840.9270049999468,840.9270049999468,840.9270049999468,840.9270049999468,840.9270049999468,i,0.36678680032491684,841.3281636000611,841.3281636000611,841.3281636000611,841.3281636000611,841.3281636000611,841.3281636000611,841.6251742998138,841.6251742998138,843.5369083997793,843.5369083997793,843.5369083997793,843.5369083997793,843.5369083997793,843.5369083997793,843.5369083997793,843.5369083997793,843.5369083997793,843.5369083997793,843.5369083997793,843.5369083997793,843.5369083997793,843.5369083997793,843.5369083997793,843.5369083997793,843.5369083997793,846.0460143000819,846.0460143000819,846.0460143000819,846.0460143000819,846.0460143000819,31,42,47,61,47,75,1.0,2.044062300119549,848.1064953999594,849.8028823998757,,,,,,,,,133,f,1,2022-12-12_16h41.00.420,RL,2022.2.4,60.12845843676791,
1,93,0,93,0,,,,,,,,,,None,849.8028823998757,849.8028823998757,849.8028823998757,849.8028823998757,849.8028823998757,849.8028823998757,r,1.0032691997475922,850.8350900998339,850.8350900998339,850.8350900998339,850.8350900998339,850.8350900998339,850.8350900998339,851.1325789997354,851.1325789997354,852.1464670998976,852.1464670998976,852.1464670998976,852.1464670998976,852.1464670998976,852.1464670998976,852.1464670998976,852.1464670998976,852.1464670998976,852.1464670998976,852.1464670998976,852.1464670998976,852.1464670998976,852.1464670998976,852.1464670998976,852.1464670998976,852.1464670998976,854.6558012999594,854.6558012999594,854.6558012999594,854.6558012999594,854.6558012999594,47,40,59,55,47,68,1.0,0.996989700011909,855.6695405999199,857.4985181000084,,,,,,,,,133,f,1,2022-12-12_16h41.00.420,RL,2022.2.4,60.12845843676791,
1,94,0,94,0,,,,,,,,,,None,857.4985181000084,857.4985181000084,857.4985181000084,857.4985181000084,857.4985181000084,857.4985181000084,j,0.5233281999826431,858.0489320000634,858.0489320000634,858.0489320000634,858.0489320000634,858.0489320000634,858.0489320000634,858.3460021000355,858.3460021000355,859.3105418998748,859.3105418998748,859.3105418998748,859.3105418998748,859.3105418998748,859.3105418998748,859.3105418998748,859.3105418998748,859.3105418998748,859.3105418998748,859.3105418998748,859.3105418998748,859.3105418998748,859.3105418998748,859.3105418998748,859.3105418998748,859.3105418998748,861.8190851002,861.8190851002,861.8190851002,861.8190851002,861.8190851002,42,38,55,56,56,39,5.0,0.6970941997133195,862.5341277997941,864.5289734997787,,,,,,,,,133,f,1,2022-12-12_16h41.00.420,RL,2022.2.4,60.12845843676791,
1,95,0,95,0,,,,,,,,,,None,864.5289734997787,864.5289734997787,864.5289734997787,864.5289734997787,864.5289734997787,864.5289734997787,f,0.3448446001857519,864.8953987997957,864.8953987997957,864.8953987997957,864.8953987997957,864.8953987997957,864.8953987997957,865.1946314000525,865.1946314000525,866.5736076999456,866.5736076999456,866.5736076999456,866.5736076999456,866.5736076999456,866.5736076999456,866.5736076999456,866.5736076999456,866.5736076999456,866.5736076999456,866.5736076999456,866.5736076999456,866.5736076999456,866.5736076999456,866.5736076999456,866.5736076999456,866.5736076999456,869.0826699999161,869.0826699999161,869.0826699999161,869.0826699999161,869.0826699999161,41,36,57,63,36,39,3.0,0.5975705999881029,869.6978911999613,871.3939033001661,,,,,,,,,133,f,1,2022-12-12_16h41.00.420,RL,2022.2.4,60.12845843676791,
1,96,0,96,0,,,,,,,,,,None,871.3939033001661,871.3939033001661,871.3939033001661,871.3939033001661,871.3939033001661,871.3939033001661,i,0.33363559981808066,871.7599981999956,871.7599981999956,871.7599981999956,871.7599981999956,871.7599981999956,871.7599981999956,872.0588003997691,872.0588003997691,873.3553531998768,873.3553531998768,873.3553531998768,873.3553531998768,873.3553531998768,873.3553531998768,873.3553531998768,873.3553531998768,873.3553531998768,873.3553531998768,873.3553531998768,873.3553531998768,873.3553531998768,873.3553531998768,873.3553531998768,873.3553531998768,873.3553531998768,875.8641123999842,875.8641123999842,875.8641123999842,875.8641123999842,875.8641123999842,34,45,57,64,57,77,2.0,0.713660900015384,876.5956362998113,878.1255016997457,,,,,,,,,133,f,1,2022-12-12_16h41.00.420,RL,2022.2.4,60.12845843676791,
1,97,0,97,0,,,,,,,,,,None,878.1255016997457,878.1255016997457,878.1255016997457,878.1255016997457,878.1255016997457,878.1255016997457,r,0.4081846000626683,878.5595231000334,878.5595231000334,878.5595231000334,878.5595231000334,878.5595231000334,878.5595231000334,878.8567602001131,878.8567602001131,880.2368266000412,880.2368266000412,880.2368266000412,880.2368266000412,880.2368266000412,880.2368266000412,880.2368266000412,880.2368266000412,880.2368266000412,880.2368266000412,880.2368266000412,880.2368266000412,880.2368266000412,880.2368266000412,880.2368266000412,880.2368266000412,880.2368266000412,882.7458425997756,882.7458425997756,882.7458425997756,882.7458425997756,882.7458425997756,40,42,52,59,40,70,2.0,0.7969587999396026,883.5600181999616,885.1562056997791,,,,,,,,,133,f,1,2022-12-12_16h41.00.420,RL,2022.2.4,60.12845843676791,
1,98,0,98,0,,,,,,,,,,None,885.1562056997791,885.1562056997791,885.1562056997791,885.1562056997791,885.1562056997791,885.1562056997791,j,0.33760609989985824,885.524366799742,885.524366799742,885.524366799742,885.524366799742,885.524366799742,885.524366799742,885.8212904999964,885.8212904999964,887.5495767001994,887.5495767001994,887.5495767001994,887.5495767001994,887.5495767001994,887.5495767001994,887.5495767001994,887.5495767001994,887.5495767001994,887.5495767001994,887.5495767001994,887.5495767001994,887.5495767001994,887.5495767001994,887.5495767001994,887.5495767001994,887.5495767001994,890.0587446000427,890.0587446000427,890.0587446000427,890.0587446000427,890.0587446000427,42,45,56,54,54,64,3.0,0.6968400003388524,890.7733670999296,892.7523861001246,,,,,,,,,133,f,1,2022-12-12_16h41.00.420,RL,2022.2.4,60.12845843676791,
1,99,0,99,0,,,,,,,,,,None,892.7523861001246,892.7523861001246,892.7523861001246,892.7523861001246,892.7523861001246,892.7523861001246,f,0.3753849002532661,893.1530971000902,893.1530971000902,893.1530971000902,893.1530971000902,893.1530971000902,893.1530971000902,893.4505099998787,893.4505099998787,894.696692599915,894.696692599915,894.696692599915,894.696692599915,894.696692599915,894.696692599915,894.696692599915,894.696692599915,894.696692599915,894.696692599915,894.696692599915,894.696692599915,894.696692599915,894.696692599915,894.696692599915,894.696692599915,894.696692599915,897.2058239001781,897.2058239001781,897.2058239001781,897.2058239001781,897.2058239001781,41,37,45,61,37,75,7.0,0.7132867998443544,897.9372792001814,899.5665955999866,,,,,,,,,133,f,1,2022-12-12_16h41.00.420,RL,2022.2.4,60.12845843676791,
1,100,0,100,0,,,,,,,,,,None,899.5665955999866,899.5665955999866,899.5665955999866,899.5665955999866,899.5665955999866,899.5665955999866,j,0.3319288999773562,899.9195302999578,899.9195302999578,899.9195302999578,899.9195302999578,899.9195302999578,899.9195302999578,900.2155492999591,900.2155492999591,902.1930399001576,902.1930399001576,902.1930399001576,902.1930399001576,902.1930399001576,902.1930399001576,902.1930399001576,902.1930399001576,902.1930399001576,902.1930399001576,902.1930399001576,902.1930399001576,902.1930399001576,902.1930399001576,902.1930399001576,902.1930399001576,902.1930399001576,904.7020346000791,904.7020346000791,904.7020346000791,904.7020346000791,904.7020346000791,42,37,51,65,65,72,5.0,0.9125793999992311,905.6329958997667,907.2625523000024,,,,,,,,,133,f,1,2022-12-12_16h41.00.420,RL,2022.2.4,60.12845843676791,
1,101,0,101,0,,,,,,,,,,None,907.2625523000024,907.2625523000024,907.2625523000024,907.2625523000024,907.2625523000024,907.2625523000024,r,0.36562000028789043,907.6636950997636,907.6636950997636,907.6636950997636,907.6636950997636,907.6636950997636,907.6636950997636,907.9611995001324,907.9611995001324,908.8415807997808,908.8415807997808,908.8586817001924,908.8586817001924,908.8586817001924,908.8586817001924,908.8586817001924,908.8586817001924,908.8586817001924,908.8586817001924,908.8586817001924,908.8586817001924,908.8586817001924,908.8586817001924,908.8586817001924,908.8586817001924,908.8586817001924,911.367457000073,911.367457000073,911.367457000073,911.367457000073,911.367457000073,39,42,51,61,39,66,6.0,1.1627825000323355,912.5475341998972,914.3765361001715,,,,,,,,,133,f,1,2022-12-12_16h41.00.420,RL,2022.2.4,60.12845843676791,
1,102,0,102,0,,,,,,,,,,None,914.3765361001715,914.3765361001715,914.3765361001715,914.3765361001715,914.3765361001715,914.3765361001715,f,0.34176449989899993,914.7454535001889,914.7454535001889,914.7454535001889,914.7454535001889,914.7454535001889,914.7454535001889,915.0414025997743,915.0414025997743,916.02204670012,916.02204670012,916.02204670012,916.02204670012,916.02204670012,916.02204670012,916.02204670012,916.02204670012,916.02204670012,916.02204670012,916.02204670012,916.02204670012,916.02204670012,916.02204670012,916.02204670012,916.02204670012,916.02204670012,918.5312385000288,918.5312385000288,918.5312385000288,918.5312385000288,918.5312385000288,49,45,54,67,45,74,1.0,1.3446324998512864,919.8940169000998,921.6569921998307,,,,,,,,,133,f,1,2022-12-12_16h41.00.420,RL,2022.2.4,60.12845843676791,
1,103,0,103,0,,,,,,,,,,None,921.6569921998307,921.6569921998307,921.6569921998307,921.6569921998307,921.6569921998307,921.6569921998307,i,0.33122090017423034,922.0250023999251,922.0250023999251,922.0250023999251,922.0250023999251,922.0250023999251,922.0250023999251,922.3215808998793,922.3215808998793,923.3520245999098,923.3520245999098,923.3520245999098,923.3520245999098,923.3520245999098,923.3520245999098,923.3520245999098,923.3520245999098,923.3520245999098,923.3520245999098,923.3520245999098,923.3520245999098,923.3520245999098,923.3520245999098,923.3520245999098,923.3520245999098,923.3520245999098,925.8611073000357,925.8611073000357,925.8611073000357,925.8611073000357,925.8611073000357,55,44,48,69,48,77,2.0,0.5140097998082638,926.3933307998814,928.0059746997431,,,,,,,,,133,f,1,2022-12-12_16h41.00.420,RL,2022.2.4,60.12845843676791,
1,104,0,104,0,,,,,,,,,,None,928.0059746997431,928.0059746997431,928.0059746997431,928.0059746997431,928.0059746997431,928.0059746997431,j,0.46802600007504225,928.5065453001298,928.5065453001298,928.5065453001298,928.5065453001298,928.5065453001298,928.5065453001298,928.8039082000032,928.8039082000032,929.768000499811,929.768000499811,929.768000499811,929.768000499811,929.768000499811,929.768000499811,929.768000499811,929.768000499811,929.768000499811,929.768000499811,929.768000499811,929.768000499811,929.768000499811,929.768000499811,929.768000499811,929.768000499811,929.768000499811,932.2771597998217,932.2771597998217,932.2771597998217,932.2771597998217,932.2771597998217,50,49,43,69,69,30,7.0,0.812792900018394,933.1079568001442,934.8371163997799,,,,,,,,,133,f,1,2022-12-12_16h41.00.420,RL,2022.2.4,60.12845843676791,
1,105,0,105,0,,,,,,,,,,None,934.8371163997799,934.8371163997799,934.8371163997799,934.8371163997799,934.8371163997799,934.8371163997799,r,0.7264000000432134,935.5867702998221,935.5867702998221,935.5867702998221,935.5867702998221,935.5867702998221,935.5867702998221,935.8850153000094,935.8850153000094,937.3474694998004,937.3474694998004,937.3474694998004,937.3474694998004,937.3474694998004,937.3474694998004,937.3474694998004,937.3474694998004,937.3474694998004,937.3474694998004,937.3474694998004,937.3474694998004,937.3474694998004,937.3474694998004,937.3474694998004,937.3474694998004,937.3474694998004,939.8564404998906,939.8564404998906,939.8564404998906,939.8564404998906,939.8564404998906,52,44,53,63,52,21,7.0,0.5308070997707546,940.4050623998046,942.3833286999725,,,,,,,,,133,f,1,2022-12-12_16h41.00.420,RL,2022.2.4,60.12845843676791,
1,106,0,106,0,,,,,,,,,,None,942.3833286999725,942.3833286999725,942.3833286999725,942.3833286999725,942.3833286999725,942.3833286999725,f,0.28966399980708957,942.7000242997892,942.7000242997892,942.7000242997892,942.7000242997892,942.7000242997892,942.7000242997892,942.9989383001812,942.9989383001812,944.0621341001242,944.0621341001242,944.0621341001242,944.0621341001242,944.0621341001242,944.0621341001242,944.0621341001242,944.0621341001242,944.0621341001242,944.0621341001242,944.0621341001242,944.0621341001242,944.0621341001242,944.0621341001242,944.0621341001242,944.0621341001242,944.0621341001242,946.5714282998815,946.5714282998815,946.5714282998815,946.5714282998815,946.5714282998815,44,55,52,63,55,63,5.0,0.9957771003246307,947.5851850998588,949.1815010998398,,,,,,,,,133,f,1,2022-12-12_16h41.00.420,RL,2022.2.4,60.12845843676791,
1,107,0,107,0,,,,,,,,,,None,949.1815010998398,949.1815010998398,949.1815010998398,949.1815010998398,949.1815010998398,949.1815010998398,None,,,,,,,,,,,,,,,,,,,,,,,,,,,,,,,,45,52,52,57,0,**,None,None,955.2142567997798,956.7938896999694,,,,950.7006518999115,955.2142567997798,,,,133,f,1,2022-12-12_16h41.00.420,RL,2022.2.4,60.12845843676791,
1,108,0,108,0,,,,,,,,,,None,956.7938896999694,956.7938896999694,956.7938896999694,956.7938896999694,956.7938896999694,956.7938896999694,i,0.5384005000814795,957.3626119000837,957.3626119000837,957.3626119000837,957.3626119000837,957.3626119000837,957.3626119000837,957.6584101999179,957.6584101999179,959.2873784000985,959.2873784000985,959.2873784000985,959.2873784000985,959.2873784000985,959.2873784000985,959.2873784000985,959.2873784000985,959.2873784000985,959.2873784000985,959.2873784000985,959.2873784000985,959.2873784000985,959.2873784000985,959.2873784000985,959.2873784000985,959.2873784000985,961.7963360999711,961.7963360999711,961.7963360999711,961.7963360999711,961.7963360999711,53,56,45,57,45,65,2.0,0.7801334001123905,962.594106500037,964.2069091000594,,,,,,,,,133,f,1,2022-12-12_16h41.00.420,RL,2022.2.4,60.12845843676791,
1,109,0,109,0,,,,,,,,,,None,964.2069091000594,964.2069091000594,964.2069091000594,964.2069091000594,964.2069091000594,964.2069091000594,r,0.39052810007706285,964.6261927997693,964.6261927997693,964.6261927997693,964.6261927997693,964.6261927997693,964.6261927997693,964.9223245000467,964.9223245000467,965.7368342000991,965.7368342000991,965.7368342000991,965.7368342000991,965.7368342000991,965.7368342000991,965.7368342000991,965.7368342000991,965.7368342000991,965.7368342000991,965.7368342000991,965.7368342000991,965.7368342000991,965.7368342000991,965.7368342000991,965.7368342000991,965.7368342000991,968.2459780997597,968.2459780997597,968.2459780997597,968.2459780997597,968.2459780997597,49,57,45,58,49,27,6.0,1.1627375003881752,969.4258286999539,971.0220975000411,,,,,,,,,133,f,1,2022-12-12_16h41.00.420,RL,2022.2.4,60.12845843676791,
1,110,0,110,0,,,,,,,,,,None,971.0220975000411,971.0220975000411,971.0220975000411,971.0220975000411,971.0220975000411,971.0220975000411,j,0.37126219971105456,971.423584499862,971.423584499862,971.423584499862,971.423584499862,971.423584499862,971.423584499862,971.720450299792,971.720450299792,973.4990532998927,973.4990532998927,973.4990532998927,973.4990532998927,973.4990532998927,973.4990532998927,973.4990532998927,973.4990532998927,973.4990532998927,973.4990532998927,973.4990532998927,973.4990532998927,973.4990532998927,973.4990532998927,973.4990532998927,973.4990532998927,973.4990532998927,976.0078889001161,976.0078889001161,976.0078889001161,976.0078889001161,976.0078889001161,46,48,48,48,48,58,3.0,0.7470677997916937,976.7724723997526,978.4848079998046,,,,,,,,,133,f,1,2022-12-12_16h41.00.420,RL,2022.2.4,60.12845843676791,
1,111,0,111,0,,,,,,,,,,None,978.4848079998046,978.4848079998046,978.4848079998046,978.4848079998046,978.4848079998046,978.4848079998046,i,0.3980339001864195,978.9014921998605,978.9014921998605,978.9014921998605,978.9014921998605,978.9014921998605,978.9014921998605,979.1998219001107,979.1998219001107,980.7454117001034,980.7454117001034,980.7454117001034,980.7454117001034,980.7454117001034,980.7454117001034,980.7454117001034,980.7454117001034,980.7454117001034,980.7454117001034,980.7454117001034,980.7454117001034,980.7454117001034,980.7454117001034,980.7454117001034,980.7454117001034,980.7454117001034,983.2549181999639,983.2549181999639,983.2549181999639,983.2549181999639,983.2549181999639,49,47,47,58,47,58,2.0,0.8630526000633836,984.1360627999529,985.7319591999985,,,,,,,,,133,f,1,2022-12-12_16h41.00.420,RL,2022.2.4,60.12845843676791,
1,112,0,112,0,,,,,,,,,,None,985.7319591999985,985.7319591999985,985.7319591999985,985.7319591999985,985.7319591999985,985.7319591999985,f,0.38598210038617253,986.1492571001872,986.1492571001872,986.1492571001872,986.1492571001872,986.1492571001872,986.1492571001872,986.4472024999559,986.4472024999559,988.2586878999136,988.2586878999136,988.2586878999136,988.2586878999136,988.2586878999136,988.2586878999136,988.2586878999136,988.2586878999136,988.2586878999136,988.2586878999136,988.2586878999136,988.2586878999136,988.2586878999136,988.2586878999136,988.2586878999136,988.2586878999136,988.2586878999136,990.7679110998288,990.7679110998288,990.7679110998288,990.7679110998288,990.7679110998288,37,44,49,55,44,56,2.0,1.095671800430864,991.8809822001494,993.8432204998098,,,,,,,,,133,f,1,2022-12-12_16h41.00.420,RL,2022.2.4,60.12845843676791,
1,113,0,113,0,,,,,,,,,,None,993.8432204998098,993.8432204998098,993.8432204998098,993.8432204998098,993.8432204998098,993.8432204998098,j,0.543573800008744,994.4096833001822,994.4096833001822,994.4096833001822,994.4096833001822,994.4096833001822,994.4096833001822,994.7074210997671,994.7074210997671,995.9372628000565,995.9372628000565,995.9372628000565,995.9372628000565,995.9372628000565,995.9372628000565,995.9372628000565,995.9372628000565,995.9372628000565,995.9372628000565,995.9372628000565,995.9372628000565,995.9372628000565,995.9372628000565,995.9372628000565,995.9372628000565,995.9372628000565,998.4464977998286,998.4464977998286,998.4464977998286,998.4464977998286,998.4464977998286,38,50,51,56,56,40,5.0,0.6796456002630293,999.144760500174,1000.9069948000833,,,,,,,,,133,f,1,2022-12-12_16h41.00.420,RL,2022.2.4,60.12845843676791,
1,114,0,114,0,,,,,,,,,,None,1000.9069948000833,1000.9069948000833,1000.9069948000833,1000.9069948000833,1000.9069948000833,1000.9069948000833,r,0.44608950009569526,1001.3751575001515,1001.3751575001515,1001.3751575001515,1001.3751575001515,1001.3751575001515,1001.3751575001515,1001.6720227999613,1001.6720227999613,1003.0015325001441,1003.0015325001441,1003.0015325001441,1003.0015325001441,1003.0015325001441,1003.0015325001441,1003.0015325001441,1003.0015325001441,1003.0015325001441,1003.0015325001441,1003.0015325001441,1003.0015325001441,1003.0015325001441,1003.0015325001441,1003.0015325001441,1003.0015325001441,1003.0015325001441,1005.5104219000787,1005.5104219000787,1005.5104219000787,1005.5104219000787,1005.5104219000787,41,45,39,51,41,26,7.0,0.6132233999669552,1006.1420339001343,1007.9710169001482,,,,,,,,,133,f,1,2022-12-12_16h41.00.420,RL,2022.2.4,60.12845843676791,
1,115,0,115,0,,,,,,,,,,None,1007.9710169001482,1007.9710169001482,1007.9710169001482,1007.9710169001482,1007.9710169001482,1007.9710169001482,i,0.33222700003534555,1008.323689899873,1008.323689899873,1008.323689899873,1008.323689899873,1008.323689899873,1008.323689899873,1008.6196067999117,1008.6196067999117,1010.1154995001853,1010.1154995001853,1010.1154995001853,1010.1154995001853,1010.1154995001853,1010.1154995001853,1010.1154995001853,1010.1154995001853,1010.1154995001853,1010.1154995001853,1010.1154995001853,1010.1154995001853,1010.1154995001853,1010.1154995001853,1010.1154995001853,1010.1154995001853,1010.1154995001853,1012.624817200005,1012.624817200005,1012.624817200005,1012.624817200005,1012.624817200005,43,47,40,57,40,55,6.0,0.49599160021170974,1013.139287199825,1015.0518816998228,,,,,,,,,133,f,1,2022-12-12_16h41.00.420,RL,2022.2.4,60.12845843676791,
