bandit,trials.thisRepN,trials.thisTrialN,trials.thisN,trials.thisIndex,instru_img1.started,instru_img1.stopped,instru_resp.keys,instru_resp.rt,instru_resp.started,instru_resp.stopped,instru_img2.started,instru_img2.stopped,instru_resp2.keys,instru_resp2.rt,instru_resp2.started,instru_resp2.stopped,fixbefore_2.started,fixbefore_2.stopped,rest_image.started,rest_image.stopped,rest_response.keys,rest_response.started,rest_response.stopped,red.started,red.stopped,green.started,green.stopped,yellow.started,yellow.stopped,blue.started,blue.stopped,choose_bandit.keys,choose_bandit.rt,choose_bandit.started,choose_bandit.stopped,Fixation.started,Fixation.stopped,black.started,black.stopped,red_2.started,red_2.stopped,green_2.started,green_2.stopped,yellow_2.started,yellow_2.stopped,blue_2.started,blue_2.stopped,fixation_2.started,fixation_2.stopped,docs.started,docs.stopped,image_2.started,image_2.stopped,black_com.started,black_com.stopped,reward_sub.started,reward_sub.stopped,palyerb.started,palyerb.stopped,reward__sub.started,reward__sub.stopped,compare.started,compare.stopped,red_compare.started,red_compare.stopped,green_com.started,green_com.stopped,yellow_com.started,yellow_com.stopped,blue_com.started,blue_com.stopped,rewardyellow,rewardred,rewardblue,rewardgreen,subchoose,playerb,image_3.started,image_3.stopped,slider.response,slider.rt,slider.started,slider.stopped,text.started,text.stopped,image_4.started,image_4.stopped,image_5.started,image_5.stopped,bigx.started,bigx.stopped,intertrialfix.started,intertrialfix.stopped,rest_response.rt,image.started,image.stopped,key_resp.keys,key_resp.started,key_resp.stopped,participant,Gender,Age,date,expName,psychopyVersion,frameRate,
,,,,,20.10661999997683,None,space,3.6669421000406146,20.10661999997683,None,,,,,,,,,,,,,,,,,,,,,,,,,,,,,,,,,,,,,,,,,,,,,,,,,,,,,,,,,,,,,,,,,,,,,,,,,,,,,,,,,,,,,,,,,,134,f,1,2022_Dec_12_1641,RL,2021.2.3,59.94851618518137,
,,,,,,,,,,,23.80380759993568,None,space,5.87012550001964,23.80380759993568,None,,,,,,,,,,,,,,,,,,,,,,,,,,,,,,,,,,,,,,,,,,,,,,,,,,,,,,,,,,,,,,,,,,,,,,,,,,,,,,,,,,,,134,f,1,2022_Dec_12_1641,RL,2021.2.3,59.94851618518137,
1,0,0,0,0,,,,,,,,,,,,,29.702994100051,None,None,None,None,None,None,30.722002899972722,None,30.722002899972722,None,30.722002899972722,None,30.722002899972722,None,j,0.49169300007633865,30.722002899972722,None,30.722002899972722,None,31.270243200007826,None,31.270243200007826,None,31.270243200007826,None,31.270243200007826,None,31.270243200007826,None,31.270243200007826,None,31.557612400036305,None,31.557612400036305,None,33.21597269992344,None,33.21597269992344,None,33.21597269992344,None,33.21597269992344,None,33.21597269992344,None,33.21597269992344,None,33.21597269992344,None,33.21597269992344,None,33.21597269992344,None,63,58,28,77,77,43,35.756049500079826,None,5.0,3.5649716001935303,35.756049500079826,None,35.756049500079826,None,35.756049500079826,None,35.756049500079826,None,None,None,39.35208470001817,None,,,,,,,134,f,1,2022_Dec_12_1641,RL,2021.2.3,59.94851618518137,
1,1,0,1,0,,,,,,,,,,,,,,,None,None,None,None,None,40.86739720008336,None,40.86739720008336,None,40.86739720008336,None,40.86739720008336,None,None,,40.86739720008336,None,40.86739720008336,None,None,None,None,None,None,None,None,None,None,None,None,None,None,None,None,None,None,None,None,None,None,None,None,None,None,None,None,None,None,None,None,None,None,None,61,37,36,67,0,**,None,None,None,None,None,None,None,None,None,None,None,None,42.42693140008487,None,46.934186100028455,None,,,,,,,134,f,1,2022_Dec_12_1641,RL,2021.2.3,59.94851618518137,
1,2,0,2,0,,,,,,,,,,,,,,,None,None,None,None,None,48.588063000002876,None,48.588063000002876,None,48.588063000002876,None,48.588063000002876,None,f,0.9859384000301361,48.588063000002876,None,48.588063000002876,None,49.625635999953374,None,49.625635999953374,None,49.625635999953374,None,49.625635999953374,None,49.625635999953374,None,49.625635999953374,None,49.92003930010833,51.6710145000834,49.92003930010833,51.6710145000834,51.71555680013262,None,51.71555680013262,None,51.71555680013262,None,51.71555680013262,None,51.71555680013262,None,51.71555680013262,None,51.71555680013262,None,51.71555680013262,None,51.71555680013262,None,64,54,33,64,54,37,54.23559750011191,None,6.0,2.4585974998772144,54.23559750011191,None,54.23559750011191,None,54.23559750011191,None,54.23559750011191,None,None,None,56.71213990007527,None,,,,,,,134,f,1,2022_Dec_12_1641,RL,2021.2.3,59.94851618518137,
1,3,0,3,0,,,,,,,,,,,,,,,None,None,None,None,None,58.530138900037855,None,58.530138900037855,None,58.530138900037855,None,58.530138900037855,None,r,0.4537636998575181,58.530138900037855,None,58.530138900037855,None,59.03271370008588,None,59.03271370008588,None,59.03271370008588,None,59.03271370008588,None,59.03271370008588,None,59.03271370008588,None,59.326328499941155,None,59.326328499941155,None,60.74333430011757,None,60.74333430011757,None,60.74333430011757,None,60.74333430011757,None,60.74333430011757,None,60.74333430011757,None,60.74333430011757,None,60.74333430011757,None,60.74333430011757,None,66,55,34,66,66,25,63.25772630004212,None,5.0,1.4383268000092357,63.25772630004212,None,63.25772630004212,None,63.25772630004212,None,63.25772630004212,None,None,None,64.71301629999653,None,,,,,,,134,f,1,2022_Dec_12_1641,RL,2021.2.3,59.94851618518137,
1,4,0,4,0,,,,,,,,,,,,,,,None,None,None,None,None,66.30092970002443,None,66.30092970002443,None,66.30092970002443,None,66.30092970002443,None,i,0.3229938999284059,66.30092970002443,None,66.30092970002443,None,66.66972399991937,None,66.66972399991937,None,66.66972399991937,None,66.66972399991937,None,66.66972399991937,None,66.66972399991937,None,66.96520230011083,68.23274619993754,66.96520230011083,68.23274619993754,68.27720759995282,None,68.27720759995282,None,68.27720759995282,None,68.27720759995282,None,68.27720759995282,None,68.27720759995282,None,68.27720759995282,None,68.27720759995282,None,68.27720759995282,None,66,47,29,74,29,58,70.78796950005926,None,5.0,1.7175487000495195,70.78796950005926,None,70.78796950005926,None,70.78796950005926,None,70.78796950005926,None,None,None,72.52032739995047,None,,,,,,,134,f,1,2022_Dec_12_1641,RL,2021.2.3,59.94851618518137,
1,5,0,5,0,,,,,,,,,,,,,,,None,None,None,None,None,74.08949579996988,None,74.08949579996988,None,74.08949579996988,None,74.08949579996988,None,f,0.2544624002184719,74.08949579996988,None,74.08949579996988,None,74.39303370006382,None,74.39303370006382,None,74.39303370006382,None,74.39303370006382,None,74.39303370006382,None,74.39303370006382,None,74.68731630011462,75.78796350001357,74.68731630011462,75.78796350001357,75.82163319992833,None,75.82163319992833,None,75.82163319992833,None,75.82163319992833,None,75.82163319992833,None,75.82163319992833,None,75.82163319992833,None,75.82163319992833,None,75.82163319992833,None,69,48,22,64,48,45,78.33616159996018,None,6.0,1.921006300020963,78.33616159996018,None,78.33616159996018,None,78.33616159996018,None,78.33616159996018,None,None,None,80.27380870003253,None,,,,,,,134,f,1,2022_Dec_12_1641,RL,2021.2.3,59.94851618518137,
1,6,0,6,0,,,,,,,,,,,,,,,None,None,None,None,None,82.04536699992605,None,82.04536699992605,None,82.04536699992605,None,82.04536699992605,None,i,0.548216899856925,82.04536699992605,None,82.04536699992605,None,82.61792009999044,None,82.61792009999044,None,82.61792009999044,None,82.61792009999044,None,82.61792009999044,None,82.61792009999044,None,82.9095542000141,84.46041569998488,82.9095542000141,84.46041569998488,84.49938910012133,None,84.49938910012133,None,84.49938910012133,None,84.49938910012133,None,84.49938910012133,None,84.49938910012133,None,84.49938910012133,None,84.49938910012133,None,84.49938910012133,None,68,42,21,59,21,65,87.01470270007849,None,3.0,1.9008385001216084,87.01470270007849,None,87.01470270007849,None,87.01470270007849,None,87.01470270007849,None,None,None,88.92995040002279,None,,,,,,,134,f,1,2022_Dec_12_1641,RL,2021.2.3,59.94851618518137,
1,7,0,7,0,,,,,,,,,,,,,,,None,None,None,None,None,90.56770220003091,None,90.56770220003091,None,90.56770220003091,None,90.56770220003091,None,f,0.35666580009274185,90.56770220003091,None,90.56770220003091,None,90.97741829999723,None,90.97741829999723,None,90.97741829999723,None,90.97741829999723,None,90.97741829999723,None,90.97741829999723,None,91.26535869995132,None,91.26535869995132,None,92.71389030013233,None,92.71389030013233,None,92.71389030013233,None,92.71389030013233,None,92.71389030013233,None,92.71389030013233,None,92.71389030013233,None,92.71389030013233,None,92.71389030013233,None,66,49,35,63,49,58,95.23171640001237,None,4.0,1.6039571000728756,95.23171640001237,None,95.23171640001237,None,95.23171640001237,None,95.23171640001237,None,None,None,96.85253700008616,None,,,,,,,134,f,1,2022_Dec_12_1641,RL,2021.2.3,59.94851618518137,
1,8,0,8,0,,,,,,,,,,,,,,,None,None,None,None,None,98.64058040012605,None,98.64058040012605,None,98.64058040012605,None,98.64058040012605,None,r,0.5139842999633402,98.64058040012605,None,98.64058040012605,None,99.19536940008402,None,99.19536940008402,None,99.19536940008402,None,99.19536940008402,None,99.19536940008402,None,99.19536940008402,None,99.48775029997341,None,99.48775029997341,None,100.869126399979,None,100.869126399979,None,100.869126399979,None,100.869126399979,None,100.869126399979,None,100.869126399979,None,100.869126399979,None,100.869126399979,None,100.869126399979,None,63,51,22,62,63,65,103.38497440004721,None,4.0,1.2900853001046926,103.38497440004721,None,103.38497440004721,None,103.38497440004721,None,103.38497440004721,None,None,None,104.69074310013093,None,,,,,,,134,f,1,2022_Dec_12_1641,RL,2021.2.3,59.94851618518137,
1,9,0,9,0,,,,,,,,,,,,,,,None,None,None,None,None,106.39561520004645,None,106.39561520004645,None,106.39561520004645,None,106.39561520004645,None,i,0.668553699972108,106.39561520004645,None,106.39561520004645,None,107.11631190008484,None,107.11631190008484,None,107.11631190008484,None,107.11631190008484,None,107.11631190008484,None,107.11631190008484,None,107.39323249994777,109.19425199995749,107.39323249994777,109.19425199995749,109.22614870010875,None,109.22614870010875,None,109.22614870010875,None,109.22614870010875,None,109.22614870010875,None,109.22614870010875,None,109.22614870010875,None,109.22614870010875,None,109.22614870010875,None,66,56,26,59,26,61,111.74291429994628,None,3.0,1.2900306000374258,111.74291429994628,None,111.74291429994628,None,111.74291429994628,None,111.74291429994628,None,None,None,113.04744659992866,None,,,,,,,134,f,1,2022_Dec_12_1641,RL,2021.2.3,59.94851618518137,
1,10,0,10,0,,,,,,,,,,,,,,,None,None,None,None,None,114.95093569997698,None,114.95093569997698,None,114.95093569997698,None,114.95093569997698,None,j,0.5028837998397648,114.95093569997698,None,114.95093569997698,None,115.50426349998452,None,115.50426349998452,None,115.50426349998452,None,115.50426349998452,None,115.50426349998452,None,115.50426349998452,None,115.79916980001144,116.91650249995291,115.79916980001144,116.91650249995291,116.95410620002076,None,116.95410620002076,None,116.95410620002076,None,116.95410620002076,None,116.95410620002076,None,116.95410620002076,None,116.95410620002076,None,116.95410620002076,None,116.95410620002076,None,62,58,29,67,67,55,119.48300680005923,None,5.0,1.6043030999135226,119.48300680005923,None,119.48300680005923,None,119.48300680005923,None,119.48300680005923,None,None,None,121.10241440008394,None,,,,,,,134,f,1,2022_Dec_12_1641,RL,2021.2.3,59.94851618518137,
1,11,0,11,0,,,,,,,,,,,,,,,None,None,None,None,None,122.8734707001131,None,122.8734707001131,None,122.8734707001131,None,122.8734707001131,None,f,0.42052070004865527,122.8734707001131,None,122.8734707001131,None,123.34247520007193,None,123.34247520007193,None,123.34247520007193,None,123.34247520007193,None,123.34247520007193,None,123.34247520007193,None,123.63781170011498,None,123.63781170011498,None,124.46804650011472,None,124.46804650011472,None,124.46804650011472,None,124.46804650011472,None,124.46804650011472,None,124.46804650011472,None,124.46804650011472,None,124.46804650011472,None,124.46804650011472,None,58,55,24,65,55,57,126.98548900010064,None,4.0,1.5059632000047714,126.98548900010064,None,126.98548900010064,None,126.98548900010064,None,126.98548900010064,None,None,None,128.50756069994532,None,,,,,,,134,f,1,2022_Dec_12_1641,RL,2021.2.3,59.94851618518137,
1,12,0,12,0,,,,,,,,,,,,,,,None,None,None,None,None,130.5122915999964,None,130.5122915999964,None,130.5122915999964,None,130.5122915999964,None,r,0.40194149990566075,130.5122915999964,None,130.5122915999964,None,130.95570029993542,None,130.95570029993542,None,130.95570029993542,None,130.95570029993542,None,130.95570029993542,None,130.95570029993542,None,131.24301400012337,132.7941286000423,131.24301400012337,132.7941286000423,132.8269243000541,None,132.8269243000541,None,132.8269243000541,None,132.8269243000541,None,132.8269243000541,None,132.8269243000541,None,132.8269243000541,None,132.8269243000541,None,132.8269243000541,None,59,52,33,64,59,64,135.34494460001588,None,4.0,2.320671899942681,135.34494460001588,None,135.34494460001588,None,135.34494460001588,None,135.34494460001588,None,None,None,137.6804686000105,None,,,,,,,134,f,1,2022_Dec_12_1641,RL,2021.2.3,59.94851618518137,
1,13,0,13,0,,,,,,,,,,,,,,,None,None,None,None,None,139.23457510001026,None,139.23457510001026,None,139.23457510001026,None,139.23457510001026,None,j,0.5897880999837071,139.23457510001026,None,139.23457510001026,None,139.86924970010296,None,139.86924970010296,None,139.86924970010296,None,139.86924970010296,None,139.86924970010296,None,139.86924970010296,None,140.16592760011554,None,140.16592760011554,None,142.0308692001272,None,142.0308692001272,None,142.0308692001272,None,142.0308692001272,None,142.0308692001272,None,142.0308692001272,None,142.0308692001272,None,142.0308692001272,None,142.0308692001272,None,57,48,23,57,57,28,144.54817400011234,None,6.0,1.640277300029993,144.54817400011234,None,144.54817400011234,None,144.54817400011234,None,144.54817400011234,None,None,None,146.20315920002759,None,,,,,,,134,f,1,2022_Dec_12_1641,RL,2021.2.3,59.94851618518137,
1,14,0,14,0,,,,,,,,,,,,,,,None,None,None,None,None,148.12464069994166,None,148.12464069994166,None,148.12464069994166,None,148.12464069994166,None,r,0.790543399984017,148.12464069994166,None,148.12464069994166,None,148.96327690011822,None,148.96327690011822,None,148.96327690011822,None,148.96327690011822,None,148.96327690011822,None,148.96327690011822,None,149.25580490007997,150.63971840008162,149.25580490007997,150.63971840008162,150.67326160008088,None,150.67326160008088,None,150.67326160008088,None,150.67326160008088,None,150.67326160008088,None,150.67326160008088,None,150.67326160008088,None,150.67326160008088,None,150.67326160008088,None,58,42,18,64,58,66,153.18734960001893,None,5.0,1.3704325999133289,153.18734960001893,None,153.18734960001893,None,153.18734960001893,None,153.18734960001893,None,None,None,154.5753768000286,None,,,,,,,134,f,1,2022_Dec_12_1641,RL,2021.2.3,59.94851618518137,
1,15,0,15,0,,,,,,,,,,,,,,,None,None,None,None,None,156.34684740006924,None,156.34684740006924,None,156.34684740006924,None,156.34684740006924,None,i,0.6884153999853879,156.34684740006924,None,156.34684740006924,None,157.0821922000032,None,157.0821922000032,None,157.0821922000032,None,157.0821922000032,None,157.0821922000032,None,157.0821922000032,None,157.37788749998435,None,157.37788749998435,None,158.97614430007525,None,158.97614430007525,None,158.97614430007525,None,158.97614430007525,None,158.97614430007525,None,158.97614430007525,None,158.97614430007525,None,158.97614430007525,None,158.97614430007525,None,47,41,23,69,23,67,161.4925544001162,None,3.0,1.772509700153023,161.4925544001162,None,161.4925544001162,None,161.4925544001162,None,161.4925544001162,None,None,None,163.2816874999553,None,,,,,,,134,f,1,2022_Dec_12_1641,RL,2021.2.3,59.94851618518137,
1,16,0,16,0,,,,,,,,,,,,,,,None,None,None,None,None,164.91888460004702,None,164.91888460004702,None,164.91888460004702,None,164.91888460004702,None,r,0.14660090021789074,164.91888460004702,None,164.91888460004702,None,165.10567670012824,None,165.10567670012824,None,165.10567670012824,None,165.10567670012824,None,165.10567670012824,None,165.10567670012824,None,165.40034630009905,166.36739969998598,165.40034630009905,166.36739969998598,166.40424820012413,None,166.40424820012413,None,166.40424820012413,None,166.40424820012413,None,166.40424820012413,None,166.40424820012413,None,166.40424820012413,None,166.40424820012413,None,166.40424820012413,None,51,41,26,70,51,59,168.9365862000268,None,4.0,1.868758900091052,168.9365862000268,None,168.9365862000268,None,168.9365862000268,None,168.9365862000268,None,None,None,170.8200823001098,None,,,,,,,134,f,1,2022_Dec_12_1641,RL,2021.2.3,59.94851618518137,
1,17,0,17,0,,,,,,,,,,,,,,,None,None,None,None,None,172.70844830013812,None,172.70844830013812,None,172.70844830013812,None,172.70844830013812,None,f,0.3970708998385817,172.70844830013812,None,172.70844830013812,None,173.14535150001757,None,173.14535150001757,None,173.14535150001757,None,173.14535150001757,None,173.14535150001757,None,173.14535150001757,None,173.42230650014244,174.52299470012076,173.42230650014244,174.52299470012076,174.55560380010866,None,174.55560380010866,None,174.55560380010866,None,174.55560380010866,None,174.55560380010866,None,174.55560380010866,None,174.55560380010866,None,174.55560380010866,None,174.55560380010866,None,54,44,20,69,44,39,177.07230659993365,None,4.0,0.9704127998556942,177.07230659993365,None,177.07230659993365,None,177.07230659993365,None,177.07230659993365,None,None,None,178.05826950003393,None,,,,,,,134,f,1,2022_Dec_12_1641,RL,2021.2.3,59.94851618518137,
1,18,0,18,0,,,,,,,,,,,,,,,None,None,None,None,None,179.71263219998218,None,179.71263219998218,None,179.71263219998218,None,179.71263219998218,None,i,0.6331915000919253,179.71263219998218,None,179.71263219998218,None,180.39824600005522,None,180.39824600005522,None,180.39824600005522,None,180.39824600005522,None,180.39824600005522,None,180.39824600005522,None,180.69392580003478,181.96137930010445,180.69392580003478,181.96137930010445,181.99745410005562,None,181.99745410005562,None,181.99745410005562,None,181.99745410005562,None,181.99745410005562,None,181.99745410005562,None,181.99745410005562,None,181.99745410005562,None,181.99745410005562,None,49,47,14,70,14,55,184.5136319999583,None,3.0,2.0028935000300407,184.5136319999583,None,184.5136319999583,None,184.5136319999583,None,184.5136319999583,None,None,None,186.53700090013444,None,,,,,,,134,f,1,2022_Dec_12_1641,RL,2021.2.3,59.94851618518137,
1,19,0,19,0,,,,,,,,,,,,,,,None,None,None,None,None,188.15199279994704,None,188.15199279994704,None,188.15199279994704,None,188.15199279994704,None,j,0.8034256999380887,188.15199279994704,None,188.15199279994704,None,189.00411590002477,None,189.00411590002477,None,189.00411590002477,None,189.00411590002477,None,189.00411590002477,None,189.00411590002477,None,189.3000320000574,190.73418959998526,189.3000320000574,190.73418959998526,190.7677396000363,None,190.7677396000363,None,190.7677396000363,None,190.7677396000363,None,190.7677396000363,None,190.7677396000363,None,190.7677396000363,None,190.7677396000363,None,190.7677396000363,None,53,42,17,69,69,59,193.28739700000733,None,5.0,1.3666441000532359,193.28739700000733,None,193.28739700000733,None,193.28739700000733,None,193.28739700000733,None,None,None,194.67554310010746,None,,,,,,,134,f,1,2022_Dec_12_1641,RL,2021.2.3,59.94851618518137,
1,20,0,20,0,,,,,,,,,,,,,,,None,None,None,None,None,196.49133330001496,None,196.49133330001496,None,196.49133330001496,None,196.49133330001496,None,j,0.484413200058043,196.49133330001496,None,196.49133330001496,None,197.02793450001627,None,197.02793450001627,None,197.02793450001627,None,197.02793450001627,None,197.02793450001627,None,197.02793450001627,None,197.32226089993492,None,197.32226089993492,None,198.81932380003855,None,198.81932380003855,None,198.81932380003855,None,198.81932380003855,None,198.81932380003855,None,198.81932380003855,None,198.81932380003855,None,198.81932380003855,None,198.81932380003855,None,53,40,21,68,68,55,201.34112400002778,None,5.0,1.4868532000109553,201.34112400002778,None,201.34112400002778,None,201.34112400002778,None,201.34112400002778,None,None,None,202.84240430011414,None,,,,,,,134,f,1,2022_Dec_12_1641,RL,2021.2.3,59.94851618518137,
1,21,0,21,0,,,,,,,,,,,,,,,None,None,None,None,None,204.66308309999295,None,204.66308309999295,None,204.66308309999295,None,204.66308309999295,None,j,0.7726376000791788,204.66308309999295,None,204.66308309999295,None,205.48379199998453,None,205.48379199998453,None,205.48379199998453,None,205.48379199998453,None,205.48379199998453,None,205.48379199998453,None,205.7781471000053,None,205.7781471000053,None,207.7499361000955,None,207.7499361000955,None,207.7499361000955,None,207.7499361000955,None,207.7499361000955,None,207.7499361000955,None,207.7499361000955,None,207.7499361000955,None,207.7499361000955,None,55,41,30,78,78,50,210.28855850012042,None,6.0,1.5492631001397967,210.28855850012042,None,210.28855850012042,None,210.28855850012042,None,210.28855850012042,None,None,None,211.84877740009688,None,,,,,,,134,f,1,2022_Dec_12_1641,RL,2021.2.3,59.94851618518137,
1,22,0,22,0,,,,,,,,,,,,,,,None,None,None,None,None,213.38525860011578,None,213.38525860011578,None,213.38525860011578,None,213.38525860011578,None,j,0.5306251000147313,213.38525860011578,None,213.38525860011578,None,213.9565604000818,None,213.9565604000818,None,213.9565604000818,None,213.9565604000818,None,213.9565604000818,None,213.9565604000818,None,214.25066199991852,215.9350227001123,214.25066199991852,215.9350227001123,215.96627909992822,None,215.96627909992822,None,215.96627909992822,None,215.96627909992822,None,215.96627909992822,None,215.96627909992822,None,215.96627909992822,None,215.96627909992822,None,215.96627909992822,None,46,45,32,73,73,63,218.48753289994784,None,6.0,1.167000100016594,218.48753289994784,None,218.48753289994784,None,218.48753289994784,None,218.48753289994784,None,None,None,219.67042370000854,None,,,,,,,134,f,1,2022_Dec_12_1641,RL,2021.2.3,59.94851618518137,
1,23,0,23,0,,,,,,,,,,,,,,,None,None,None,None,None,221.6256516999565,None,221.6256516999565,None,221.6256516999565,None,221.6256516999565,None,r,0.6702791000716388,221.6256516999565,None,221.6256516999565,None,222.34451860003173,None,222.34451860003173,None,222.34451860003173,None,222.34451860003173,None,222.34451860003173,None,222.34451860003173,None,222.63981810002588,224.25735129998066,222.63981810002588,224.25735129998066,224.29457670007832,None,224.29457670007832,None,224.29457670007832,None,224.29457670007832,None,224.29457670007832,None,224.29457670007832,None,224.29457670007832,None,224.29457670007832,None,224.29457670007832,None,48,36,24,80,48,65,226.80510849994607,None,5.0,2.4411680998746306,226.80510849994607,None,226.80510849994607,None,226.80510849994607,None,226.80510849994607,None,None,None,229.2609828999266,None,,,,,,,134,f,1,2022_Dec_12_1641,RL,2021.2.3,59.94851618518137,
1,24,0,24,0,,,,,,,,,,,,,,,None,None,None,None,None,231.21498219994828,None,231.21498219994828,None,231.21498219994828,None,231.21498219994828,None,j,0.27073489991016686,231.21498219994828,None,231.21498219994828,None,231.53487260011025,None,231.53487260011025,None,231.53487260011025,None,231.53487260011025,None,231.53487260011025,None,231.53487260011025,None,231.8296590000391,None,231.8296590000391,None,233.60935229994357,None,233.60935229994357,None,233.60935229994357,None,233.60935229994357,None,233.60935229994357,None,233.60935229994357,None,233.60935229994357,None,233.60935229994357,None,233.60935229994357,None,46,40,29,67,67,41,236.13184779998846,None,6.0,1.7849284999538213,236.13184779998846,None,236.13184779998846,None,236.13184779998846,None,236.13184779998846,None,None,None,237.93319020001218,None,,,,,,,134,f,1,2022_Dec_12_1641,RL,2021.2.3,59.94851618518137,
1,25,0,25,0,,,,,,,,,,,,,,,None,None,None,None,None,239.87160050007515,None,239.87160050007515,None,239.87160050007515,None,239.87160050007515,None,j,0.49401380005292594,239.87160050007515,None,239.87160050007515,None,240.40810899995267,None,240.40810899995267,None,240.40810899995267,None,240.40810899995267,None,240.40810899995267,None,240.40810899995267,None,240.70242159999907,None,240.70242159999907,None,242.15224010008387,None,242.15224010008387,None,242.15224010008387,None,242.15224010008387,None,242.15224010008387,None,242.15224010008387,None,242.15224010008387,None,242.15224010008387,None,242.15224010008387,None,47,40,29,71,71,61,244.66912199999206,None,6.0,1.171719699865207,244.66912199999206,None,244.66912199999206,None,244.66912199999206,None,244.66912199999206,None,None,None,245.8555455999449,None,,,,,,,134,f,1,2022_Dec_12_1641,RL,2021.2.3,59.94851618518137,
1,26,0,26,0,,,,,,,,,,,,,,,None,None,None,None,None,247.47619790001772,None,247.47619790001772,None,247.47619790001772,None,247.47619790001772,None,j,0.8898368000518531,247.47619790001772,None,247.47619790001772,None,248.41633770009503,None,248.41633770009503,None,248.41633770009503,None,248.41633770009503,None,248.41633770009503,None,248.41633770009503,None,248.7078478001058,249.80846410011873,248.7078478001058,249.80846410011873,249.84401510003954,None,249.84401510003954,None,249.84401510003954,None,249.84401510003954,None,249.84401510003954,None,249.84401510003954,None,249.84401510003954,None,249.84401510003954,None,249.84401510003954,None,39,52,28,74,74,68,252.35642760014161,None,6.0,1.137313799932599,252.35642760014161,None,252.35642760014161,None,252.35642760014161,None,252.35642760014161,None,None,None,253.51171569991857,None,,,,,,,134,f,1,2022_Dec_12_1641,RL,2021.2.3,59.94851618518137,
1,27,0,27,0,,,,,,,,,,,,,,,None,None,None,None,None,255.0818406001199,None,255.0818406001199,None,255.0818406001199,None,255.0818406001199,None,j,0.45414309995248914,255.0818406001199,None,255.0818406001199,None,255.58279279991984,None,255.58279279991984,None,255.58279279991984,None,255.58279279991984,None,255.58279279991984,None,255.58279279991984,None,255.87965150014497,None,255.87965150014497,None,257.14638950000517,None,257.14638950000517,None,257.14638950000517,None,257.14638950000517,None,257.14638950000517,None,257.14638950000517,None,257.14638950000517,None,257.14638950000517,None,257.14638950000517,None,47,47,25,69,69,63,259.6596236000769,None,6.0,1.1899688001722097,259.6596236000769,None,259.6596236000769,None,259.6596236000769,None,259.6596236000769,None,None,None,260.86564740003087,None,,,,,,,134,f,1,2022_Dec_12_1641,RL,2021.2.3,59.94851618518137,
1,28,0,28,0,,,,,,,,,,,,,,,None,None,None,None,None,262.486905900063,None,262.486905900063,None,262.486905900063,None,262.486905900063,None,j,0.4098270998802036,262.486905900063,None,262.486905900063,None,262.94040390010923,None,262.94040390010923,None,262.94040390010923,None,262.94040390010923,None,262.94040390010923,None,262.94040390010923,None,263.23471640003845,264.48527940013446,263.23471640003845,264.48527940013446,264.5150568000972,None,264.5150568000972,None,264.5150568000972,None,264.5150568000972,None,264.5150568000972,None,264.5150568000972,None,264.5150568000972,None,264.5150568000972,None,264.5150568000972,None,46,59,19,69,69,42,267.03404340008274,None,7.0,1.25488349981606,267.03404340008274,None,267.03404340008274,None,267.03404340008274,None,267.03404340008274,None,None,None,268.30441140010953,None,,,,,,,134,f,1,2022_Dec_12_1641,RL,2021.2.3,59.94851618518137,
1,29,0,29,0,,,,,,,,,,,,,,,None,None,None,None,None,269.9753877001349,None,269.9753877001349,None,269.9753877001349,None,269.9753877001349,None,j,0.440760700032115,269.9753877001349,None,269.9753877001349,None,270.46260900003836,None,270.46260900003836,None,270.46260900003836,None,270.46260900003836,None,270.46260900003836,None,270.46260900003836,None,270.75643830001354,None,270.75643830001354,None,271.82070260006003,None,271.82070260006003,None,271.82070260006003,None,271.82070260006003,None,271.82070260006003,None,271.82070260006003,None,271.82070260006003,None,271.82070260006003,None,271.82070260006003,None,43,56,19,72,72,69,274.3441449000966,None,7.0,1.3355708001181483,274.3441449000966,None,274.3441449000966,None,274.3441449000966,None,274.3441449000966,None,None,None,275.6944272001274,None,,,,,,,134,f,1,2022_Dec_12_1641,RL,2021.2.3,59.94851618518137,
1,30,0,30,0,,,,,,,,,,,,,,,None,None,None,None,None,277.61437890003435,None,277.61437890003435,None,277.61437890003435,None,277.61437890003435,None,None,,277.61437890003435,None,277.61437890003435,None,None,None,None,None,None,None,None,None,None,None,None,None,None,None,None,None,None,None,None,None,None,None,None,None,None,None,None,None,None,None,None,None,None,None,41,49,17,73,0,**,None,None,None,None,None,None,None,None,None,None,None,None,279.1829741001129,None,283.6984463001136,None,,,,,,,134,f,1,2022_Dec_12_1641,RL,2021.2.3,59.94851618518137,
1,31,0,31,0,,,,,,,,,,,,,,,None,None,None,None,None,285.26854260009713,None,285.26854260009713,None,285.26854260009713,None,285.26854260009713,None,f,0.45769389998167753,285.26854260009713,None,285.26854260009713,None,285.77241199999116,None,285.77241199999116,None,285.77241199999116,None,285.77241199999116,None,285.77241199999116,None,285.77241199999116,None,286.06718769995496,None,286.06718769995496,None,287.2163555000443,None,287.2163555000443,None,287.2163555000443,None,287.2163555000443,None,287.2163555000443,None,287.2163555000443,None,287.2163555000443,None,287.2163555000443,None,287.2163555000443,None,38,54,19,68,54,53,289.7328864999581,None,4.0,0.9873277000151575,289.7328864999581,None,289.7328864999581,None,289.7328864999581,None,289.7328864999581,None,None,None,290.7365206000395,None,,,,,,,134,f,1,2022_Dec_12_1641,RL,2021.2.3,59.94851618518137,
1,32,0,32,0,,,,,,,,,,,,,,,None,None,None,None,None,292.6916738001164,None,292.6916738001164,None,292.6916738001164,None,292.6916738001164,None,j,0.2950452999211848,292.6916738001164,None,292.6916738001164,None,293.0264588999562,None,293.0264588999562,None,293.0264588999562,None,293.0264588999562,None,293.0264588999562,None,293.0264588999562,None,293.32196360011585,294.3227790000383,293.32196360011585,294.3227790000383,294.36083770007826,None,294.36083770007826,None,294.36083770007826,None,294.36083770007826,None,294.36083770007826,None,294.36083770007826,None,294.36083770007826,None,294.36083770007826,None,294.36083770007826,None,35,56,29,67,67,55,296.88908719993196,None,5.0,1.6715945999603719,296.88908719993196,None,296.88908719993196,None,296.88908719993196,None,296.88908719993196,None,None,None,298.5853119001258,None,,,,,,,134,f,1,2022_Dec_12_1641,RL,2021.2.3,59.94851618518137,
1,33,0,33,0,,,,,,,,,,,,,,,None,None,None,None,None,300.49625800014473,None,300.49625800014473,None,300.49625800014473,None,300.49625800014473,None,r,0.4501700000837445,300.49625800014473,None,300.49625800014473,None,300.9998268999625,None,300.9998268999625,None,300.9998268999625,None,300.9998268999625,None,300.9998268999625,None,300.9998268999625,None,301.29440269991755,None,301.29440269991755,None,302.77586010005325,None,302.77586010005325,None,302.77586010005325,None,302.77586010005325,None,302.77586010005325,None,302.77586010005325,None,302.77586010005325,None,302.77586010005325,None,302.77586010005325,None,40,51,27,63,40,63,305.29366820002906,None,4.0,1.8560385999735445,305.29366820002906,None,305.29366820002906,None,305.29366820002906,None,305.29366820002906,None,None,None,307.16439100005664,None,,,,,,,134,f,1,2022_Dec_12_1641,RL,2021.2.3,59.94851618518137,
1,34,0,34,0,,,,,,,,,,,,,,,None,None,None,None,None,308.8525889001321,None,308.8525889001321,None,308.8525889001321,None,308.8525889001321,None,j,0.7150173999834806,308.8525889001321,None,308.8525889001321,None,309.60907369991764,None,309.60907369991764,None,309.60907369991764,None,309.60907369991764,None,309.60907369991764,None,309.60907369991764,None,309.90035200002603,311.7180880000815,309.90035200002603,311.7180880000815,311.7550757001154,None,311.7550757001154,None,311.7550757001154,None,311.7550757001154,None,311.7550757001154,None,311.7550757001154,None,311.7550757001154,None,311.7550757001154,None,311.7550757001154,None,48,48,27,43,43,70,314.2659690999426,None,3.0,2.556378999957815,314.2659690999426,None,314.2659690999426,None,314.2659690999426,None,314.2659690999426,None,None,None,316.83795750001445,None,,,,,,,134,f,1,2022_Dec_12_1641,RL,2021.2.3,59.94851618518137,
1,35,0,35,0,,,,,,,,,,,,,,,None,None,None,None,None,318.8261704000179,None,318.8261704000179,None,318.8261704000179,None,318.8261704000179,None,i,0.7010642001405358,318.8261704000179,None,318.8261704000179,None,319.58151359995827,None,319.58151359995827,None,319.58151359995827,None,319.58151359995827,None,319.58151359995827,None,319.58151359995827,None,319.8738738000393,321.84182780003175,319.8738738000393,321.84182780003175,321.8738907999359,None,321.8738907999359,None,321.8738907999359,None,321.8738907999359,None,321.8738907999359,None,321.8738907999359,None,321.8738907999359,None,321.8738907999359,None,321.8738907999359,None,45,55,27,54,27,26,324.38911080011167,None,3.0,1.1396168998908252,324.38911080011167,None,324.38911080011167,None,324.38911080011167,None,324.38911080011167,None,None,None,325.5483327000402,None,,,,,,,134,f,1,2022_Dec_12_1641,RL,2021.2.3,59.94851618518137,
1,36,0,36,0,,,,,,,,,,,,,,,None,None,None,None,None,327.06513729994185,None,327.06513729994185,None,327.06513729994185,None,327.06513729994185,None,r,0.9623924000188708,327.06513729994185,None,327.06513729994185,None,328.07078219996765,None,328.07078219996765,None,328.07078219996765,None,328.07078219996765,None,328.07078219996765,None,328.07078219996765,None,328.363322700141,330.2809838000685,328.363322700141,330.2809838000685,330.313023700146,None,330.313023700146,None,330.313023700146,None,330.313023700146,None,330.313023700146,None,330.313023700146,None,330.313023700146,None,330.313023700146,None,330.313023700146,None,53,43,26,62,53,64,332.83401579991914,None,3.0,1.585315000033006,332.83401579991914,None,332.83401579991914,None,332.83401579991914,None,332.83401579991914,None,None,None,334.436554600019,None,,,,,,,134,f,1,2022_Dec_12_1641,RL,2021.2.3,59.94851618518137,
1,37,0,37,0,,,,,,,,,,,,,,,None,None,None,None,None,336.33801340009086,None,336.33801340009086,None,336.33801340009086,None,336.33801340009086,None,j,0.2996737000066787,336.33801340009086,None,336.33801340009086,None,336.6919897000771,None,336.6919897000771,None,336.6919897000771,None,336.6919897000771,None,336.6919897000771,None,336.6919897000771,None,336.9857127000578,337.8861072999425,336.9857127000578,337.8861072999425,337.9180882999208,None,337.9180882999208,None,337.9180882999208,None,337.9180882999208,None,337.9180882999208,None,337.9180882999208,None,337.9180882999208,None,337.9180882999208,None,337.9180882999208,None,46,46,29,54,54,61,340.4326607999392,None,4.0,1.958404100034386,340.4326607999392,None,340.4326607999392,None,340.4326607999392,None,340.4326607999392,None,None,None,342.40584599995054,None,,,,,,,134,f,1,2022_Dec_12_1641,RL,2021.2.3,59.94851618518137,
1,38,0,38,0,,,,,,,,,,,,,,,None,None,None,None,None,344.41068319999613,None,344.41068319999613,None,344.41068319999613,None,344.41068319999613,None,f,0.5267543001100421,344.41068319999613,None,344.41068319999613,None,344.98129160003737,None,344.98129160003737,None,344.98129160003737,None,344.98129160003737,None,344.98129160003737,None,344.98129160003737,None,345.2581448999699,346.9594388001133,345.2581448999699,346.9594388001133,346.9911933999974,None,346.9911933999974,None,346.9911933999974,None,346.9911933999974,None,346.9911933999974,None,346.9911933999974,None,346.9911933999974,None,346.9911933999974,None,346.9911933999974,None,46,43,25,62,43,66,349.5161550999619,None,3.0,1.667658699909225,349.5161550999619,None,349.5161550999619,None,349.5161550999619,None,349.5161550999619,None,None,None,351.2043236999307,None,,,,,,,134,f,1,2022_Dec_12_1641,RL,2021.2.3,59.94851618518137,
1,39,0,39,0,,,,,,,,,,,,,,,None,None,None,None,None,353.19998140004463,None,353.19998140004463,None,353.19998140004463,None,353.19998140004463,None,i,0.36762609984725714,353.19998140004463,None,353.19998140004463,None,353.6183470999822,None,353.6183470999822,None,353.6183470999822,None,353.6183470999822,None,353.6183470999822,None,353.6183470999822,None,353.9139986000955,355.29811520013027,353.9139986000955,355.29811520013027,355.3287798999809,None,355.3287798999809,None,355.3287798999809,None,355.3287798999809,None,355.3287798999809,None,355.3287798999809,None,355.3287798999809,None,355.3287798999809,None,355.3287798999809,None,41,56,28,67,28,62,357.84561840002425,None,2.0,1.5735638998448849,357.84561840002425,None,357.84561840002425,None,357.84561840002425,None,357.84561840002425,None,None,None,359.4341674000025,None,,,,,,,134,f,1,2022_Dec_12_1641,RL,2021.2.3,59.94851618518137,
1,40,0,40,0,,,,,,,,,,,,,,,None,None,None,None,None,361.33886120002717,None,361.33886120002717,None,361.33886120002717,None,361.33886120002717,None,r,0.47844840004108846,361.33886120002717,None,361.33886120002717,None,361.85918190004304,None,361.85918190004304,None,361.85918190004304,None,361.85918190004304,None,361.85918190004304,None,361.85918190004304,None,362.1368637001142,363.2871994001325,362.1368637001142,363.2871994001325,363.3227929000277,None,363.3227929000277,None,363.3227929000277,None,363.3227929000277,None,363.3227929000277,None,363.3227929000277,None,363.3227929000277,None,363.3227929000277,None,363.3227929000277,None,49,53,34,70,49,51,365.84126090002246,None,4.0,1.6357630998827517,365.84126090002246,None,365.84126090002246,None,365.84126090002246,None,365.84126090002246,None,None,None,367.49331509997137,None,,,,,,,134,f,1,2022_Dec_12_1641,RL,2021.2.3,59.94851618518137,
1,41,0,41,0,,,,,,,,,,,,,,,None,None,None,None,None,369.2276666001417,None,369.2276666001417,None,369.2276666001417,None,369.2276666001417,None,j,0.46011659991927445,369.2276666001417,None,369.2276666001417,None,369.7349801999517,None,369.7349801999517,None,369.7349801999517,None,369.7349801999517,None,369.7349801999517,None,369.7349801999517,None,370.02526300004683,371.342707300093,370.02526300004683,371.342707300093,371.3747139000334,None,371.3747139000334,None,371.3747139000334,None,371.3747139000334,None,371.3747139000334,None,371.3747139000334,None,371.3747139000334,None,371.3747139000334,None,371.3747139000334,None,49,57,27,66,66,52,373.890092600137,None,5.0,1.6581879002042115,373.890092600137,None,373.890092600137,None,373.890092600137,None,373.890092600137,None,None,None,375.56300420011394,None,,,,,,,134,f,1,2022_Dec_12_1641,RL,2021.2.3,59.94851618518137,
1,42,0,42,0,,,,,,,,,,,,,,,None,None,None,None,None,377.3656099999789,None,377.3656099999789,None,377.3656099999789,None,377.3656099999789,None,j,0.5720464999321848,377.3656099999789,None,377.3656099999789,None,377.9853266000282,None,377.9853266000282,None,377.9853266000282,None,377.9853266000282,None,377.9853266000282,None,377.9853266000282,None,378.2809409999754,379.73193280003034,378.2809409999754,379.73193280003034,379.76593200000934,None,379.76593200000934,None,379.76593200000934,None,379.76593200000934,None,379.76593200000934,None,379.76593200000934,None,379.76593200000934,None,379.76593200000934,None,379.76593200000934,None,50,61,31,68,68,50,382.2864016999956,None,5.0,1.1820406999904662,382.2864016999956,None,382.2864016999956,None,382.2864016999956,None,382.2864016999956,None,None,None,383.48417960014194,None,,,,,,,134,f,1,2022_Dec_12_1641,RL,2021.2.3,59.94851618518137,
1,43,0,43,0,,,,,,,,,,,,,,,None,None,None,None,None,385.372250800021,None,385.372250800021,None,385.372250800021,None,385.372250800021,None,j,0.6155374001245946,385.372250800021,None,385.372250800021,None,386.0435409999918,None,386.0435409999918,None,386.0435409999918,None,386.0435409999918,None,386.0435409999918,None,386.0435409999918,None,386.3202370000072,387.72084140009247,386.3202370000072,387.72084140009247,387.7524715999607,None,387.7524715999607,None,387.7524715999607,None,387.7524715999607,None,387.7524715999607,None,387.7524715999607,None,387.7524715999607,None,387.7524715999607,None,387.7524715999607,None,50,57,25,62,62,73,390.2764276000671,None,4.0,1.5823888999875635,390.2764276000671,None,390.2764276000671,None,390.2764276000671,None,390.2764276000671,None,None,None,391.8737250000704,None,,,,,,,134,f,1,2022_Dec_12_1641,RL,2021.2.3,59.94851618518137,
1,44,0,44,0,,,,,,,,,,,,,,,None,None,None,None,None,393.5614287001081,None,393.5614287001081,None,393.5614287001081,None,393.5614287001081,None,r,0.5964265000075102,393.5614287001081,None,393.5614287001081,None,394.20323360012844,None,394.20323360012844,None,394.20323360012844,None,394.20323360012844,None,394.20323360012844,None,394.20323360012844,None,394.4921943999361,396.4767434000969,394.4921943999361,396.4767434000969,396.5085076999385,None,396.5085076999385,None,396.5085076999385,None,396.5085076999385,None,396.5085076999385,None,396.5085076999385,None,396.5085076999385,None,396.5085076999385,None,396.5085076999385,None,56,67,37,67,56,48,399.0255630000029,None,5.0,2.0054158000275493,399.0255630000029,None,399.0255630000029,None,399.0255630000029,None,399.0255630000029,None,None,None,401.0463143000379,None,,,,,,,134,f,1,2022_Dec_12_1641,RL,2021.2.3,59.94851618518137,
1,45,0,45,0,,,,,,,,,,,,,,,None,None,None,None,None,402.91751950001344,None,402.91751950001344,None,402.91751950001344,None,402.91751950001344,None,r,0.6202877999749035,402.91751950001344,None,402.91751950001344,None,403.5854177000001,None,403.5854177000001,None,403.5854177000001,None,403.5854177000001,None,403.5854177000001,None,403.5854177000001,None,403.8820493000094,405.2327761000488,403.8820493000094,405.2327761000488,405.262785699917,None,405.262785699917,None,405.262785699917,None,405.262785699917,None,405.262785699917,None,405.262785699917,None,405.262785699917,None,405.262785699917,None,405.262785699917,None,51,55,33,70,51,41,407.78105939994566,None,5.0,1.223408699966967,407.78105939994566,None,407.78105939994566,None,407.78105939994566,None,407.78105939994566,None,None,None,409.0192355001345,None,,,,,,,134,f,1,2022_Dec_12_1641,RL,2021.2.3,59.94851618518137,
1,46,0,46,0,,,,,,,,,,,,,,,None,None,None,None,None,410.70641430001706,None,410.70641430001706,None,410.70641430001706,None,410.70641430001706,None,i,0.6014415000099689,410.70641430001706,None,410.70641430001706,None,411.35881859995425,None,411.35881859995425,None,411.35881859995425,None,411.35881859995425,None,411.35881859995425,None,411.35881859995425,None,411.6541685999837,None,411.6541685999837,None,413.47089030011557,None,413.47089030011557,None,413.47089030011557,None,413.47089030011557,None,413.47089030011557,None,413.47089030011557,None,413.47089030011557,None,413.47089030011557,None,413.47089030011557,None,47,55,41,70,41,66,415.98588189994916,None,3.0,1.872107099974528,415.98588189994916,None,415.98588189994916,None,415.98588189994916,None,415.98588189994916,None,None,None,417.874488200061,None,,,,,,,134,f,1,2022_Dec_12_1641,RL,2021.2.3,59.94851618518137,
1,47,0,47,0,,,,,,,,,,,,,,,None,None,None,None,None,419.57921260013245,None,419.57921260013245,None,419.57921260013245,None,419.57921260013245,None,f,0.5186745000537485,419.57921260013245,None,419.57921260013245,None,420.1479905000888,None,420.1479905000888,None,420.1479905000888,None,420.1479905000888,None,420.1479905000888,None,420.1479905000888,None,420.4435650999658,None,420.4435650999658,None,421.35806489991955,None,421.35806489991955,None,421.35806489991955,None,421.35806489991955,None,421.35806489991955,None,421.35806489991955,None,421.35806489991955,None,421.35806489991955,None,421.35806489991955,None,51,45,38,78,45,44,423.8789308001287,None,4.0,1.5550599000416696,423.8789308001287,None,423.8789308001287,None,423.8789308001287,None,423.8789308001287,None,None,None,425.45089680003,None,,,,,,,134,f,1,2022_Dec_12_1641,RL,2021.2.3,59.94851618518137,
1,48,0,48,0,,,,,,,,,,,,,,,None,None,None,None,None,427.4348192999605,None,427.4348192999605,None,427.4348192999605,None,427.4348192999605,None,j,0.40309360018000007,427.4348192999605,None,427.4348192999605,None,427.88779780012555,None,427.88779780012555,None,427.88779780012555,None,427.88779780012555,None,427.88779780012555,None,427.88779780012555,None,428.182285600109,429.4163067000918,428.182285600109,429.4163067000918,429.4474925000686,None,429.4474925000686,None,429.4474925000686,None,429.4474925000686,None,429.4474925000686,None,429.4474925000686,None,429.4474925000686,None,429.4474925000686,None,429.4474925000686,None,41,57,46,71,71,56,431.97212289995514,None,5.0,1.4655341999605298,431.97212289995514,None,431.97212289995514,None,431.97212289995514,None,431.97212289995514,None,None,None,433.45217310008593,None,,,,,,,134,f,1,2022_Dec_12_1641,RL,2021.2.3,59.94851618518137,
1,49,0,49,0,,,,,,,,,,,,,,,None,None,None,None,None,435.1067642001435,None,435.1067642001435,None,435.1067642001435,None,435.1067642001435,None,j,0.5214855999220163,435.1067642001435,None,435.1067642001435,None,435.67586979991756,None,435.67586979991756,None,435.67586979991756,None,435.67586979991756,None,435.67586979991756,None,435.67586979991756,None,435.97096800012514,None,435.97096800012514,None,437.00955930002965,None,437.00955930002965,None,437.00955930002965,None,437.00955930002965,None,437.00955930002965,None,437.00955930002965,None,437.00955930002965,None,437.00955930002965,None,437.00955930002965,None,52,49,44,67,67,44,439.53627200005576,None,6.0,1.5239840000867844,439.53627200005576,None,439.53627200005576,None,439.53627200005576,None,439.53627200005576,None,None,None,441.0778954999987,None,,,,,,,134,f,1,2022_Dec_12_1641,RL,2021.2.3,59.94851618518137,
1,50,0,50,0,,,,,,,,,,,,,,,None,None,None,None,None,443.0627568999771,None,443.0627568999771,None,443.0627568999771,None,443.0627568999771,None,j,0.6651613998692483,443.0627568999771,None,443.0627568999771,None,443.7639341999311,None,443.7639341999311,None,443.7639341999311,None,443.7639341999311,None,443.7639341999311,None,443.7639341999311,None,444.05991569999605,None,444.05991569999605,None,445.24140290007927,None,445.24140290007927,None,445.24140290007927,None,445.24140290007927,None,445.24140290007927,None,445.24140290007927,None,445.24140290007927,None,445.24140290007927,None,445.24140290007927,None,55,52,47,78,78,46,447.76576460013166,None,7.0,1.5841481999959797,447.76576460013166,None,447.76576460013166,None,447.76576460013166,None,447.76576460013166,None,None,None,449.36326429992914,None,,,,,,,134,f,1,2022_Dec_12_1641,RL,2021.2.3,59.94851618518137,
1,51,0,51,0,,,,,,,,,,,,,,,None,None,None,None,None,451.0508004000876,None,451.0508004000876,None,451.0508004000876,None,451.0508004000876,None,j,0.4273665000218898,451.0508004000876,None,451.0508004000876,None,451.5193558000028,None,451.5193558000028,None,451.5193558000028,None,451.5193558000028,None,451.5193558000028,None,451.5193558000028,None,451.8155467000324,453.09942220011726,451.8155467000324,453.09942220011726,453.13288659998216,None,453.13288659998216,None,453.13288659998216,None,453.13288659998216,None,453.13288659998216,None,453.13288659998216,None,453.13288659998216,None,453.13288659998216,None,453.13288659998216,None,50,49,46,74,74,66,455.64781540003605,None,7.0,1.9731101000215858,455.64781540003605,None,455.64781540003605,None,455.64781540003605,None,455.64781540003605,None,None,None,457.6355972001329,None,,,,,,,134,f,1,2022_Dec_12_1641,RL,2021.2.3,59.94851618518137,
1,52,0,52,0,,,,,,,,,,,,,,,None,None,None,None,None,459.25389269995503,None,459.25389269995503,None,459.25389269995503,None,459.25389269995503,None,j,0.42516390001401305,459.25389269995503,None,459.25389269995503,None,459.7270591999404,None,459.7270591999404,None,459.7270591999404,None,459.7270591999404,None,459.7270591999404,None,459.7270591999404,None,460.0210533000063,None,460.0210533000063,None,461.9581492000725,None,461.9581492000725,None,461.9581492000725,None,461.9581492000725,None,461.9581492000725,None,461.9581492000725,None,461.9581492000725,None,461.9581492000725,None,461.9581492000725,None,60,45,38,70,70,50,464.4715132000856,None,7.0,0.9218160999007523,464.4715132000856,None,464.4715132000856,None,464.4715132000856,None,464.4715132000856,None,None,None,465.41110850009136,None,,,,,,,134,f,1,2022_Dec_12_1641,RL,2021.2.3,59.94851618518137,
1,53,0,53,0,,,,,,,,,,,,,,,None,None,None,None,None,467.2453541001305,None,467.2453541001305,None,467.2453541001305,None,467.2453541001305,None,j,0.8439298998564482,467.2453541001305,None,467.2453541001305,None,468.1329936000984,None,468.1329936000984,None,468.1329936000984,None,468.1329936000984,None,468.1329936000984,None,468.1329936000984,None,468.42704840004444,None,468.42704840004444,None,470.0606601999607,None,470.0606601999607,None,470.0606601999607,None,470.0606601999607,None,470.0606601999607,None,470.0606601999607,None,470.0606601999607,None,470.0606601999607,None,470.0606601999607,None,49,59,38,69,69,46,472.5748016999569,None,7.0,3.1586374999023974,472.5748016999569,None,472.5748016999569,None,472.5748016999569,None,472.5748016999569,None,None,None,475.7534541999921,None,,,,,,,134,f,1,2022_Dec_12_1641,RL,2021.2.3,59.94851618518137,
1,54,0,54,0,,,,,,,,,,,,,,,None,None,None,None,None,477.50266070012003,None,477.50266070012003,None,477.50266070012003,None,477.50266070012003,None,j,0.8265337999910116,477.50266070012003,None,477.50266070012003,None,478.3698277999647,None,478.3698277999647,None,478.3698277999647,None,478.3698277999647,None,478.3698277999647,None,478.3698277999647,None,478.6673137000762,None,478.6673137000762,None,480.2501465000678,None,480.2501465000678,None,480.2501465000678,None,480.2501465000678,None,480.2501465000678,None,480.2501465000678,None,480.2501465000678,None,480.2501465000678,None,480.2501465000678,None,51,52,35,69,69,57,482.76583239994943,None,7.0,1.6726939000654966,482.76583239994943,None,482.76583239994943,None,482.76583239994943,None,482.76583239994943,None,None,None,484.4541349001229,None,,,,,,,134,f,1,2022_Dec_12_1641,RL,2021.2.3,59.94851618518137,
1,55,0,55,0,,,,,,,,,,,,,,,None,None,None,None,None,486.17576820007525,None,486.17576820007525,None,486.17576820007525,None,486.17576820007525,None,j,0.6034194999374449,486.17576820007525,None,486.17576820007525,None,486.8310110999737,None,486.8310110999737,None,486.8310110999737,None,486.8310110999737,None,486.8310110999737,None,486.8310110999737,None,487.1230498999357,488.3237536000088,487.1230498999357,488.3237536000088,488.3549842000939,None,488.3549842000939,None,488.3549842000939,None,488.3549842000939,None,488.3549842000939,None,488.3549842000939,None,488.3549842000939,None,488.3549842000939,None,488.3549842000939,None,53,50,36,67,67,75,490.8722286000848,None,7.0,1.7558496000710875,490.8722286000848,None,490.8722286000848,None,490.8722286000848,None,490.8722286000848,None,None,None,492.6472354999278,None,,,,,,,134,f,1,2022_Dec_12_1641,RL,2021.2.3,59.94851618518137,
1,56,0,56,0,,,,,,,,,,,,,,,None,None,None,None,None,494.18138570012525,None,494.18138570012525,None,494.18138570012525,None,494.18138570012525,None,r,0.4380526999011636,494.18138570012525,None,494.18138570012525,None,494.6667099001352,None,494.6667099001352,None,494.6667099001352,None,494.6667099001352,None,494.6667099001352,None,494.6667099001352,None,494.96214490011334,None,494.96214490011334,None,495.9748953001108,None,495.9748953001108,None,495.9748953001108,None,495.9748953001108,None,495.9748953001108,None,495.9748953001108,None,495.9748953001108,None,495.9748953001108,None,495.9748953001108,None,55,55,34,76,55,68,498.49313870002516,None,6.0,2.390252400189638,498.49313870002516,None,498.49313870002516,None,498.49313870002516,None,498.49313870002516,None,None,None,500.8990812001284,None,,,,,,,134,f,1,2022_Dec_12_1641,RL,2021.2.3,59.94851618518137,
1,57,0,57,0,,,,,,,,,,,,,,,None,None,None,None,None,502.787122100126,None,502.787122100126,None,502.787122100126,None,502.787122100126,None,j,0.8923841998912394,502.787122100126,None,502.787122100126,None,503.7278202001471,None,503.7278202001471,None,503.7278202001471,None,503.7278202001471,None,503.7278202001471,None,503.7278202001471,None,504.01839069998823,None,504.01839069998823,None,504.8871522999834,None,504.8871522999834,None,504.8871522999834,None,504.8871522999834,None,504.8871522999834,None,504.8871522999834,None,504.8871522999834,None,504.8871522999834,None,504.8871522999834,None,56,56,35,77,77,71,507.4013326000422,None,6.0,1.5998129998333752,507.4013326000422,None,507.4013326000422,None,507.4013326000422,None,507.4013326000422,None,None,None,509.02095929998904,None,,,,,,,134,f,1,2022_Dec_12_1641,RL,2021.2.3,59.94851618518137,
1,58,0,58,0,,,,,,,,,,,,,,,None,None,None,None,None,510.7762881000526,None,510.7762881000526,None,510.7762881000526,None,510.7762881000526,None,j,0.9931379000190645,510.7762881000526,None,510.7762881000526,None,511.8086350001395,None,511.8086350001395,None,511.8086350001395,None,511.8086350001395,None,511.8086350001395,None,511.8086350001395,None,512.1070833001286,None,512.1070833001286,None,513.9208728999365,None,513.9208728999365,None,513.9208728999365,None,513.9208728999365,None,513.9208728999365,None,513.9208728999365,None,513.9208728999365,None,513.9208728999365,None,513.9208728999365,None,46,54,39,71,71,55,516.4449223000556,None,6.0,1.8501387999858707,516.4449223000556,None,516.4449223000556,None,516.4449223000556,None,516.4449223000556,None,None,None,518.310893200105,None,,,,,,,134,f,1,2022_Dec_12_1641,RL,2021.2.3,59.94851618518137,
1,59,0,59,0,,,,,,,,,,,,,,,None,None,None,None,None,520.1654428001493,None,520.1654428001493,None,520.1654428001493,None,520.1654428001493,None,None,,520.1654428001493,None,520.1654428001493,None,None,None,None,None,None,None,None,None,None,None,None,None,None,None,None,None,None,None,None,None,None,None,None,None,None,None,None,None,None,None,None,None,None,None,43,60,40,65,0,**,None,None,None,None,None,None,None,None,None,None,None,None,521.7214111001231,None,526.2332103000954,None,,,,,,,134,f,1,2022_Dec_12_1641,RL,2021.2.3,59.94851618518137,
1,60,0,60,0,,,,,,,,,,,,,,,None,None,None,None,None,527.988034500042,None,527.988034500042,None,527.988034500042,None,527.988034500042,None,j,0.601546699879691,527.988034500042,None,527.988034500042,None,528.6410982999951,None,528.6410982999951,None,528.6410982999951,None,528.6410982999951,None,528.6410982999951,None,528.6410982999951,None,528.9354725000449,529.9026168999262,528.9354725000449,529.9026168999262,529.934788600076,None,529.934788600076,None,529.934788600076,None,529.934788600076,None,529.934788600076,None,529.934788600076,None,529.934788600076,None,529.934788600076,None,529.934788600076,None,54,57,38,67,67,52,532.4516443000175,None,5.0,1.7718001001048833,532.4516443000175,None,532.4516443000175,None,532.4516443000175,None,532.4516443000175,None,None,None,534.2385758000892,None,,,,,,,134,f,1,2022_Dec_12_1641,RL,2021.2.3,59.94851618518137,
1,61,0,61,0,,,,,,,,,,,,,,,None,None,None,None,None,535.9602407000493,None,535.9602407000493,None,535.9602407000493,None,535.9602407000493,None,j,0.2994208999443799,535.9602407000493,None,535.9602407000493,None,536.3595304000191,None,536.3595304000191,None,536.3595304000191,None,536.3595304000191,None,536.3595304000191,None,536.3595304000191,None,536.6573745999485,None,536.6573745999485,None,537.8100477000698,None,537.8100477000698,None,537.8100477000698,None,537.8100477000698,None,537.8100477000698,None,537.8100477000698,None,537.8100477000698,None,537.8100477000698,None,537.8100477000698,None,56,65,29,64,64,57,540.3217810001224,None,6.0,1.5899785000365227,540.3217810001224,None,540.3217810001224,None,540.3217810001224,None,540.3217810001224,None,None,None,541.9274343999568,None,,,,,,,134,f,1,2022_Dec_12_1641,RL,2021.2.3,59.94851618518137,
1,62,0,62,0,,,,,,,,,,,,,,,None,None,None,None,None,543.53174580005,None,543.53174580005,None,543.53174580005,None,543.53174580005,None,j,0.5880362999159843,543.53174580005,None,543.53174580005,None,544.1664237999357,None,544.1664237999357,None,544.1664237999357,None,544.1664237999357,None,544.1664237999357,None,544.1664237999357,None,544.4629102000035,None,544.4629102000035,None,545.6455232000444,None,545.6455232000444,None,545.6455232000444,None,545.6455232000444,None,545.6455232000444,None,545.6455232000444,None,545.6455232000444,None,545.6455232000444,None,545.6455232000444,None,60,68,28,67,67,58,548.1616158999968,None,6.0,1.1214552000164986,548.1616158999968,None,548.1616158999968,None,548.1616158999968,None,548.1616158999968,None,None,None,549.2990230000578,None,,,,,,,134,f,1,2022_Dec_12_1641,RL,2021.2.3,59.94851618518137,
1,63,0,63,0,,,,,,,,,,,,,,,None,None,None,None,None,551.271171499975,None,551.271171499975,None,551.271171499975,None,551.271171499975,None,j,0.9787634999956936,551.271171499975,None,551.271171499975,None,552.2907209999394,None,552.2907209999394,None,552.2907209999394,None,552.2907209999394,None,552.2907209999394,None,552.2907209999394,None,552.5851543000899,None,552.5851543000899,None,553.472216000082,None,553.472216000082,None,553.472216000082,None,553.472216000082,None,553.472216000082,None,553.472216000082,None,553.472216000082,None,553.472216000082,None,553.472216000082,None,65,54,32,59,59,55,555.9897978999652,None,5.0,1.2674911001231521,555.9897978999652,None,555.9897978999652,None,555.9897978999652,None,555.9897978999652,None,None,None,557.2713607000187,None,,,,,,,134,f,1,2022_Dec_12_1641,RL,2021.2.3,59.94851618518137,
1,64,0,64,0,,,,,,,,,,,,,,,None,None,None,None,None,558.908837400144,None,558.908837400144,None,558.908837400144,None,558.908837400144,None,j,0.32082759984768927,558.908837400144,None,558.908837400144,None,559.2799964000005,None,559.2799964000005,None,559.2799964000005,None,559.2799964000005,None,559.2799964000005,None,559.2799964000005,None,559.573412100086,561.4743961999193,559.573412100086,561.4743961999193,561.5075761999469,None,561.5075761999469,None,561.5075761999469,None,561.5075761999469,None,561.5075761999469,None,561.5075761999469,None,561.5075761999469,None,561.5075761999469,None,561.5075761999469,None,59,54,35,59,59,53,564.0226342999376,None,5.0,1.905777000123635,564.0226342999376,None,564.0226342999376,None,564.0226342999376,None,564.0226342999376,None,None,None,565.9439332999755,None,,,,,,,134,f,1,2022_Dec_12_1641,RL,2021.2.3,59.94851618518137,
1,65,0,65,0,,,,,,,,,,,,,,,None,None,None,None,None,567.6821334001143,None,567.6821334001143,None,567.6821334001143,None,567.6821334001143,None,j,0.41760289994999766,567.6821334001143,None,567.6821334001143,None,568.1497712000273,None,568.1497712000273,None,568.1497712000273,None,568.1497712000273,None,568.1497712000273,None,568.1497712000273,None,568.4461115000304,None,568.4461115000304,None,570.3600906999782,None,570.3600906999782,None,570.3600906999782,None,570.3600906999782,None,570.3600906999782,None,570.3600906999782,None,570.3600906999782,None,570.3600906999782,None,570.3600906999782,None,60,53,45,71,71,50,572.8793244999833,None,5.0,2.8718317998573184,572.8793244999833,None,572.8793244999833,None,572.8793244999833,None,572.8793244999833,None,None,None,575.7675032999832,None,,,,,,,134,f,1,2022_Dec_12_1641,RL,2021.2.3,59.94851618518137,
1,66,0,66,0,,,,,,,,,,,,,,,None,None,None,None,None,577.7217014001217,None,577.7217014001217,None,577.7217014001217,None,577.7217014001217,None,j,1.088121300097555,577.7217014001217,None,577.7217014001217,None,578.8578218999319,None,578.8578218999319,None,578.8578218999319,None,578.8578218999319,None,578.8578218999319,None,578.8578218999319,None,579.1535807000473,580.9880093000829,579.1535807000473,580.9880093000829,581.0246025000233,None,581.0246025000233,None,581.0246025000233,None,581.0246025000233,None,581.0246025000233,None,581.0246025000233,None,581.0246025000233,None,581.0246025000233,None,581.0246025000233,None,48,52,47,67,67,56,583.5338282000739,None,5.0,1.3239386999048293,583.5338282000739,None,583.5338282000739,None,583.5338282000739,None,583.5338282000739,None,None,None,584.8735632000025,None,,,,,,,134,f,1,2022_Dec_12_1641,RL,2021.2.3,59.94851618518137,
1,67,0,67,0,,,,,,,,,,,,,,,None,None,None,None,None,586.4112659001257,None,586.4112659001257,None,586.4112659001257,None,586.4112659001257,None,j,1.3085947998333722,586.4112659001257,None,586.4112659001257,None,587.7647812999785,None,587.7647812999785,None,587.7647812999785,None,587.7647812999785,None,587.7647812999785,None,587.7647812999785,None,588.0597771999892,None,588.0597771999892,None,589.5065576999914,None,589.5065576999914,None,589.5065576999914,None,589.5065576999914,None,589.5065576999914,None,589.5065576999914,None,589.5065576999914,None,589.5065576999914,None,589.5065576999914,None,54,56,47,79,79,47,592.0266935999971,None,4.0,1.7719217000994831,592.0266935999971,None,592.0266935999971,None,592.0266935999971,None,592.0266935999971,None,None,None,593.8131947999354,None,,,,,,,134,f,1,2022_Dec_12_1641,RL,2021.2.3,59.94851618518137,
1,68,0,68,0,,,,,,,,,,,,,,,None,None,None,None,None,595.5179922000971,None,595.5179922000971,None,595.5179922000971,None,595.5179922000971,None,j,0.4517091999296099,595.5179922000971,None,595.5179922000971,None,596.0249199999962,None,596.0249199999962,None,596.0249199999962,None,596.0249199999962,None,596.0249199999962,None,596.0249199999962,None,596.3155237999745,597.8331782000605,596.3155237999745,597.8331782000605,597.864668500144,None,597.864668500144,None,597.864668500144,None,597.864668500144,None,597.864668500144,None,597.864668500144,None,597.864668500144,None,597.864668500144,None,597.864668500144,None,43,57,45,70,70,41,600.3831768999808,None,5.0,2.269330699928105,600.3831768999808,None,600.3831768999808,None,600.3831768999808,None,600.3831768999808,None,None,None,602.6778291000519,None,,,,,,,134,f,1,2022_Dec_12_1641,RL,2021.2.3,59.94851618518137,
1,69,0,69,0,,,,,,,,,,,,,,,None,None,None,None,None,604.2749857001472,None,604.2749857001472,None,604.2749857001472,None,604.2749857001472,None,None,,604.2749857001472,None,604.2749857001472,None,None,None,None,None,None,None,None,None,None,None,None,None,None,None,None,None,None,None,None,None,None,None,None,None,None,None,None,None,None,None,None,None,None,None,56,61,48,75,0,**,None,None,None,None,None,None,None,None,None,None,None,None,605.8302200001199,None,610.3415187001228,None,,,,,,,134,f,1,2022_Dec_12_1641,RL,2021.2.3,59.94851618518137,
1,70,0,70,0,,,,,,,,,,,,,,,None,None,None,None,None,612.1291360000614,None,612.1291360000614,None,612.1291360000614,None,612.1291360000614,None,j,0.6606904999352992,612.1291360000614,None,612.1291360000614,None,612.8318652999587,None,612.8318652999587,None,612.8318652999587,None,612.8318652999587,None,612.8318652999587,None,612.8318652999587,None,613.1271615000442,None,613.1271615000442,None,614.0739180000965,None,614.0739180000965,None,614.0739180000965,None,614.0739180000965,None,614.0739180000965,None,614.0739180000965,None,614.0739180000965,None,614.0739180000965,None,614.0739180000965,None,56,55,53,67,67,54,616.5904391000513,None,6.0,1.909409300191328,616.5904391000513,None,616.5904391000513,None,616.5904391000513,None,616.5904391000513,None,None,None,618.5136766999494,None,,,,,,,134,f,1,2022_Dec_12_1641,RL,2021.2.3,59.94851618518137,
1,71,0,71,0,,,,,,,,,,,,,,,None,None,None,None,None,620.3188350999262,None,620.3188350999262,None,620.3188350999262,None,620.3188350999262,None,i,1.362431799992919,620.3188350999262,None,620.3188350999262,None,621.7218963999767,None,621.7218963999767,None,621.7218963999767,None,621.7218963999767,None,621.7218963999767,None,621.7218963999767,None,622.0165407999884,None,622.0165407999884,None,623.3781997999176,None,623.3781997999176,None,623.3781997999176,None,623.3781997999176,None,623.3781997999176,None,623.3781997999176,None,623.3781997999176,None,623.3781997999176,None,623.3781997999176,None,55,67,63,62,63,55,625.8990925999824,None,5.0,1.9718881000299007,625.8990925999824,None,625.8990925999824,None,625.8990925999824,None,625.8990925999824,None,None,None,627.88688799995,None,,,,,,,134,f,1,2022_Dec_12_1641,RL,2021.2.3,59.94851618518137,
1,72,0,72,0,,,,,,,,,,,,,,,None,None,None,None,None,629.7415796001442,None,629.7415796001442,None,629.7415796001442,None,629.7415796001442,None,j,0.7895323000848293,629.7415796001442,None,629.7415796001442,None,630.5766124001238,None,630.5766124001238,None,630.5766124001238,None,630.5766124001238,None,630.5766124001238,None,630.5766124001238,None,630.8726405999623,None,630.8726405999623,None,632.3721036000643,None,632.3721036000643,None,632.3721036000643,None,632.3721036000643,None,632.3721036000643,None,632.3721036000643,None,632.3721036000643,None,632.3721036000643,None,632.3721036000643,None,55,62,60,64,64,63,634.8949778000824,None,4.0,2.2515571999829262,634.8949778000824,None,634.8949778000824,None,634.8949778000824,None,634.8949778000824,None,None,None,637.1621691000182,None,,,,,,,134,f,1,2022_Dec_12_1641,RL,2021.2.3,59.94851618518137,
1,73,0,73,0,,,,,,,,,,,,,,,None,None,None,None,None,639.1316291999537,None,639.1316291999537,None,639.1316291999537,None,639.1316291999537,None,j,0.3997657001018524,639.1316291999537,None,639.1316291999537,None,639.5872408000287,None,639.5872408000287,None,639.5872408000287,None,639.5872408000287,None,639.5872408000287,None,639.5872408000287,None,639.8790353001095,641.7135080001317,639.8790353001095,641.7135080001317,641.7470303000882,None,641.7470303000882,None,641.7470303000882,None,641.7470303000882,None,641.7470303000882,None,641.7470303000882,None,641.7470303000882,None,641.7470303000882,None,641.7470303000882,None,58,50,59,66,66,51,644.261647199979,None,5.0,1.5729177000466734,644.261647199979,None,644.261647199979,None,644.261647199979,None,644.261647199979,None,None,None,645.8546732999384,None,,,,,,,134,f,1,2022_Dec_12_1641,RL,2021.2.3,59.94851618518137,
1,74,0,74,0,,,,,,,,,,,,,,,None,None,None,None,None,647.5693272999488,None,647.5693272999488,None,647.5693272999488,None,647.5693272999488,None,j,0.5816244001034647,647.5693272999488,None,647.5693272999488,None,648.1900581000373,None,648.1900581000373,None,648.1900581000373,None,648.1900581000373,None,648.1900581000373,None,648.1900581000373,None,648.4850032001268,None,648.4850032001268,None,650.2717904001474,None,650.2717904001474,None,650.2717904001474,None,650.2717904001474,None,650.2717904001474,None,650.2717904001474,None,650.2717904001474,None,650.2717904001474,None,650.2717904001474,None,49,50,57,77,77,63,652.7818315001205,None,6.0,1.3918608999811113,652.7818315001205,None,652.7818315001205,None,652.7818315001205,None,652.7818315001205,None,None,None,654.1931183999404,None,,,,,,,134,f,1,2022_Dec_12_1641,RL,2021.2.3,59.94851618518137,
1,75,0,75,0,,,,,,,,,,,,,,,656.1901012000162,None,q,656.1901012000162,None,706.4444204000756,None,706.4444204000756,None,706.4444204000756,None,706.4444204000756,None,i,0.8305109001230448,706.4444204000756,None,706.4444204000756,None,707.3116387999617,None,707.3116387999617,None,707.3116387999617,None,707.3116387999617,None,707.3116387999617,None,707.3116387999617,None,707.6093484000303,None,707.6093484000303,None,708.8737397000659,None,708.8737397000659,None,708.8737397000659,None,708.8737397000659,None,708.8737397000659,None,708.8737397000659,None,708.8737397000659,None,708.8737397000659,None,708.8737397000659,None,52,61,49,78,49,58,711.3951665000059,None,5.0,1.6007460998371243,711.3951665000059,None,711.3951665000059,None,711.3951665000059,None,711.3951665000059,None,None,None,713.0127229001373,None,50.22655349993147,,,,,,134,f,1,2022_Dec_12_1641,RL,2021.2.3,59.94851618518137,
1,76,0,76,0,,,,,,,,,,,,,,,None,None,None,None,None,714.716671000002,None,714.716671000002,None,714.716671000002,None,714.716671000002,None,j,0.3380356999114156,714.716671000002,None,714.716671000002,None,715.1087086999323,None,715.1087086999323,None,715.1087086999323,None,715.1087086999323,None,715.1087086999323,None,715.1087086999323,None,715.3981455001049,None,715.3981455001049,None,716.8776406000834,None,716.8776406000834,None,716.8776406000834,None,716.8776406000834,None,716.8776406000834,None,716.8776406000834,None,716.8776406000834,None,716.8776406000834,None,716.8776406000834,None,51,63,55,77,77,47,719.4010338000953,None,6.0,1.2689097998663783,719.4010338000953,None,719.4010338000953,None,719.4010338000953,None,719.4010338000953,None,None,None,720.684799300041,None,,,,,,,134,f,1,2022_Dec_12_1641,RL,2021.2.3,59.94851618518137,
1,77,0,77,0,,,,,,,,,,,,,,,None,None,None,None,None,722.6059115000535,None,722.6059115000535,None,722.6059115000535,None,722.6059115000535,None,j,0.33859729999676347,722.6059115000535,None,722.6059115000535,None,722.991448600078,None,722.991448600078,None,722.991448600078,None,722.991448600078,None,722.991448600078,None,722.991448600078,None,723.2868028001394,None,723.2868028001394,None,724.6022113999352,None,724.6022113999352,None,724.6022113999352,None,724.6022113999352,None,724.6022113999352,None,724.6022113999352,None,724.6022113999352,None,724.6022113999352,None,724.6022113999352,None,51,67,58,74,74,53,727.1229997000191,None,6.0,1.7840688000433147,727.1229997000191,None,727.1229997000191,None,727.1229997000191,None,727.1229997000191,None,None,None,728.9243666999973,None,,,,,,,134,f,1,2022_Dec_12_1641,RL,2021.2.3,59.94851618518137,
1,78,0,78,0,,,,,,,,,,,,,,,None,None,None,None,None,730.8283995999955,None,730.8283995999955,None,730.8283995999955,None,730.8283995999955,None,j,0.7267279999796301,730.8283995999955,None,730.8283995999955,None,731.5985775000881,None,731.5985775000881,None,731.5985775000881,None,731.5985775000881,None,731.5985775000881,None,731.5985775000881,None,731.8927677001338,733.7439288001042,731.8927677001338,733.7439288001042,733.7750663000625,None,733.7750663000625,None,733.7750663000625,None,733.7750663000625,None,733.7750663000625,None,733.7750663000625,None,733.7750663000625,None,733.7750663000625,None,733.7750663000625,None,43,65,43,67,67,66,736.291261699982,None,5.0,2.1188618999440223,736.291261699982,None,736.291261699982,None,736.291261699982,None,736.291261699982,None,None,None,738.4338980000466,None,,,,,,,134,f,1,2022_Dec_12_1641,RL,2021.2.3,59.94851618518137,
1,79,0,79,0,,,,,,,,,,,,,,,None,None,None,None,None,740.4181542999577,None,740.4181542999577,None,740.4181542999577,None,740.4181542999577,None,j,0.616793500026688,740.4181542999577,None,740.4181542999577,None,741.0918074001092,None,741.0918074001092,None,741.0918074001092,None,741.0918074001092,None,741.0918074001092,None,741.0918074001092,None,741.3826927000191,None,741.3826927000191,None,742.9643880999647,None,742.9643880999647,None,742.9643880999647,None,742.9643880999647,None,742.9643880999647,None,742.9643880999647,None,742.9643880999647,None,742.9643880999647,None,742.9643880999647,None,50,63,48,66,66,52,745.4818049999885,None,5.0,1.6076139002107084,745.4818049999885,None,745.4818049999885,None,745.4818049999885,None,745.4818049999885,None,None,None,747.112514999928,None,,,,,,,134,f,1,2022_Dec_12_1641,RL,2021.2.3,59.94851618518137,
1,80,0,80,0,,,,,,,,,,,,,,,None,None,None,None,None,748.9403781001456,None,748.9403781001456,None,748.9403781001456,None,748.9403781001456,None,f,0.4946582999546081,748.9403781001456,None,748.9403781001456,None,749.4755126000382,None,749.4755126000382,None,749.4755126000382,None,749.4755126000382,None,749.4755126000382,None,749.4755126000382,None,749.7717742000241,None,749.7717742000241,None,751.0437622000463,None,751.0437622000463,None,751.0437622000463,None,751.0437622000463,None,751.0437622000463,None,751.0437622000463,None,751.0437622000463,None,751.0437622000463,None,751.0437622000463,None,56,63,46,65,63,62,753.574944900116,None,4.0,1.5016149999573827,753.574944900116,None,753.574944900116,None,753.574944900116,None,753.574944900116,None,None,None,755.0920170000754,None,,,,,,,134,f,1,2022_Dec_12_1641,RL,2021.2.3,59.94851618518137,
1,81,0,81,0,,,,,,,,,,,,,,,None,None,None,None,None,757.0131705000531,None,757.0131705000531,None,757.0131705000531,None,757.0131705000531,None,r,0.5421984000131488,757.0131705000531,None,757.0131705000531,None,757.6006370000541,None,757.6006370000541,None,757.6006370000541,None,757.6006370000541,None,757.6006370000541,None,757.6006370000541,None,757.8774324001279,758.6945812001359,757.8774324001279,758.6945812001359,758.7452273999806,None,758.7452273999806,None,758.7452273999806,None,758.7452273999806,None,758.7452273999806,None,758.7452273999806,None,758.7452273999806,None,758.7452273999806,None,758.7452273999806,None,52,65,43,52,52,58,761.2600259999745,None,4.0,1.8706698999740183,761.2600259999745,None,761.2600259999745,None,761.2600259999745,None,761.2600259999745,None,None,None,763.1476064999588,None,,,,,,,134,f,1,2022_Dec_12_1641,RL,2021.2.3,59.94851618518137,
1,82,0,82,0,,,,,,,,,,,,,,,None,None,None,None,None,764.9355548999738,None,764.9355548999738,None,764.9355548999738,None,764.9355548999738,None,i,0.5395593999419361,764.9355548999738,None,764.9355548999738,None,765.5217023000587,None,765.5217023000587,None,765.5217023000587,None,765.5217023000587,None,765.5217023000587,None,765.5217023000587,None,765.8165480999742,None,765.8165480999742,None,766.6793573000468,None,766.6793573000468,None,766.6793573000468,None,766.6793573000468,None,766.6793573000468,None,766.6793573000468,None,766.6793573000468,None,766.6793573000468,None,766.6793573000468,None,62,62,40,52,40,32,769.2010067999363,None,4.0,1.4213906000368297,769.2010067999363,None,769.2010067999363,None,769.2010067999363,None,769.2010067999363,None,None,None,770.6407715000678,None,,,,,,,134,f,1,2022_Dec_12_1641,RL,2021.2.3,59.94851618518137,
1,83,0,83,0,,,,,,,,,,,,,,,None,None,None,None,None,772.5910384000745,None,772.5910384000745,None,772.5910384000745,None,772.5910384000745,None,j,0.504030599957332,772.5910384000745,None,772.5910384000745,None,773.1445665000938,None,773.1445665000938,None,773.1445665000938,None,773.1445665000938,None,773.1445665000938,None,773.1445665000938,None,773.4215901999269,775.272698600078,773.4215901999269,775.272698600078,775.3036400000565,None,775.3036400000565,None,775.3036400000565,None,775.3036400000565,None,775.3036400000565,None,775.3036400000565,None,775.3036400000565,None,775.3036400000565,None,775.3036400000565,None,53,54,42,59,59,52,777.818388100015,None,5.0,1.7718785000033677,777.818388100015,None,777.818388100015,None,777.818388100015,None,777.818388100015,None,None,None,779.6102181000169,None,,,,,,,134,f,1,2022_Dec_12_1641,RL,2021.2.3,59.94851618518137,
1,84,0,84,0,,,,,,,,,,,,,,,None,None,None,None,None,781.1798551999964,None,781.1798551999964,None,781.1798551999964,None,781.1798551999964,None,f,0.595558499917388,781.1798551999964,None,781.1798551999964,None,781.8163169000763,None,781.8163169000763,None,781.8163169000763,None,781.8163169000763,None,781.8163169000763,None,781.8163169000763,None,782.1111856000498,782.9781027000863,782.1111856000498,782.9781027000863,783.0074203000404,None,783.0074203000404,None,783.0074203000404,None,783.0074203000404,None,783.0074203000404,None,783.0074203000404,None,783.0074203000404,None,783.0074203000404,None,783.0074203000404,None,52,60,42,68,60,51,785.5267735000234,None,5.0,1.138189199846238,785.5267735000234,None,785.5267735000234,None,785.5267735000234,None,785.5267735000234,None,None,None,786.6801855999511,None,,,,,,,134,f,1,2022_Dec_12_1641,RL,2021.2.3,59.94851618518137,
1,85,0,85,0,,,,,,,,,,,,,,,None,None,None,None,None,788.5348372999579,None,788.5348372999579,None,788.5348372999579,None,788.5348372999579,None,j,0.3603761000558734,788.5348372999579,None,788.5348372999579,None,788.9366816000547,None,788.9366816000547,None,788.9366816000547,None,788.9366816000547,None,788.9366816000547,None,788.9366816000547,None,789.2325023000594,None,789.2325023000594,None,790.7146145999432,None,790.7146145999432,None,790.7146145999432,None,790.7146145999432,None,790.7146145999432,None,790.7146145999432,None,790.7146145999432,None,790.7146145999432,None,790.7146145999432,None,56,60,42,63,63,62,793.2308966999408,None,5.0,2.004467200022191,793.2308966999408,None,793.2308966999408,None,793.2308966999408,None,793.2308966999408,None,None,None,795.2534443000332,None,,,,,,,134,f,1,2022_Dec_12_1641,RL,2021.2.3,59.94851618518137,
1,86,0,86,0,,,,,,,,,,,,,,,None,None,None,None,None,797.0573168999981,None,797.0573168999981,None,797.0573168999981,None,797.0573168999981,None,j,0.3077650999184698,797.0573168999981,None,797.0573168999981,None,797.4189599000383,None,797.4189599000383,None,797.4189599000383,None,797.4189599000383,None,797.4189599000383,None,797.4189599000383,None,797.7052639001049,799.3228826001287,797.7052639001049,799.3228826001287,799.3519758000039,None,799.3519758000039,None,799.3519758000039,None,799.3519758000039,None,799.3519758000039,None,799.3519758000039,None,799.3519758000039,None,799.3519758000039,None,799.3519758000039,None,51,57,49,64,64,61,801.8722242000513,None,4.0,2.021047599846497,801.8722242000513,None,801.8722242000513,None,801.8722242000513,None,801.8722242000513,None,None,None,803.9088952001184,None,,,,,,,134,f,1,2022_Dec_12_1641,RL,2021.2.3,59.94851618518137,
1,87,0,87,0,,,,,,,,,,,,,,,None,None,None,None,None,805.8969471999444,None,805.8969471999444,None,805.8969471999444,None,805.8969471999444,None,j,0.3484031001571566,805.8969471999444,None,805.8969471999444,None,806.2834220000077,None,806.2834220000077,None,806.2834220000077,None,806.2834220000077,None,806.2834220000077,None,806.2834220000077,None,806.5779828999657,None,806.5779828999657,None,807.5736368000507,None,807.5736368000507,None,807.5736368000507,None,807.5736368000507,None,807.5736368000507,None,807.5736368000507,None,807.5736368000507,None,807.5736368000507,None,807.5736368000507,None,46,53,45,64,64,65,810.0814199000597,None,4.0,1.6823094999417663,810.0814199000597,None,810.0814199000597,None,810.0814199000597,None,810.0814199000597,None,None,None,811.7811740001198,None,,,,,,,134,f,1,2022_Dec_12_1641,RL,2021.2.3,59.94851618518137,
1,88,0,88,0,,,,,,,,,,,,,,,None,None,None,None,None,813.3416931999382,None,813.3416931999382,None,813.3416931999382,None,813.3416931999382,None,i,0.4239411000162363,813.3416931999382,None,813.3416931999382,None,813.8053494999185,None,813.8053494999185,None,813.8053494999185,None,813.8053494999185,None,813.8053494999185,None,813.8053494999185,None,814.0998245999217,None,814.0998245999217,None,815.7477065001149,None,815.7477065001149,None,815.7477065001149,None,815.7477065001149,None,815.7477065001149,None,815.7477065001149,None,815.7477065001149,None,815.7477065001149,None,815.7477065001149,None,56,48,47,54,47,58,818.2640796999913,None,4.0,2.140211099991575,818.2640796999913,None,818.2640796999913,None,818.2640796999913,None,818.2640796999913,None,None,None,820.4205209000502,None,,,,,,,134,f,1,2022_Dec_12_1641,RL,2021.2.3,59.94851618518137,
1,89,0,89,0,,,,,,,,,,,,,,,None,None,None,None,None,822.3263380001299,None,822.3263380001299,None,822.3263380001299,None,822.3263380001299,None,j,0.32881930004805326,822.3263380001299,None,822.3263380001299,None,822.6972978999838,None,822.6972978999838,None,822.6972978999838,None,822.6972978999838,None,822.6972978999838,None,822.6972978999838,None,822.9892621999606,None,822.9892621999606,None,824.3230534000322,None,824.3230534000322,None,824.3230534000322,None,824.3230534000322,None,824.3230534000322,None,824.3230534000322,None,824.3230534000322,None,824.3230534000322,None,824.3230534000322,None,48,62,48,64,64,57,826.8454847000539,None,5.0,1.9001901999581605,826.8454847000539,None,826.8454847000539,None,826.8454847000539,None,826.8454847000539,None,None,None,828.7596611001063,None,,,,,,,134,f,1,2022_Dec_12_1641,RL,2021.2.3,59.94851618518137,
1,90,0,90,0,,,,,,,,,,,,,,,None,None,None,None,None,830.3963689000811,None,830.3963689000811,None,830.3963689000811,None,830.3963689000811,None,j,0.8398741998244077,830.3963689000811,None,830.3963689000811,None,831.2840522001497,None,831.2840522001497,None,831.2840522001497,None,831.2840522001497,None,831.2840522001497,None,831.2840522001497,None,831.5785255001392,832.6625651000068,831.5785255001392,832.6625651000068,832.6933303000405,None,832.6933303000405,None,832.6933303000405,None,832.6933303000405,None,832.6933303000405,None,832.6933303000405,None,832.6933303000405,None,832.6933303000405,None,832.6933303000405,None,56,59,55,60,60,61,835.2154085999355,None,4.0,1.7027465000282973,835.2154085999355,None,835.2154085999355,None,835.2154085999355,None,835.2154085999355,None,None,None,836.9337407001294,None,,,,,,,134,f,1,2022_Dec_12_1641,RL,2021.2.3,59.94851618518137,
1,91,0,91,0,,,,,,,,,,,,,,,None,None,None,None,None,838.6029271001462,None,838.6029271001462,None,838.6029271001462,None,838.6029271001462,None,j,0.2834293998312205,838.6029271001462,None,838.6029271001462,None,838.939490100136,None,838.939490100136,None,838.939490100136,None,838.939490100136,None,838.939490100136,None,838.939490100136,None,839.2338402001187,None,839.2338402001187,None,840.9144751999993,None,840.9144751999993,None,840.9144751999993,None,840.9144751999993,None,840.9144751999993,None,840.9144751999993,None,840.9144751999993,None,840.9144751999993,None,840.9144751999993,None,64,58,54,57,57,61,843.4353891999926,None,4.0,1.3380416999571025,843.4353891999926,None,843.4353891999926,None,843.4353891999926,None,843.4353891999926,None,None,None,844.7880993001163,None,,,,,,,134,f,1,2022_Dec_12_1641,RL,2021.2.3,59.94851618518137,
1,92,0,92,0,,,,,,,,,,,,,,,None,None,None,None,None,846.7252231000457,None,846.7252231000457,None,846.7252231000457,None,846.7252231000457,None,f,0.33143489994108677,846.7252231000457,None,846.7252231000457,None,847.098746499978,None,847.098746499978,None,847.098746499978,None,847.098746499978,None,847.098746499978,None,847.098746499978,None,847.3894921001047,848.7570420000702,847.3894921001047,848.7570420000702,848.7871592999436,None,848.7871592999436,None,848.7871592999436,None,848.7871592999436,None,848.7871592999436,None,848.7871592999436,None,848.7871592999436,None,848.7871592999436,None,848.7871592999436,None,62,57,60,66,57,38,851.302492100047,None,5.0,0.9737637999933213,851.302492100047,None,851.302492100047,None,851.302492100047,None,851.302492100047,None,None,None,852.2926413000096,None,,,,,,,134,f,1,2022_Dec_12_1641,RL,2021.2.3,59.94851618518137,
1,93,0,93,0,,,,,,,,,,,,,,,None,None,None,None,None,854.16374800005,None,854.16374800005,None,854.16374800005,None,854.16374800005,None,f,0.3823972998652607,854.16374800005,None,854.16374800005,None,854.6009796001017,None,854.6009796001017,None,854.6009796001017,None,854.6009796001017,None,854.6009796001017,None,854.6009796001017,None,854.8780209000688,856.6293065999635,854.8780209000688,856.6293065999635,856.6652158000506,None,856.6652158000506,None,856.6652158000506,None,856.6652158000506,None,856.6652158000506,None,856.6652158000506,None,856.6652158000506,None,856.6652158000506,None,856.6652158000506,None,54,54,55,64,54,56,859.1771812001243,None,4.0,2.2539949999190867,859.1771812001243,None,859.1771812001243,None,859.1771812001243,None,859.1771812001243,None,None,None,861.4486783000175,None,,,,,,,134,f,1,2022_Dec_12_1641,RL,2021.2.3,59.94851618518137,
1,94,0,94,0,,,,,,,,,,,,,,,None,None,None,None,None,862.9694940999616,None,862.9694940999616,None,862.9694940999616,None,862.9694940999616,None,r,0.4067697999998927,862.9694940999616,None,862.9694940999616,None,863.4232272000518,None,863.4232272000518,None,863.4232272000518,None,863.4232272000518,None,863.4232272000518,None,863.4232272000518,None,863.7177732000127,None,863.7177732000127,None,864.9316746999975,None,864.9316746999975,None,864.9316746999975,None,864.9316746999975,None,864.9316746999975,None,864.9316746999975,None,864.9316746999975,None,864.9316746999975,None,864.9316746999975,None,44,46,62,66,44,47,867.4532886000816,None,3.0,1.6856523999013007,867.4532886000816,None,867.4532886000816,None,867.4532886000816,None,867.4532886000816,None,None,None,869.1544641000219,None,,,,,,,134,f,1,2022_Dec_12_1641,RL,2021.2.3,59.94851618518137,
1,95,0,95,0,,,,,,,,,,,,,,,None,None,None,None,None,870.8253721001092,None,870.8253721001092,None,870.8253721001092,None,870.8253721001092,None,j,0.3610932999290526,870.8253721001092,None,870.8253721001092,None,871.2274384000339,None,871.2274384000339,None,871.2274384000339,None,871.2274384000339,None,871.2274384000339,None,871.2274384000339,None,871.5232357000932,None,871.5232357000932,None,872.7770235999487,None,872.7770235999487,None,872.7770235999487,None,872.7770235999487,None,872.7770235999487,None,872.7770235999487,None,872.7770235999487,None,872.7770235999487,None,872.7770235999487,None,49,56,55,63,63,37,875.2942514999304,None,4.0,1.9012865000404418,875.2942514999304,None,875.2942514999304,None,875.2942514999304,None,875.2942514999304,None,None,None,877.2173121999949,None,,,,,,,134,f,1,2022_Dec_12_1641,RL,2021.2.3,59.94851618518137,
1,96,0,96,0,,,,,,,,,,,,,,,None,None,None,None,None,878.9644254001323,None,878.9644254001323,None,878.9644254001323,None,878.9644254001323,None,j,0.47223830013535917,878.9644254001323,None,878.9644254001323,None,879.486100600101,None,879.486100600101,None,879.486100600101,None,879.486100600101,None,879.486100600101,None,879.486100600101,None,879.7786367000081,881.1795805001166,879.7786367000081,881.1795805001166,881.2164295001421,None,881.2164295001421,None,881.2164295001421,None,881.2164295001421,None,881.2164295001421,None,881.2164295001421,None,881.2164295001421,None,881.2164295001421,None,881.2164295001421,None,59,42,54,57,57,58,883.7276324999984,None,4.0,1.4889271999709308,883.7276324999984,None,883.7276324999984,None,883.7276324999984,None,883.7276324999984,None,None,None,885.2321395000909,None,,,,,,,134,f,1,2022_Dec_12_1641,RL,2021.2.3,59.94851618518137,
1,97,0,97,0,,,,,,,,,,,,,,,None,None,None,None,None,886.9028717000037,None,886.9028717000037,None,886.9028717000037,None,886.9028717000037,None,i,0.4238957001361996,886.9028717000037,None,886.9028717000037,None,887.3830317000393,None,887.3830317000393,None,887.3830317000393,None,887.3830317000393,None,887.3830317000393,None,887.3830317000393,None,887.6674993000925,888.634648000123,887.6674993000925,888.634648000123,888.6691082001198,None,888.6691082001198,None,888.6691082001198,None,888.6691082001198,None,888.6691082001198,None,888.6691082001198,None,888.6691082001198,None,888.6691082001198,None,888.6691082001198,None,53,49,51,71,51,52,891.1836431999691,None,4.0,1.6053619999438524,891.1836431999691,None,891.1836431999691,None,891.1836431999691,None,891.1836431999691,None,None,None,892.804644000018,None,,,,,,,134,f,1,2022_Dec_12_1641,RL,2021.2.3,59.94851618518137,
1,98,0,98,0,,,,,,,,,,,,,,,None,None,None,None,None,894.6077974999789,None,894.6077974999789,None,894.6077974999789,None,894.6077974999789,None,j,0.5189793999306858,894.6077974999789,None,894.6077974999789,None,895.179803899955,None,895.179803899955,None,895.179803899955,None,895.179803899955,None,895.179803899955,None,895.179803899955,None,895.47278930014,897.1407530000433,895.47278930014,897.1407530000433,897.1708182001021,None,897.1708182001021,None,897.1708182001021,None,897.1708182001021,None,897.1708182001021,None,897.1708182001021,None,897.1708182001021,None,897.1708182001021,None,897.1708182001021,None,56,48,51,70,70,48,899.6895350001287,None,5.0,1.6033542000222951,899.6895350001287,None,899.6895350001287,None,899.6895350001287,None,899.6895350001287,None,None,None,901.3097570000682,None,,,,,,,134,f,1,2022_Dec_12_1641,RL,2021.2.3,59.94851618518137,
1,99,0,99,0,,,,,,,,,,,,,,,None,None,None,None,None,902.8639138001017,None,902.8639138001017,None,902.8639138001017,None,902.8639138001017,None,j,0.3727302001789212,902.8639138001017,None,902.8639138001017,None,903.2839164999314,None,903.2839164999314,None,903.2839164999314,None,903.2839164999314,None,903.2839164999314,None,903.2839164999314,None,903.5784782001283,None,903.5784782001283,None,905.1755407999735,None,905.1755407999735,None,905.1755407999735,None,905.1755407999735,None,905.1755407999735,None,905.1755407999735,None,905.1755407999735,None,905.1755407999735,None,905.1755407999735,None,56,45,52,67,67,49,907.6963398000225,None,6.0,1.7029303000308573,907.6963398000225,None,907.6963398000225,None,907.6963398000225,None,907.6963398000225,None,None,None,909.4151749000885,None,,,,,,,134,f,1,2022_Dec_12_1641,RL,2021.2.3,59.94851618518137,
1,100,0,100,0,,,,,,,,,,,,,,,None,None,None,None,None,911.1528415000066,None,911.1528415000066,None,911.1528415000066,None,911.1528415000066,None,j,0.36376850004307926,911.1528415000066,None,911.1528415000066,None,911.5563998001162,None,911.5563998001162,None,911.5563998001162,None,911.5563998001162,None,911.5563998001162,None,911.5563998001162,None,911.8508123999927,None,911.8508123999927,None,913.3698651001323,None,913.3698651001323,None,913.3698651001323,None,913.3698651001323,None,913.3698651001323,None,913.3698651001323,None,913.3698651001323,None,913.3698651001323,None,913.3698651001323,None,62,51,51,71,71,55,915.892109000124,None,6.0,1.0983653999865055,915.892109000124,None,915.892109000124,None,915.892109000124,None,915.892109000124,None,None,None,917.0038783000782,None,,,,,,,134,f,1,2022_Dec_12_1641,RL,2021.2.3,59.94851618518137,
1,101,0,101,0,,,,,,,,,,,,,,,None,None,None,None,None,918.7250145999715,None,918.7250145999715,None,918.7250145999715,None,918.7250145999715,None,j,0.4216627001296729,918.7250145999715,None,918.7250145999715,None,919.1941961999983,None,919.1941961999983,None,919.1941961999983,None,919.1941961999983,None,919.1941961999983,None,919.1941961999983,None,919.4894538000226,None,919.4894538000226,None,920.9256432000548,None,920.9256432000548,None,920.9256432000548,None,920.9256432000548,None,920.9256432000548,None,920.9256432000548,None,920.9256432000548,None,920.9256432000548,None,920.9256432000548,None,59,45,52,71,71,54,923.4388635000214,None,6.0,1.489617499988526,923.4388635000214,None,923.4388635000214,None,923.4388635000214,None,923.4388635000214,None,None,None,924.9438869999722,None,,,,,,,134,f,1,2022_Dec_12_1641,RL,2021.2.3,59.94851618518137,
1,102,0,102,0,,,,,,,,,,,,,,,None,None,None,None,None,926.5308143999428,None,926.5308143999428,None,926.5308143999428,None,926.5308143999428,None,j,0.9060881000477821,926.5308143999428,None,926.5308143999428,None,927.4839735999703,None,927.4839735999703,None,927.4839735999703,None,927.4839735999703,None,927.4839735999703,None,927.4839735999703,None,927.7787359000649,929.3462795000523,927.7787359000649,929.3462795000523,929.3779502001125,None,929.3779502001125,None,929.3779502001125,None,929.3779502001125,None,929.3779502001125,None,929.3779502001125,None,929.3779502001125,None,929.3779502001125,None,929.3779502001125,None,67,58,53,72,72,53,931.8945667999797,None,6.0,2.3243384999223053,931.8945667999797,None,931.8945667999797,None,931.8945667999797,None,931.8945667999797,None,None,None,934.2327566000167,None,,,,,,,134,f,1,2022_Dec_12_1641,RL,2021.2.3,59.94851618518137,
1,103,0,103,0,,,,,,,,,,,,,,,None,None,None,None,None,935.9530830001459,None,935.9530830001459,None,935.9530830001459,None,935.9530830001459,None,j,0.2537124000955373,935.9530830001459,None,935.9530830001459,None,936.2551285000518,None,936.2551285000518,None,936.2551285000518,None,936.2551285000518,None,936.2551285000518,None,936.2551285000518,None,936.551378400065,938.2689952999353,936.551378400065,938.2689952999353,938.3023936999962,None,938.3023936999962,None,938.3023936999962,None,938.3023936999962,None,938.3023936999962,None,938.3023936999962,None,938.3023936999962,None,938.3023936999962,None,938.3023936999962,None,61,45,53,73,73,53,940.8166968000587,None,6.0,1.456440499983728,940.8166968000587,None,940.8166968000587,None,940.8166968000587,None,940.8166968000587,None,None,None,942.2899448999669,None,,,,,,,134,f,1,2022_Dec_12_1641,RL,2021.2.3,59.94851618518137,
1,104,0,104,0,,,,,,,,,,,,,,,None,None,None,None,None,943.9928393000737,None,943.9928393000737,None,943.9928393000737,None,943.9928393000737,None,j,0.4342018000315875,943.9928393000737,None,943.9928393000737,None,944.4796696000267,None,944.4796696000267,None,944.4796696000267,None,944.4796696000267,None,944.4796696000267,None,944.4796696000267,None,944.7736102000345,945.6241041000467,944.7736102000345,945.6241041000467,945.6551056001335,None,945.6551056001335,None,945.6551056001335,None,945.6551056001335,None,945.6551056001335,None,945.6551056001335,None,945.6551056001335,None,945.6551056001335,None,945.6551056001335,None,65,52,54,74,74,52,948.1724781000521,None,5.0,1.8732697998639196,948.1724781000521,None,948.1724781000521,None,948.1724781000521,None,948.1724781000521,None,None,None,950.0602808999829,None,,,,,,,134,f,1,2022_Dec_12_1641,RL,2021.2.3,59.94851618518137,
1,105,0,105,0,,,,,,,,,,,,,,,None,None,None,None,None,951.7144468999468,None,951.7144468999468,None,951.7144468999468,None,951.7144468999468,None,j,0.4324668000917882,951.7144468999468,None,951.7144468999468,None,952.1997046000324,None,952.1997046000324,None,952.1997046000324,None,952.1997046000324,None,952.1997046000324,None,952.1997046000324,None,952.4959649001248,None,952.4959649001248,None,954.00176870008,None,954.00176870008,None,954.00176870008,None,954.00176870008,None,954.00176870008,None,954.00176870008,None,954.00176870008,None,954.00176870008,None,954.00176870008,None,48,44,57,72,72,63,956.5304475999437,None,5.0,1.586640699999407,956.5304475999437,None,956.5304475999437,None,956.5304475999437,None,956.5304475999437,None,None,None,958.1327027000953,None,,,,,,,134,f,1,2022_Dec_12_1641,RL,2021.2.3,59.94851618518137,
1,106,0,106,0,,,,,,,,,,,,,,,None,None,None,None,None,960.0874529001303,None,960.0874529001303,None,960.0874529001303,None,960.0874529001303,None,j,1.1296369000338018,960.0874529001303,None,960.0874529001303,None,961.2617707001045,None,961.2617707001045,None,961.2617707001045,None,961.2617707001045,None,961.2617707001045,None,961.2617707001045,None,961.5519898999482,963.3033722001128,961.5519898999482,963.3033722001128,963.3329861001112,None,963.3329861001112,None,963.3329861001112,None,963.3329861001112,None,963.3329861001112,None,963.3329861001112,None,963.3329861001112,None,963.3329861001112,None,963.3329861001112,None,58,40,53,76,76,63,965.8565390999429,None,6.0,1.585555800003931,965.8565390999429,None,965.8565390999429,None,965.8565390999429,None,965.8565390999429,None,None,None,967.4555717001203,None,,,,,,,134,f,1,2022_Dec_12_1641,RL,2021.2.3,59.94851618518137,
1,107,0,107,0,,,,,,,,,,,,,,,None,None,None,None,None,969.4278003000654,None,969.4278003000654,None,969.4278003000654,None,969.4278003000654,None,j,0.30935310013592243,969.4278003000654,None,969.4278003000654,None,969.7802826000843,None,969.7802826000843,None,969.7802826000843,None,969.7802826000843,None,969.7802826000843,None,969.7802826000843,None,970.0745256999508,None,970.0745256999508,None,971.8556713999715,None,971.8556713999715,None,971.8556713999715,None,971.8556713999715,None,971.8556713999715,None,971.8556713999715,None,971.8556713999715,None,971.8556713999715,None,971.8556713999715,None,56,45,43,66,66,65,974.3765887999907,None,5.0,1.4018099000677466,974.3765887999907,None,974.3765887999907,None,974.3765887999907,None,974.3765887999907,None,None,None,975.7956000000704,None,,,,,,,134,f,1,2022_Dec_12_1641,RL,2021.2.3,59.94851618518137,
1,108,0,108,0,,,,,,,,,,,,,,,None,None,None,None,None,977.599159100093,None,977.599159100093,None,977.599159100093,None,977.599159100093,None,j,0.33774430002085865,977.599159100093,None,977.599159100093,None,977.9848174999934,None,977.9848174999934,None,977.9848174999934,None,977.9848174999934,None,977.9848174999934,None,977.9848174999934,None,978.2801417999435,None,978.2801417999435,None,979.4952461000066,None,979.4952461000066,None,979.4952461000066,None,979.4952461000066,None,979.4952461000066,None,979.4952461000066,None,979.4952461000066,None,979.4952461000066,None,979.4952461000066,None,66,42,45,71,71,48,982.0132502999622,None,5.0,1.119200399843976,982.0132502999622,None,982.0132502999622,None,982.0132502999622,None,982.0132502999622,None,None,None,983.1498922000173,None,,,,,,,134,f,1,2022_Dec_12_1641,RL,2021.2.3,59.94851618518137,
1,109,0,109,0,,,,,,,,,,,,,,,None,None,None,None,None,984.7378026000224,None,984.7378026000224,None,984.7378026000224,None,984.7378026000224,None,j,0.5694345999509096,984.7378026000224,None,984.7378026000224,None,985.3658493999392,None,985.3658493999392,None,985.3658493999392,None,985.3658493999392,None,985.3658493999392,None,985.3658493999392,None,985.652169900015,987.5366050000302,985.652169900015,987.5366050000302,987.5725471000187,None,987.5725471000187,None,987.5725471000187,None,987.5725471000187,None,987.5725471000187,None,987.5725471000187,None,987.5725471000187,None,987.5725471000187,None,987.5725471000187,None,62,32,53,71,71,60,990.0840199999511,None,5.0,1.0223187999799848,990.0840199999511,None,990.0840199999511,None,990.0840199999511,None,990.0840199999511,None,None,None,991.1222650001291,None,,,,,,,134,f,1,2022_Dec_12_1641,RL,2021.2.3,59.94851618518137,
1,110,0,110,0,,,,,,,,,,,,,,,None,None,None,None,None,992.9765753999818,None,992.9765753999818,None,992.9765753999818,None,992.9765753999818,None,j,0.3214116001036018,992.9765753999818,None,992.9765753999818,None,993.3508949000388,None,993.3508949000388,None,993.3508949000388,None,993.3508949000388,None,993.3508949000388,None,993.3508949000388,None,993.6409271000884,995.4920399000403,993.6409271000884,995.4920399000403,995.5296380999498,None,995.5296380999498,None,995.5296380999498,None,995.5296380999498,None,995.5296380999498,None,995.5296380999498,None,995.5296380999498,None,995.5296380999498,None,995.5296380999498,None,64,38,45,66,66,66,998.0562468001153,None,5.0,1.0551172001287341,998.0562468001153,None,998.0562468001153,None,998.0562468001153,None,998.0562468001153,None,None,None,999.13509230013,None,,,,,,,134,f,1,2022_Dec_12_1641,RL,2021.2.3,59.94851618518137,
1,111,0,111,0,,,,,,,,,,,,,,,None,None,None,None,None,1000.7154343000147,None,1000.7154343000147,None,1000.7154343000147,None,1000.7154343000147,None,j,0.33285650005564094,1000.7154343000147,None,1000.7154343000147,None,1001.101987299975,None,1001.101987299975,None,1001.101987299975,None,1001.101987299975,None,1001.101987299975,None,1001.101987299975,None,1001.3962461000774,1002.4802618001122,1001.3962461000774,1002.4802618001122,1002.5110889999196,None,1002.5110889999196,None,1002.5110889999196,None,1002.5110889999196,None,1002.5110889999196,None,1002.5110889999196,None,1002.5110889999196,None,1002.5110889999196,None,1002.5110889999196,None,56,37,55,77,77,65,1005.0291975999717,None,6.0,1.838115399936214,1005.0291975999717,None,1005.0291975999717,None,1005.0291975999717,None,1005.0291975999717,None,None,None,1006.8829079000279,None,,,,,,,134,f,1,2022_Dec_12_1641,RL,2021.2.3,59.94851618518137,
1,112,0,112,0,,,,,,,,,,,,,,,None,None,None,None,None,1008.7042296000291,None,1008.7042296000291,None,1008.7042296000291,None,1008.7042296000291,None,j,0.3642650998663157,1008.7042296000291,None,1008.7042296000291,None,1009.1087863999419,None,1009.1087863999419,None,1009.1087863999419,None,1009.1087863999419,None,1009.1087863999419,None,1009.1087863999419,None,1009.3851447000634,1011.2196341000963,1009.3851447000634,1011.2196341000963,1011.2497819999699,None,1011.2497819999699,None,1011.2497819999699,None,1011.2497819999699,None,1011.2497819999699,None,1011.2497819999699,None,1011.2497819999699,None,1011.2497819999699,None,1011.2497819999699,None,67,31,42,78,78,52,1013.7670126999728,None,7.0,1.4227750999853015,1013.7670126999728,None,1013.7670126999728,None,1013.7670126999728,None,1013.7670126999728,None,None,None,1015.2054419999477,None,,,,,,,134,f,1,2022_Dec_12_1641,RL,2021.2.3,59.94851618518137,
