bandit,trials.thisRepN,trials.thisTrialN,trials.thisN,trials.thisIndex,instru_img1.started,instru_img1.stopped,instru_resp.keys,instru_resp.rt,instru_resp.started,instru_resp.stopped,instru_img2.started,instru_img2.stopped,instru_resp2.keys,instru_resp2.rt,instru_resp2.started,instru_resp2.stopped,fixbefore_2.started,fixbefore_2.stopped,rest_image.started,rest_image.stopped,rest_response.keys,rest_response.started,rest_response.stopped,red.started,red.stopped,green.started,green.stopped,yellow.started,yellow.stopped,blue.started,blue.stopped,choose_bandit.keys,choose_bandit.rt,choose_bandit.started,choose_bandit.stopped,Fixation.started,Fixation.stopped,black.started,black.stopped,red_2.started,red_2.stopped,green_2.started,green_2.stopped,yellow_2.started,yellow_2.stopped,blue_2.started,blue_2.stopped,fixation_2.started,fixation_2.stopped,docs.started,docs.stopped,image_2.started,image_2.stopped,black_com.started,black_com.stopped,reward_sub.started,reward_sub.stopped,palyerb.started,palyerb.stopped,reward__sub.started,reward__sub.stopped,compare.started,compare.stopped,red_compare.started,red_compare.stopped,green_com.started,green_com.stopped,yellow_com.started,yellow_com.stopped,blue_com.started,blue_com.stopped,rewardyellow,rewardred,rewardblue,rewardgreen,subchoose,playerb,image_3.started,image_3.stopped,slider.response,slider.rt,slider.started,slider.stopped,text.started,text.stopped,image_4.started,image_4.stopped,image_5.started,image_5.stopped,bigx.started,bigx.stopped,intertrialfix.started,intertrialfix.stopped,rest_response.rt,image.started,image.stopped,key_resp.keys,key_resp.started,key_resp.stopped,participant,Gender,Age,date,expName,psychopyVersion,frameRate,
,,,,,546.2887172999326,None,space,39.2180034997873,546.2887172999326,None,,,,,,,,,,,,,,,,,,,,,,,,,,,,,,,,,,,,,,,,,,,,,,,,,,,,,,,,,,,,,,,,,,,,,,,,,,,,,,,,,,,,,,,,,,135,f,1,2022_Dec_12_1737,RL,2021.2.3,59.91446615431703,
,,,,,,,,,,,585.5269359999802,None,space,87.51904469984584,585.5269359999802,None,,,,,,,,,,,,,,,,,,,,,,,,,,,,,,,,,,,,,,,,,,,,,,,,,,,,,,,,,,,,,,,,,,,,,,,,,,,,,,,,,,,,135,f,1,2022_Dec_12_1737,RL,2021.2.3,59.91446615431703,
1,0,0,0,0,,,,,,,,,,,,,673.0818848998751,None,None,None,None,None,None,674.1007922999561,None,674.1007922999561,None,674.1007922999561,None,674.1007922999561,None,r,1.1133698001503944,674.1007922999561,None,674.1007922999561,None,675.267656999873,None,675.267656999873,None,675.267656999873,None,675.267656999873,None,675.267656999873,None,675.267656999873,None,675.5539917999413,676.3713788997848,675.5539917999413,676.3713788997848,676.4198572998866,None,676.4198572998866,None,676.4198572998866,None,676.4198572998866,None,676.4198572998866,None,676.4198572998866,None,676.4198572998866,None,676.4198572998866,None,676.4198572998866,None,54,36,35,56,54,70,678.9451745999977,None,4.0,2.320280099986121,678.9451745999977,None,678.9451745999977,None,678.9451745999977,None,678.9451745999977,None,None,None,681.2976597999223,None,,,,,,,135,f,1,2022_Dec_12_1737,RL,2021.2.3,59.91446615431703,
1,1,0,1,0,,,,,,,,,,,,,,,None,None,None,None,None,682.8451119998936,None,682.8451119998936,None,682.8451119998936,None,682.8451119998936,None,i,0.6692816000431776,682.8451119998936,None,682.8451119998936,None,683.5666209999472,None,683.5666209999472,None,683.5666209999472,None,683.5666209999472,None,683.5666209999472,None,683.5666209999472,None,683.8430226999335,685.0271365998778,683.8430226999335,685.0271365998778,685.0629864998627,None,685.0629864998627,None,685.0629864998627,None,685.0629864998627,None,685.0629864998627,None,685.0629864998627,None,685.0629864998627,None,685.0629864998627,None,685.0629864998627,None,39,37,45,62,45,58,687.5842956998385,None,4.0,1.849536000052467,687.5842956998385,None,687.5842956998385,None,687.5842956998385,None,687.5842956998385,None,None,None,689.4466743997764,None,,,,,,,135,f,1,2022_Dec_12_1737,RL,2021.2.3,59.91446615431703,
1,2,0,2,0,,,,,,,,,,,,,,,None,None,None,None,None,691.2674228998367,None,691.2674228998367,None,691.2674228998367,None,691.2674228998367,None,j,0.49692169995978475,691.2674228998367,None,691.2674228998367,None,691.805869899923,None,691.805869899923,None,691.805869899923,None,691.805869899923,None,691.805869899923,None,691.805869899923,None,692.0822326999623,693.2828816999681,692.0822326999623,693.2828816999681,693.3357235998847,None,693.3357235998847,None,693.3357235998847,None,693.3357235998847,None,693.3357235998847,None,693.3357235998847,None,693.3357235998847,None,693.3357235998847,None,693.3357235998847,None,45,35,40,56,56,52,695.8525691998657,None,5.0,1.500727100064978,695.8525691998657,None,695.8525691998657,None,695.8525691998657,None,695.8525691998657,None,None,None,697.3687182997819,None,,,,,,,135,f,1,2022_Dec_12_1737,RL,2021.2.3,59.91446615431703,
1,3,0,3,0,,,,,,,,,,,,,,,None,None,None,None,None,699.1396284999792,None,699.1396284999792,None,699.1396284999792,None,699.1396284999792,None,f,0.5748471999540925,699.1396284999792,None,699.1396284999792,None,699.7614954998717,None,699.7614954998717,None,699.7614954998717,None,699.7614954998717,None,699.7614954998717,None,699.7614954998717,None,700.054307699902,701.2716560999397,700.054307699902,701.2716560999397,701.3041877998039,None,701.3041877998039,None,701.3041877998039,None,701.3041877998039,None,701.3041877998039,None,701.3041877998039,None,701.3041877998039,None,701.3041877998039,None,701.3041877998039,None,43,40,41,61,40,72,703.8198054998647,None,3.0,1.8384736999869347,703.8198054998647,None,703.8198054998647,None,703.8198054998647,None,703.8198054998647,None,None,None,705.6743734998163,None,,,,,,,135,f,1,2022_Dec_12_1737,RL,2021.2.3,59.91446615431703,
1,4,0,4,0,,,,,,,,,,,,,,,None,None,None,None,None,707.5119298999198,None,707.5119298999198,None,707.5119298999198,None,707.5119298999198,None,j,0.4924812000244856,707.5119298999198,None,707.5119298999198,None,708.0513537998777,None,708.0513537998777,None,708.0513537998777,None,708.0513537998777,None,708.0513537998777,None,708.0513537998777,None,708.3437009998597,709.9276987998746,708.3437009998597,709.9276987998746,709.960691299988,None,709.960691299988,None,709.960691299988,None,709.960691299988,None,709.960691299988,None,709.960691299988,None,709.960691299988,None,709.960691299988,None,709.960691299988,None,40,36,41,63,63,66,712.479178799782,None,4.0,1.62126909988001,712.479178799782,None,712.479178799782,None,712.479178799782,None,712.479178799782,None,None,None,714.1144539997913,None,,,,,,,135,f,1,2022_Dec_12_1737,RL,2021.2.3,59.91446615431703,
1,5,0,5,0,,,,,,,,,,,,,,,None,None,None,None,None,716.1182477998082,None,716.1182477998082,None,716.1182477998082,None,716.1182477998082,None,r,0.596107899909839,716.1182477998082,None,716.1182477998082,None,716.7584109997842,None,716.7584109997842,None,716.7584109997842,None,716.7584109997842,None,716.7584109997842,None,716.7584109997842,None,717.0494293998927,718.9672012999654,717.0494293998927,718.9672012999654,718.9958657999523,None,718.9958657999523,None,718.9958657999523,None,718.9958657999523,None,718.9958657999523,None,718.9958657999523,None,718.9958657999523,None,718.9958657999523,None,718.9958657999523,None,45,30,37,56,45,58,721.5155728999525,None,3.0,0.8887128999922425,721.5155728999525,None,721.5155728999525,None,721.5155728999525,None,721.5155728999525,None,None,None,722.4260126999579,None,,,,,,,135,f,1,2022_Dec_12_1737,RL,2021.2.3,59.91446615431703,
1,6,0,6,0,,,,,,,,,,,,,,,None,None,None,None,None,724.1572500998154,None,724.1572500998154,None,724.1572500998154,None,724.1572500998154,None,f,0.5974089000374079,724.1572500998154,None,724.1572500998154,None,724.7973832997959,None,724.7973832997959,None,724.7973832997959,None,724.7973832997959,None,724.7973832997959,None,724.7973832997959,None,725.0883159998339,725.9554467999842,725.0883159998339,725.9554467999842,725.9876453999896,None,725.9876453999896,None,725.9876453999896,None,725.9876453999896,None,725.9876453999896,None,725.9876453999896,None,725.9876453999896,None,725.9876453999896,None,725.9876453999896,None,50,35,37,59,35,65,728.5086824998725,None,2.0,0.7003273998852819,728.5086824998725,None,728.5086824998725,None,728.5086824998725,None,728.5086824998725,None,None,None,729.2241790997796,None,,,,,,,135,f,1,2022_Dec_12_1737,RL,2021.2.3,59.91446615431703,
1,7,0,7,0,,,,,,,,,,,,,,,None,None,None,None,None,731.1455424998421,None,731.1455424998421,None,731.1455424998421,None,731.1455424998421,None,i,0.4489293999504298,731.1455424998421,None,731.1455424998421,None,731.6462566999253,None,731.6462566999253,None,731.6462566999253,None,731.6462566999253,None,731.6462566999253,None,731.6462566999253,None,731.9430984999053,None,731.9430984999053,None,733.2274644998834,None,733.2274644998834,None,733.2274644998834,None,733.2274644998834,None,733.2274644998834,None,733.2274644998834,None,733.2274644998834,None,733.2274644998834,None,733.2274644998834,None,49,39,33,63,33,59,735.742087499937,None,2.0,0.6042820999864489,735.742087499937,None,735.742087499937,None,735.742087499937,None,735.742087499937,None,None,None,736.3712727997918,None,,,,,,,135,f,1,2022_Dec_12_1737,RL,2021.2.3,59.91446615431703,
1,8,0,8,0,,,,,,,,,,,,,,,None,None,None,None,None,737.9003905998543,None,737.9003905998543,None,737.9003905998543,None,737.9003905998543,None,r,0.4741136999800801,737.9003905998543,None,737.9003905998543,None,738.421580699971,None,738.421580699971,None,738.421580699971,None,738.421580699971,None,738.421580699971,None,738.421580699971,None,738.6977162999101,740.5325202997774,738.6977162999101,740.5325202997774,740.5857489998452,None,740.5857489998452,None,740.5857489998452,None,740.5857489998452,None,740.5857489998452,None,740.5857489998452,None,740.5857489998452,None,740.5857489998452,None,740.5857489998452,None,55,34,36,70,55,65,743.0980644999072,None,2.0,0.587561999913305,743.0980644999072,None,743.0980644999072,None,743.0980644999072,None,743.0980644999072,None,None,None,743.7005927998107,None,,,,,,,135,f,1,2022_Dec_12_1737,RL,2021.2.3,59.91446615431703,
1,9,0,9,0,,,,,,,,,,,,,,,None,None,None,None,None,745.4223103998229,None,745.4223103998229,None,745.4223103998229,None,745.4223103998229,None,j,0.3321549999527633,745.4223103998229,None,745.4223103998229,None,745.791552499868,None,745.791552499868,None,745.791552499868,None,745.791552499868,None,745.791552499868,None,745.791552499868,None,746.0862806998193,None,746.0862806998193,None,746.9531383998692,None,746.9531383998692,None,746.9531383998692,None,746.9531383998692,None,746.9531383998692,None,746.9531383998692,None,746.9531383998692,None,746.9531383998692,None,746.9531383998692,None,53,43,39,71,71,57,749.4682631997857,None,4.0,1.2886330999899656,749.4682631997857,None,749.4682631997857,None,749.4682631997857,None,749.4682631997857,None,None,None,750.7723459999543,None,,,,,,,135,f,1,2022_Dec_12_1737,RL,2021.2.3,59.91446615431703,
1,10,0,10,0,,,,,,,,,,,,,,,None,None,None,None,None,752.4267147998326,None,752.4267147998326,None,752.4267147998326,None,752.4267147998326,None,j,0.4589140999596566,752.4267147998326,None,752.4267147998326,None,752.9364837999456,None,752.9364837999456,None,752.9364837999456,None,752.9364837999456,None,752.9364837999456,None,752.9364837999456,None,753.2245170997921,755.1593259999063,753.2245170997921,755.1593259999063,755.1908751998562,None,755.1908751998562,None,755.1908751998562,None,755.1908751998562,None,755.1908751998562,None,755.1908751998562,None,755.1908751998562,None,755.1908751998562,None,755.1908751998562,None,58,34,45,74,74,55,757.706867699977,None,5.0,1.2241581999696791,757.706867699977,None,757.706867699977,None,757.706867699977,None,757.706867699977,None,None,None,758.9553460997995,None,,,,,,,135,f,1,2022_Dec_12_1737,RL,2021.2.3,59.91446615431703,
1,11,0,11,0,,,,,,,,,,,,,,,None,None,None,None,None,760.6328165999148,None,760.6328165999148,None,760.6328165999148,None,760.6328165999148,None,j,0.38281549979001284,760.6328165999148,None,760.6328165999148,None,761.0695100999437,None,761.0695100999437,None,761.0695100999437,None,761.0695100999437,None,761.0695100999437,None,761.0695100999437,None,761.363534099888,None,761.363534099888,None,762.4598540998995,None,762.4598540998995,None,762.4598540998995,None,762.4598540998995,None,762.4598540998995,None,762.4598540998995,None,762.4598540998995,None,762.4598540998995,None,762.4598540998995,None,53,33,39,72,72,66,764.9771219999529,None,5.0,0.5728983997832984,764.9771219999529,None,764.9771219999529,None,764.9771219999529,None,764.9771219999529,None,None,None,765.5659057998564,None,,,,,,,135,f,1,2022_Dec_12_1737,RL,2021.2.3,59.91446615431703,
1,12,0,12,0,,,,,,,,,,,,,,,None,None,None,None,None,767.4207882999908,None,767.4207882999908,None,767.4207882999908,None,767.4207882999908,None,j,0.3850100999698043,767.4207882999908,None,767.4207882999908,None,767.8595123998821,None,767.8595123998821,None,767.8595123998821,None,767.8595123998821,None,767.8595123998821,None,767.8595123998821,None,768.1515036998317,None,768.1515036998317,None,769.0987703998107,None,769.0987703998107,None,769.0987703998107,None,769.0987703998107,None,769.0987703998107,None,769.0987703998107,None,769.0987703998107,None,769.0987703998107,None,769.0987703998107,None,67,29,41,75,75,59,771.6189197998028,None,5.0,0.6208971999585629,771.6189197998028,None,771.6189197998028,None,771.6189197998028,None,771.6189197998028,None,None,None,772.2540327999741,None,,,,,,,135,f,1,2022_Dec_12_1737,RL,2021.2.3,59.91446615431703,
1,13,0,13,0,,,,,,,,,,,,,,,None,None,None,None,None,773.8410498998128,None,773.8410498998128,None,773.8410498998128,None,773.8410498998128,None,j,0.3445218000560999,773.8410498998128,None,773.8410498998128,None,774.2288525998592,None,774.2288525998592,None,774.2288525998592,None,774.2288525998592,None,774.2288525998592,None,774.2288525998592,None,774.5057796998881,776.0067599997856,774.5057796998881,776.0067599997856,776.0388080999255,None,776.0388080999255,None,776.0388080999255,None,776.0388080999255,None,776.0388080999255,None,776.0388080999255,None,776.0388080999255,None,776.0388080999255,None,776.0388080999255,None,58,42,33,71,71,26,778.5570708999876,None,6.0,1.0035917998757213,778.5570708999876,None,778.5570708999876,None,778.5570708999876,None,778.5570708999876,None,None,None,779.5756048997864,None,,,,,,,135,f,1,2022_Dec_12_1737,RL,2021.2.3,59.91446615431703,
1,14,0,14,0,,,,,,,,,,,,,,,None,None,None,None,None,781.5143086998723,None,781.5143086998723,None,781.5143086998723,None,781.5143086998723,None,j,0.371302800020203,781.5143086998723,None,781.5143086998723,None,781.9330811998807,None,781.9330811998807,None,781.9330811998807,None,781.9330811998807,None,781.9330811998807,None,781.9330811998807,None,782.2279379998799,None,782.2279379998799,None,783.5915033998899,None,783.5915033998899,None,783.5915033998899,None,783.5915033998899,None,783.5915033998899,None,783.5915033998899,None,783.5915033998899,None,783.5915033998899,None,783.5915033998899,None,66,41,31,80,80,61,786.111471499782,None,6.0,0.5376526999752969,786.111471499782,None,786.111471499782,None,786.111471499782,None,786.111471499782,None,None,None,786.6640461999923,None,,,,,,,135,f,1,2022_Dec_12_1737,RL,2021.2.3,59.91446615431703,
1,15,0,15,0,,,,,,,,,,,,,,,None,None,None,None,None,788.5349141999613,None,788.5349141999613,None,788.5349141999613,None,788.5349141999613,None,j,0.4308191000018269,788.5349141999613,None,788.5349141999613,None,789.0060651998501,None,789.0060651998501,None,789.0060651998501,None,789.0060651998501,None,789.0060651998501,None,789.0060651998501,None,789.2995113998186,None,789.2995113998186,None,791.2128828999121,None,791.2128828999121,None,791.2128828999121,None,791.2128828999121,None,791.2128828999121,None,791.2128828999121,None,791.2128828999121,None,791.2128828999121,None,791.2128828999121,None,70,36,31,66,66,56,793.7315912998747,None,4.0,1.2546753000933677,793.7315912998747,None,793.7315912998747,None,793.7315912998747,None,793.7315912998747,None,None,None,795.0032015999313,None,,,,,,,135,f,1,2022_Dec_12_1737,RL,2021.2.3,59.91446615431703,
1,16,0,16,0,,,,,,,,,,,,,,,None,None,None,None,None,796.8908385999966,None,796.8908385999966,None,796.8908385999966,None,796.8908385999966,None,j,0.32503340020775795,796.8908385999966,None,796.8908385999966,None,797.2585334999021,None,797.2585334999021,None,797.2585334999021,None,797.2585334999021,None,797.2585334999021,None,797.2585334999021,None,797.5550768999383,None,797.5550768999383,None,798.8213590998203,None,798.8213590998203,None,798.8213590998203,None,798.8213590998203,None,798.8213590998203,None,798.8213590998203,None,798.8213590998203,None,798.8213590998203,None,798.8213590998203,None,61,48,25,72,72,62,801.342510699993,None,5.0,0.9367763001937419,801.342510699993,None,801.342510699993,None,801.342510699993,None,801.342510699993,None,None,None,802.2977712999564,None,,,,,,,135,f,1,2022_Dec_12_1737,RL,2021.2.3,59.91446615431703,
1,17,0,17,0,,,,,,,,,,,,,,,None,None,None,None,None,804.2125908997841,None,804.2125908997841,None,804.2125908997841,None,804.2125908997841,None,j,0.42362289992161095,804.2125908997841,None,804.2125908997841,None,804.681990499841,None,804.681990499841,None,804.681990499841,None,804.681990499841,None,804.681990499841,None,804.681990499841,None,804.977074299939,806.1111104998272,804.977074299939,806.1111104998272,806.1432739999145,None,806.1432739999145,None,806.1432739999145,None,806.1432739999145,None,806.1432739999145,None,806.1432739999145,None,806.1432739999145,None,806.1432739999145,None,806.1432739999145,None,73,45,21,74,74,55,808.6594053998124,None,5.0,0.7535129000898451,808.6594053998124,None,808.6594053998124,None,808.6594053998124,None,808.6594053998124,None,None,None,809.4300530999899,None,,,,,,,135,f,1,2022_Dec_12_1737,RL,2021.2.3,59.91446615431703,
1,18,0,18,0,,,,,,,,,,,,,,,None,None,None,None,None,811.1512181998696,None,811.1512181998696,None,811.1512181998696,None,811.1512181998696,None,j,0.3446842001285404,811.1512181998696,None,811.1512181998696,None,811.5392903999891,None,811.5392903999891,None,811.5392903999891,None,811.5392903999891,None,811.5392903999891,None,811.5392903999891,None,811.8317934998777,812.9325515998062,811.8317934998777,812.9325515998062,812.9639065999072,None,812.9639065999072,None,812.9639065999072,None,812.9639065999072,None,812.9639065999072,None,812.9639065999072,None,812.9639065999072,None,812.9639065999072,None,812.9639065999072,None,64,49,23,73,73,52,815.4820284999441,None,6.0,0.8204876000527292,815.4820284999441,None,815.4820284999441,None,815.4820284999441,None,815.4820284999441,None,None,None,816.3264757997822,None,,,,,,,135,f,1,2022_Dec_12_1737,RL,2021.2.3,59.91446615431703,
1,19,0,19,0,,,,,,,,,,,,,,,None,None,None,None,None,818.1556558997836,None,818.1556558997836,None,818.1556558997836,None,818.1556558997836,None,j,0.41029719985090196,818.1556558997836,None,818.1556558997836,None,818.6171185998246,None,818.6171185998246,None,818.6171185998246,None,818.6171185998246,None,818.6171185998246,None,818.6171185998246,None,818.9033332997933,819.953937899787,818.9033332997933,819.953937899787,819.9867881999817,None,819.9867881999817,None,819.9867881999817,None,819.9867881999817,None,819.9867881999817,None,819.9867881999817,None,819.9867881999817,None,819.9867881999817,None,819.9867881999817,None,66,41,24,69,69,60,822.5012001998257,None,4.0,0.7231308999471366,822.5012001998257,None,822.5012001998257,None,822.5012001998257,None,822.5012001998257,None,None,None,823.2392465998419,None,,,,,,,135,f,1,2022_Dec_12_1737,RL,2021.2.3,59.91446615431703,
1,20,0,20,0,,,,,,,,,,,,,,,None,None,None,None,None,825.144000899978,None,825.144000899978,None,825.144000899978,None,825.144000899978,None,j,0.32193080009892583,825.144000899978,None,825.144000899978,None,825.5129973997828,None,825.5129973997828,None,825.5129973997828,None,825.5129973997828,None,825.5129973997828,None,825.5129973997828,None,825.8081533999648,827.0425223999191,825.8081533999648,827.0425223999191,827.0734566999599,None,827.0734566999599,None,827.0734566999599,None,827.0734566999599,None,827.0734566999599,None,827.0734566999599,None,827.0734566999599,None,827.0734566999599,None,827.0734566999599,None,67,39,32,62,62,49,829.593992699869,None,4.0,0.667830300051719,829.593992699869,None,829.593992699869,None,829.593992699869,None,829.593992699869,None,None,None,830.2776128998958,None,,,,,,,135,f,1,2022_Dec_12_1737,RL,2021.2.3,59.91446615431703,
1,21,0,21,0,,,,,,,,,,,,,,,None,None,None,None,None,832.1986868998501,None,832.1986868998501,None,832.1986868998501,None,832.1986868998501,None,j,0.30725189996883273,832.1986868998501,None,832.1986868998501,None,832.549760799855,None,832.549760799855,None,832.549760799855,None,832.549760799855,None,832.549760799855,None,832.549760799855,None,832.8462780998088,833.7467160997912,832.8462780998088,833.7467160997912,833.7769864997827,None,833.7769864997827,None,833.7769864997827,None,833.7769864997827,None,833.7769864997827,None,833.7769864997827,None,833.7769864997827,None,833.7769864997827,None,833.7769864997827,None,62,34,28,69,69,51,836.2943144999444,None,4.0,0.5234612999483943,836.2943144999444,None,836.2943144999444,None,836.2943144999444,None,836.2943144999444,None,None,None,836.8375194999389,None,,,,,,,135,f,1,2022_Dec_12_1737,RL,2021.2.3,59.91446615431703,
1,22,0,22,0,,,,,,,,,,,,,,,None,None,None,None,None,838.4877287999261,None,838.4877287999261,None,838.4877287999261,None,838.4877287999261,None,j,0.3983401001896709,838.4877287999261,None,838.4877287999261,None,838.9368992999662,None,838.9368992999662,None,838.9368992999662,None,838.9368992999662,None,838.9368992999662,None,838.9368992999662,None,839.2340124999173,None,839.2340124999173,None,840.9997068999801,None,840.9997068999801,None,840.9997068999801,None,840.9997068999801,None,840.9997068999801,None,840.9997068999801,None,840.9997068999801,None,840.9997068999801,None,840.9997068999801,None,61,48,36,64,64,65,843.5194516999181,None,4.0,0.6879021001514047,843.5194516999181,None,843.5194516999181,None,843.5194516999181,None,843.5194516999181,None,None,None,844.2267161000054,None,,,,,,,135,f,1,2022_Dec_12_1737,RL,2021.2.3,59.91446615431703,
1,23,0,23,0,,,,,,,,,,,,,,,None,None,None,None,None,846.1917855998036,None,846.1917855998036,None,846.1917855998036,None,846.1917855998036,None,j,0.3040593999903649,846.1917855998036,None,846.1917855998036,None,846.5436724999454,None,846.5436724999454,None,846.5436724999454,None,846.5436724999454,None,846.5436724999454,None,846.5436724999454,None,846.8393539998215,848.3404823997989,846.8393539998215,848.3404823997989,848.3781482998747,None,848.3781482998747,None,848.3781482998747,None,848.3781482998747,None,848.3781482998747,None,848.3781482998747,None,848.3781482998747,None,848.3781482998747,None,848.3781482998747,None,61,48,27,63,63,52,850.9051333998796,None,4.0,0.6217839999590069,850.9051333998796,None,850.9051333998796,None,850.9051333998796,None,850.9051333998796,None,None,None,851.5425038998947,None,,,,,,,135,f,1,2022_Dec_12_1737,RL,2021.2.3,59.91446615431703,
1,24,0,24,0,,,,,,,,,,,,,,,None,None,None,None,None,853.4634439998772,None,853.4634439998772,None,853.4634439998772,None,853.4634439998772,None,j,0.5328706000000238,853.4634439998772,None,853.4634439998772,None,854.0548673998564,None,854.0548673998564,None,854.0548673998564,None,854.0548673998564,None,854.0548673998564,None,854.0548673998564,None,854.3446386998985,855.27847749996,854.3446386998985,855.27847749996,855.3156916999724,None,855.3156916999724,None,855.3156916999724,None,855.3156916999724,None,855.3156916999724,None,855.3156916999724,None,855.3156916999724,None,855.3156916999724,None,855.3156916999724,None,69,45,25,60,60,55,857.8427692998666,None,4.0,0.4882205999456346,857.8427692998666,None,857.8427692998666,None,857.8427692998666,None,857.8427692998666,None,None,None,858.3469608000014,None,,,,,,,135,f,1,2022_Dec_12_1737,RL,2021.2.3,59.91446615431703,
1,25,0,25,0,,,,,,,,,,,,,,,None,None,None,None,None,860.1342648998834,None,860.1342648998834,None,860.1342648998834,None,860.1342648998834,None,j,0.30202169995754957,860.1342648998834,None,860.1342648998834,None,860.4897737998981,None,860.4897737998981,None,860.4897737998981,None,860.4897737998981,None,860.4897737998981,None,860.4897737998981,None,860.7826486998238,862.2999551999383,860.7826486998238,862.2999551999383,862.330581399845,None,862.330581399845,None,862.330581399845,None,862.330581399845,None,862.330581399845,None,862.330581399845,None,862.330581399845,None,862.330581399845,None,862.330581399845,None,70,45,25,61,61,58,864.8486075999681,None,4.0,0.453131299931556,864.8486075999681,None,864.8486075999681,None,864.8486075999681,None,864.8486075999681,None,None,None,865.318941099802,None,,,,,,,135,f,1,2022_Dec_12_1737,RL,2021.2.3,59.91446615431703,
1,26,0,26,0,,,,,,,,,,,,,,,None,None,None,None,None,867.1060002997983,None,867.1060002997983,None,867.1060002997983,None,867.1060002997983,None,j,0.40020269993692636,867.1060002997983,None,867.1060002997983,None,867.5576233000029,None,867.5576233000029,None,867.5576233000029,None,867.5576233000029,None,867.5576233000029,None,867.5576233000029,None,867.8539050999098,None,867.8539050999098,None,868.7011133998167,None,868.7011133998167,None,868.7011133998167,None,868.7011133998167,None,868.7011133998167,None,868.7011133998167,None,868.7011133998167,None,868.7011133998167,None,868.7011133998167,None,52,35,30,62,62,54,871.2201196998358,None,4.0,0.40525060007348657,871.2201196998358,None,871.2201196998358,None,871.2201196998358,None,871.2201196998358,None,None,None,871.6396761999931,None,,,,,,,135,f,1,2022_Dec_12_1737,RL,2021.2.3,59.91446615431703,
1,27,0,27,0,,,,,,,,,,,,,,,None,None,None,None,None,873.3772361997981,None,873.3772361997981,None,873.3772361997981,None,873.3772361997981,None,j,0.30907940003089607,873.3772361997981,None,873.3772361997981,None,873.7362791998312,None,873.7362791998312,None,873.7362791998312,None,873.7362791998312,None,873.7362791998312,None,873.7362791998312,None,874.0249801999889,None,874.0249801999889,None,875.8728332999162,None,875.8728332999162,None,875.8728332999162,None,875.8728332999162,None,875.8728332999162,None,875.8728332999162,None,875.8728332999162,None,875.8728332999162,None,875.8728332999162,None,59,32,33,53,53,50,878.3796660997905,None,4.0,0.48331900010816753,878.3796660997905,None,878.3796660997905,None,878.3796660997905,None,878.3796660997905,None,None,None,878.8781112998258,None,,,,,,,135,f,1,2022_Dec_12_1737,RL,2021.2.3,59.91446615431703,
1,28,0,28,0,,,,,,,,,,,,,,,None,None,None,None,None,880.7825128999539,None,880.7825128999539,None,880.7825128999539,None,880.7825128999539,None,j,0.3938843999058008,880.7825128999539,None,880.7825128999539,None,881.2166376998648,None,881.2166376998648,None,881.2166376998648,None,881.2166376998648,None,881.2166376998648,None,881.2166376998648,None,881.513437599875,None,881.513437599875,None,882.8784163999371,None,882.8784163999371,None,882.8784163999371,None,882.8784163999371,None,882.8784163999371,None,882.8784163999371,None,882.8784163999371,None,882.8784163999371,None,882.8784163999371,None,69,31,32,59,59,65,885.3963876999915,None,3.0,0.9380076001398265,885.3963876999915,None,885.3963876999915,None,885.3963876999915,None,885.3963876999915,None,None,None,886.3498267999385,None,,,,,,,135,f,1,2022_Dec_12_1737,RL,2021.2.3,59.91446615431703,
1,29,0,29,0,,,,,,,,,,,,,,,None,None,None,None,None,887.9370399999898,None,887.9370399999898,None,887.9370399999898,None,887.9370399999898,None,r,0.43912859982810915,887.9370399999898,None,887.9370399999898,None,888.422900499776,None,888.422900499776,None,888.422900499776,None,888.422900499776,None,888.422900499776,None,888.422900499776,None,888.7184344998095,None,888.7184344998095,None,889.6161911999807,None,889.6161911999807,None,889.6161911999807,None,889.6161911999807,None,889.6161911999807,None,889.6161911999807,None,889.6161911999807,None,889.6161911999807,None,889.6161911999807,None,64,36,31,56,64,31,892.134766299976,None,4.0,1.0051523998845369,892.134766299976,None,892.134766299976,None,892.134766299976,None,892.134766299976,None,None,None,893.1581760998815,None,,,,,,,135,f,1,2022_Dec_12_1737,RL,2021.2.3,59.91446615431703,
1,30,0,30,0,,,,,,,,,,,,,,,None,None,None,None,None,894.9423430999741,None,894.9423430999741,None,894.9423430999741,None,894.9423430999741,None,f,0.6641156000550836,894.9423430999741,None,894.9423430999741,None,895.6479816997889,None,895.6479816997889,None,895.6479816997889,None,895.6479816997889,None,895.6479816997889,None,895.6479816997889,None,895.9401420999784,896.807182499906,895.9401420999784,896.807182499906,896.8374751999509,None,896.8374751999509,None,896.8374751999509,None,896.8374751999509,None,896.8374751999509,None,896.8374751999509,None,896.8374751999509,None,896.8374751999509,None,896.8374751999509,None,65,36,32,50,36,51,899.3564311999362,None,3.0,0.7392249000258744,899.3564311999362,None,899.3564311999362,None,899.3564311999362,None,899.3564311999362,None,None,None,900.1094112999272,None,,,,,,,135,f,1,2022_Dec_12_1737,RL,2021.2.3,59.91446615431703,
1,31,0,31,0,,,,,,,,,,,,,,,None,None,None,None,None,901.6471701997798,None,901.6471701997798,None,901.6471701997798,None,901.6471701997798,None,i,0.679265899816528,901.6471701997798,None,901.6471701997798,None,902.3694584998302,None,902.3694584998302,None,902.3694584998302,None,902.3694584998302,None,902.3694584998302,None,902.3694584998302,None,902.6617277998012,903.7954314998351,902.6617277998012,903.7954314998351,903.8303286998998,None,903.8303286998998,None,903.8303286998998,None,903.8303286998998,None,903.8303286998998,None,903.8303286998998,None,903.8303286998998,None,903.8303286998998,None,903.8303286998998,None,58,39,44,44,44,44,906.3425921997987,None,3.0,0.9723839000798762,906.3425921997987,None,906.3425921997987,None,906.3425921997987,None,906.3425921997987,None,None,None,907.3309196999762,None,,,,,,,135,f,1,2022_Dec_12_1737,RL,2021.2.3,59.91446615431703,
1,32,0,32,0,,,,,,,,,,,,,,,None,None,None,None,None,908.8854448997881,None,908.8854448997881,None,908.8854448997881,None,908.8854448997881,None,j,0.30192269990220666,908.8854448997881,None,908.8854448997881,None,909.2374908998609,None,909.2374908998609,None,909.2374908998609,None,909.2374908998609,None,909.2374908998609,None,909.2374908998609,None,909.5332146999426,910.86695769988,909.5332146999426,910.86695769988,910.8988193999976,None,910.8988193999976,None,910.8988193999976,None,910.8988193999976,None,910.8988193999976,None,910.8988193999976,None,910.8988193999976,None,910.8988193999976,None,910.8988193999976,None,65,45,30,49,49,59,913.416056699818,None,3.0,0.6549579000566155,913.416056699818,None,913.416056699818,None,913.416056699818,None,913.416056699818,None,None,None,914.0853813998401,None,,,,,,,135,f,1,2022_Dec_12_1737,RL,2021.2.3,59.91446615431703,
1,33,0,33,0,,,,,,,,,,,,,,,None,None,None,None,None,916.0038770998362,None,916.0038770998362,None,916.0038770998362,None,916.0038770998362,None,r,0.4140155001077801,916.0038770998362,None,916.0038770998362,None,916.4598764998373,None,916.4598764998373,None,916.4598764998373,None,916.4598764998373,None,916.4598764998373,None,916.4598764998373,None,916.7546097999439,918.2054140998516,916.7546097999439,918.2054140998516,918.237439799821,None,918.237439799821,None,918.237439799821,None,918.237439799821,None,918.237439799821,None,918.237439799821,None,918.237439799821,None,918.237439799821,None,918.237439799821,None,60,46,38,52,60,54,920.7522576998454,None,4.0,1.2566186001058668,920.7522576998454,None,920.7522576998454,None,920.7522576998454,None,920.7522576998454,None,None,None,922.0243039999623,None,,,,,,,135,f,1,2022_Dec_12_1737,RL,2021.2.3,59.91446615431703,
1,34,0,34,0,,,,,,,,,,,,,,,None,None,None,None,None,923.895304299891,None,923.895304299891,None,923.895304299891,None,923.895304299891,None,r,0.3327194999437779,923.895304299891,None,923.895304299891,None,924.2657140998635,None,924.2657140998635,None,924.2657140998635,None,924.2657140998635,None,924.2657140998635,None,924.2657140998635,None,924.5599035997875,None,924.5599035997875,None,926.1749055997934,None,926.1749055997934,None,926.1749055997934,None,926.1749055997934,None,926.1749055997934,None,926.1749055997934,None,926.1749055997934,None,926.1749055997934,None,926.1749055997934,None,59,42,29,51,59,59,928.6964356999379,None,3.0,0.6488499999977648,928.6964356999379,None,928.6964356999379,None,928.6964356999379,None,928.6964356999379,None,None,None,929.3631988998968,None,,,,,,,135,f,1,2022_Dec_12_1737,RL,2021.2.3,59.91446615431703,
1,35,0,35,0,,,,,,,,,,,,,,,None,None,None,None,None,930.8836156998295,None,930.8836156998295,None,930.8836156998295,None,930.8836156998295,None,f,0.4239644999615848,930.8836156998295,None,930.8836156998295,None,931.3531065999996,None,931.3531065999996,None,931.3531065999996,None,931.3531065999996,None,931.3531065999996,None,931.3531065999996,None,931.6483920998871,None,931.6483920998871,None,932.9958940998185,None,932.9958940998185,None,932.9958940998185,None,932.9958940998185,None,932.9958940998185,None,932.9958940998185,None,932.9958940998185,None,932.9958940998185,None,932.9958940998185,None,60,46,41,45,46,58,935.5171610999387,None,3.0,0.5208650000859052,935.5171610999387,None,935.5171610999387,None,935.5171610999387,None,935.5171610999387,None,None,None,936.0580287999474,None,,,,,,,135,f,1,2022_Dec_12_1737,RL,2021.2.3,59.91446615431703,
1,36,0,36,0,,,,,,,,,,,,,,,None,None,None,None,None,937.9555680998601,None,937.9555680998601,None,937.9555680998601,None,937.9555680998601,None,j,0.2718332998920232,937.9555680998601,None,937.9555680998601,None,938.2752424997743,None,938.2752424997743,None,938.2752424997743,None,938.2752424997743,None,938.2752424997743,None,938.2752424997743,None,938.569696799852,940.4375066999346,938.569696799852,940.4375066999346,940.4741884998512,None,940.4741884998512,None,940.4741884998512,None,940.4741884998512,None,940.4741884998512,None,940.4741884998512,None,940.4741884998512,None,940.4741884998512,None,940.4741884998512,None,69,47,32,53,53,47,943.0054376998451,None,4.0,0.5683283000253141,943.0054376998451,None,943.0054376998451,None,943.0054376998451,None,943.0054376998451,None,None,None,943.5893870999571,None,,,,,,,135,f,1,2022_Dec_12_1737,RL,2021.2.3,59.91446615431703,
1,37,0,37,0,,,,,,,,,,,,,,,None,None,None,None,None,945.2776963999495,None,945.2776963999495,None,945.2776963999495,None,945.2776963999495,None,j,0.2799878001678735,945.2776963999495,None,945.2776963999495,None,945.5969832998235,None,945.5969832998235,None,945.5969832998235,None,945.5969832998235,None,945.5969832998235,None,945.5969832998235,None,945.8913343998138,None,945.8913343998138,None,947.4052295999136,None,947.4052295999136,None,947.4052295999136,None,947.4052295999136,None,947.4052295999136,None,947.4052295999136,None,947.4052295999136,None,947.4052295999136,None,947.4052295999136,None,61,52,38,49,49,53,949.9329734998755,None,3.0,0.9531105000060052,949.9329734998755,None,949.9329734998755,None,949.9329734998755,None,949.9329734998755,None,None,None,950.9001775998622,None,,,,,,,135,f,1,2022_Dec_12_1737,RL,2021.2.3,59.91446615431703,
1,38,0,38,0,,,,,,,,,,,,,,,None,None,None,None,None,952.882207499817,None,952.882207499817,None,952.882207499817,None,952.882207499817,None,r,0.305271599907428,952.882207499817,None,952.882207499817,None,953.2375286999159,None,953.2375286999159,None,953.2375286999159,None,953.2375286999159,None,953.2375286999159,None,953.2375286999159,None,953.5299820997752,None,953.5299820997752,None,954.3779216997791,None,954.3779216997791,None,954.3779216997791,None,954.3779216997791,None,954.3779216997791,None,954.3779216997791,None,954.3779216997791,None,954.3779216997791,None,954.3779216997791,None,61,49,35,55,61,60,956.8944552999455,None,4.0,0.8565211999230087,956.8944552999455,None,956.8944552999455,None,956.8944552999455,None,956.8944552999455,None,None,None,957.7658666998614,None,,,,,,,135,f,1,2022_Dec_12_1737,RL,2021.2.3,59.91446615431703,
1,39,0,39,0,,,,,,,,,,,,,,,None,None,None,None,None,959.370569499908,None,959.370569499908,None,959.370569499908,None,959.370569499908,None,r,0.2973258998245001,959.370569499908,None,959.370569499908,None,959.7061540998984,None,959.7061540998984,None,959.7061540998984,None,959.7061540998984,None,959.7061540998984,None,959.7061540998984,None,960.0012291998137,None,960.0012291998137,None,960.9311456999276,None,960.9311456999276,None,960.9311456999276,None,960.9311456999276,None,960.9311456999276,None,960.9311456999276,None,960.9311456999276,None,960.9311456999276,None,960.9311456999276,None,68,55,43,42,68,60,963.4501220998354,None,4.0,0.454931499902159,963.4501220998354,None,963.4501220998354,None,963.4501220998354,None,963.4501220998354,None,None,None,963.9201234998181,None,,,,,,,135,f,1,2022_Dec_12_1737,RL,2021.2.3,59.91446615431703,
1,40,0,40,0,,,,,,,,,,,,,,,None,None,None,None,None,965.7579272999428,None,965.7579272999428,None,965.7579272999428,None,965.7579272999428,None,r,0.3196062999777496,965.7579272999428,None,965.7579272999428,None,966.1357278998476,None,966.1357278998476,None,966.1357278998476,None,966.1357278998476,None,966.1357278998476,None,966.1357278998476,None,966.4223052999005,967.3729841997847,966.4223052999005,967.3729841997847,967.4040587998461,None,967.4040587998461,None,967.4040587998461,None,967.4040587998461,None,967.4040587998461,None,967.4040587998461,None,967.4040587998461,None,967.4040587998461,None,967.4040587998461,None,73,54,36,50,73,60,969.9232967998832,None,4.0,0.7854844001121819,969.9232967998832,None,969.9232967998832,None,969.9232967998832,None,969.9232967998832,None,None,None,970.7246216998901,None,,,,,,,135,f,1,2022_Dec_12_1737,RL,2021.2.3,59.91446615431703,
1,41,0,41,0,,,,,,,,,,,,,,,None,None,None,None,None,972.3793918997981,None,972.3793918997981,None,972.3793918997981,None,972.3793918997981,None,r,0.46858680015429854,972.3793918997981,None,972.3793918997981,None,972.901115299901,None,972.901115299901,None,972.901115299901,None,972.901115299901,None,972.901115299901,None,972.901115299901,None,973.1937301999424,None,973.1937301999424,None,975.1274482998997,None,975.1274482998997,None,975.1274482998997,None,975.1274482998997,None,975.1274482998997,None,975.1274482998997,None,975.1274482998997,None,975.1274482998997,None,975.1274482998997,None,68,58,18,50,68,57,977.6470058998093,None,5.0,0.8836449000518769,977.6470058998093,None,977.6470058998093,None,977.6470058998093,None,977.6470058998093,None,None,None,978.5468376998324,None,,,,,,,135,f,1,2022_Dec_12_1737,RL,2021.2.3,59.91446615431703,
1,42,0,42,0,,,,,,,,,,,,,,,None,None,None,None,None,980.1346443998627,None,980.1346443998627,None,980.1346443998627,None,980.1346443998627,None,r,0.34327400010079145,980.1346443998627,None,980.1346443998627,None,980.5256242998876,None,980.5256242998876,None,980.5256242998876,None,980.5256242998876,None,980.5256242998876,None,980.5256242998876,None,980.8156358997803,None,980.8156358997803,None,982.7303896998055,None,982.7303896998055,None,982.7303896998055,None,982.7303896998055,None,982.7303896998055,None,982.7303896998055,None,982.7303896998055,None,982.7303896998055,None,982.7303896998055,None,66,57,30,49,66,57,985.2483993999194,None,5.0,0.7058178998995572,985.2483993999194,None,985.2483993999194,None,985.2483993999194,None,985.2483993999194,None,None,None,985.9685585999396,None,,,,,,,135,f,1,2022_Dec_12_1737,RL,2021.2.3,59.91446615431703,
1,43,0,43,0,,,,,,,,,,,,,,,None,None,None,None,None,987.6392818999011,None,987.6392818999011,None,987.6392818999011,None,987.6392818999011,None,r,0.5088297999463975,987.6392818999011,None,987.6392818999011,None,988.1920314999297,None,988.1920314999297,None,988.1920314999297,None,988.1920314999297,None,988.1920314999297,None,988.1920314999297,None,988.4875701998826,None,988.4875701998826,None,989.7416116998065,None,989.7416116998065,None,989.7416116998065,None,989.7416116998065,None,989.7416116998065,None,989.7416116998065,None,989.7416116998065,None,989.7416116998065,None,989.7416116998065,None,71,53,22,47,71,64,992.2714129998349,None,6.0,0.8199516001623124,992.2714129998349,None,992.2714129998349,None,992.2714129998349,None,992.2714129998349,None,None,None,993.1068747998215,None,,,,,,,135,f,1,2022_Dec_12_1737,RL,2021.2.3,59.91446615431703,
1,44,0,44,0,,,,,,,,,,,,,,,None,None,None,None,None,995.0957869999111,None,995.0957869999111,None,995.0957869999111,None,995.0957869999111,None,r,0.29243250004947186,995.0957869999111,None,995.0957869999111,None,995.4311190999579,None,995.4311190999579,None,995.4311190999579,None,995.4311190999579,None,995.4311190999579,None,995.4311190999579,None,995.7259040998761,None,995.7259040998761,None,996.6220761998557,None,996.6220761998557,None,996.6220761998557,None,996.6220761998557,None,996.6220761998557,None,996.6220761998557,None,996.6220761998557,None,996.6220761998557,None,996.6220761998557,None,74,61,31,44,74,60,999.1410189999733,None,6.0,0.473867200082168,999.1410189999733,None,999.1410189999733,None,999.1410189999733,None,999.1410189999733,None,None,None,999.6289188999217,None,,,,,,,135,f,1,2022_Dec_12_1737,RL,2021.2.3,59.91446615431703,
1,45,0,45,0,,,,,,,,,,,,,,,None,None,None,None,None,1001.299625699874,None,1001.299625699874,None,1001.299625699874,None,1001.299625699874,None,r,0.3486180999316275,1001.299625699874,None,1001.299625699874,None,1001.7069955999032,None,1001.7069955999032,None,1001.7069955999032,None,1001.7069955999032,None,1001.7069955999032,None,1001.7069955999032,None,1001.9969853998628,None,1001.9969853998628,None,1003.0922423999291,None,1003.0922423999291,None,1003.0922423999291,None,1003.0922423999291,None,1003.0922423999291,None,1003.0922423999291,None,1003.0922423999291,None,1003.0922423999291,None,1003.0922423999291,None,67,53,29,47,67,29,1005.6131603999529,None,6.0,0.4559035000856966,1005.6131603999529,None,1005.6131603999529,None,1005.6131603999529,None,1005.6131603999529,None,None,None,1006.0823859998491,None,,,,,,,135,f,1,2022_Dec_12_1737,RL,2021.2.3,59.91446615431703,
1,46,0,46,0,,,,,,,,,,,,,,,None,None,None,None,None,1007.9700158999767,None,1007.9700158999767,None,1007.9700158999767,None,1007.9700158999767,None,r,0.3180331999901682,1007.9700158999767,None,1007.9700158999767,None,1008.3411394997966,None,1008.3411394997966,None,1008.3411394997966,None,1008.3411394997966,None,1008.3411394997966,None,1008.3411394997966,None,1008.6349427998066,None,1008.6349427998066,None,1009.6175667999778,None,1009.6175667999778,None,1009.6175667999778,None,1009.6175667999778,None,1009.6175667999778,None,1009.6175667999778,None,1009.6175667999778,None,1009.6175667999778,None,1009.6175667999778,None,66,61,23,50,66,55,1012.1343438997865,None,5.0,1.1697341999970376,1012.1343438997865,None,1012.1343438997865,None,1012.1343438997865,None,1012.1343438997865,None,None,None,1013.3208824999165,None,,,,,,,135,f,1,2022_Dec_12_1737,RL,2021.2.3,59.91446615431703,
1,47,0,47,0,,,,,,,,,,,,,,,None,None,None,None,None,1015.0426041998435,None,1015.0426041998435,None,1015.0426041998435,None,1015.0426041998435,None,r,0.3255350000690669,1015.0426041998435,None,1015.0426041998435,None,1015.4126787998248,None,1015.4126787998248,None,1015.4126787998248,None,1015.4126787998248,None,1015.4126787998248,None,1015.4126787998248,None,1015.706327599939,1017.6244138998445,1015.706327599939,1017.6244138998445,1017.6562692997977,None,1017.6562692997977,None,1017.6562692997977,None,1017.6562692997977,None,1017.6562692997977,None,1017.6562692997977,None,1017.6562692997977,None,1017.6562692997977,None,1017.6562692997977,None,59,57,29,39,59,47,1020.1726496999618,None,5.0,1.1379964998923242,1020.1726496999618,None,1020.1726496999618,None,1020.1726496999618,None,1020.1726496999618,None,None,None,1021.3265800999943,None,,,,,,,135,f,1,2022_Dec_12_1737,RL,2021.2.3,59.91446615431703,
1,48,0,48,0,,,,,,,,,,,,,,,None,None,None,None,None,1022.9481053999625,None,1022.9481053999625,None,1022.9481053999625,None,1022.9481053999625,None,r,0.27996419998817146,1022.9481053999625,None,1022.9481053999625,None,1023.2671418997925,None,1023.2671418997925,None,1023.2671418997925,None,1023.2671418997925,None,1023.2671418997925,None,1023.2671418997925,None,1023.5617655999959,None,1023.5617655999959,None,1024.9935042997822,None,1024.9935042997822,None,1024.9935042997822,None,1024.9935042997822,None,1024.9935042997822,None,1024.9935042997822,None,1024.9935042997822,None,1024.9935042997822,None,1024.9935042997822,None,67,52,24,46,67,61,1027.513395199785,None,4.0,0.5871196000371128,1027.513395199785,None,1027.513395199785,None,1027.513395199785,None,1027.513395199785,None,None,None,1028.1147132997867,None,,,,,,,135,f,1,2022_Dec_12_1737,RL,2021.2.3,59.91446615431703,
1,49,0,49,0,,,,,,,,,,,,,,,None,None,None,None,None,1029.9525607998949,None,1029.9525607998949,None,1029.9525607998949,None,1029.9525607998949,None,r,0.36580109992064536,1029.9525607998949,None,1029.9525607998949,None,1030.356881499989,None,1030.356881499989,None,1030.356881499989,None,1030.356881499989,None,1030.356881499989,None,1030.356881499989,None,1030.6335791999009,1032.3845308998134,1030.6335791999009,1032.3845308998134,1032.4329218999483,None,1032.4329218999483,None,1032.4329218999483,None,1032.4329218999483,None,1032.4329218999483,None,1032.4329218999483,None,1032.4329218999483,None,1032.4329218999483,None,1032.4329218999483,None,61,62,26,44,61,56,1034.9578346998896,None,4.0,0.8860617999453098,1034.9578346998896,None,1034.9578346998896,None,1034.9578346998896,None,1034.9578346998896,None,None,None,1035.8621733000036,None,,,,,,,135,f,1,2022_Dec_12_1737,RL,2021.2.3,59.91446615431703,
1,50,0,50,0,,,,,,,,,,,,,,,None,None,None,None,None,1037.841644999804,None,1037.841644999804,None,1037.841644999804,None,1037.841644999804,None,r,0.39642639993689954,1037.841644999804,None,1037.841644999804,None,1038.2768208999187,None,1038.2768208999187,None,1038.2768208999187,None,1038.2768208999187,None,1038.2768208999187,None,1038.2768208999187,None,1038.5723393999506,1039.389353199862,1038.5723393999506,1039.389353199862,1039.4208767998498,None,1039.4208767998498,None,1039.4208767998498,None,1039.4208767998498,None,1039.4208767998498,None,1039.4208767998498,None,1039.4208767998498,None,1039.4208767998498,None,1039.4208767998498,None,69,72,20,48,69,58,1041.944068199955,None,4.0,0.564124499913305,1041.944068199955,None,1041.944068199955,None,1041.944068199955,None,1041.944068199955,None,None,None,1042.5245276999194,None,,,,,,,135,f,1,2022_Dec_12_1737,RL,2021.2.3,59.91446615431703,
1,51,0,51,0,,,,,,,,,,,,,,,None,None,None,None,None,1044.4462475997861,None,1044.4462475997861,None,1044.4462475997861,None,1044.4462475997861,None,r,0.5218428999651223,1044.4462475997861,None,1044.4462475997861,None,1045.0157794998959,None,1045.0157794998959,None,1045.0157794998959,None,1045.0157794998959,None,1045.0157794998959,None,1045.0157794998959,None,1045.3103296998888,1046.2941934999544,1045.3103296998888,1046.2941934999544,1046.3272017999552,None,1046.3272017999552,None,1046.3272017999552,None,1046.3272017999552,None,1046.3272017999552,None,1046.3272017999552,None,1046.3272017999552,None,1046.3272017999552,None,1046.3272017999552,None,64,63,16,51,64,66,1048.8421478997916,None,3.0,0.6716839000582695,1048.8421478997916,None,1048.8421478997916,None,1048.8421478997916,None,1048.8421478997916,None,None,None,1049.529687799979,None,,,,,,,135,f,1,2022_Dec_12_1737,RL,2021.2.3,59.91446615431703,
1,52,0,52,0,,,,,,,,,,,,,,,None,None,None,None,None,1051.3675319999456,None,1051.3675319999456,None,1051.3675319999456,None,1051.3675319999456,None,j,0.29082290013320744,1051.3675319999456,None,1051.3675319999456,None,1051.7056808997877,None,1051.7056808997877,None,1051.7056808997877,None,1051.7056808997877,None,1051.7056808997877,None,1051.7056808997877,None,1051.9982005998027,None,1051.9982005998027,None,1053.9617078998126,None,1053.9617078998126,None,1053.9617078998126,None,1053.9617078998126,None,1053.9617078998126,None,1053.9617078998126,None,1053.9617078998126,None,1053.9617078998126,None,1053.9617078998126,None,46,60,18,57,57,35,1056.480663499795,None,4.0,0.5039540999568999,1056.480663499795,None,1056.480663499795,None,1056.480663499795,None,1056.480663499795,None,None,None,1057.0011702999473,None,,,,,,,135,f,1,2022_Dec_12_1737,RL,2021.2.3,59.91446615431703,
1,53,0,53,0,,,,,,,,,,,,,,,None,None,None,None,None,1058.906420899788,None,1058.906420899788,None,1058.906420899788,None,1058.906420899788,None,j,0.30196419986896217,1058.906420899788,None,1058.906420899788,None,1059.266489499947,None,1059.266489499947,None,1059.266489499947,None,1059.266489499947,None,1059.266489499947,None,1059.266489499947,None,1059.5540428999811,1060.9875761999283,1059.5540428999811,1060.9875761999283,1061.0258387997746,None,1061.0258387997746,None,1061.0258387997746,None,1061.0258387997746,None,1061.0258387997746,None,1061.0258387997746,None,1061.0258387997746,None,1061.0258387997746,None,1061.0258387997746,None,61,47,31,44,44,59,1063.5518677998334,None,3.0,0.9571423998568207,1063.5518677998334,None,1063.5518677998334,None,1063.5518677998334,None,1063.5518677998334,None,None,None,1064.5311038999353,None,,,,,,,135,f,1,2022_Dec_12_1737,RL,2021.2.3,59.91446615431703,
1,54,0,54,0,,,,,,,,,,,,,,,None,None,None,None,None,1066.2778558998834,None,1066.2778558998834,None,1066.2778558998834,None,1066.2778558998834,None,r,0.3115226998925209,1066.2778558998834,None,1066.2778558998834,None,1066.6319773998111,None,1066.6319773998111,None,1066.6319773998111,None,1066.6319773998111,None,1066.6319773998111,None,1066.6319773998111,None,1066.9252345999703,None,1066.9252345999703,None,1068.006774699781,None,1068.006774699781,None,1068.006774699781,None,1068.006774699781,None,1068.006774699781,None,1068.006774699781,None,1068.006774699781,None,1068.006774699781,None,1068.006774699781,None,48,49,29,51,48,33,1070.5243078998756,None,4.0,0.6716579999774694,1070.5243078998756,None,1070.5243078998756,None,1070.5243078998756,None,1070.5243078998756,None,None,None,1071.2192195998505,None,,,,,,,135,f,1,2022_Dec_12_1737,RL,2021.2.3,59.91446615431703,
1,55,0,55,0,,,,,,,,,,,,,,,None,None,None,None,None,1073.2162829998415,None,1073.2162829998415,None,1073.2162829998415,None,1073.2162829998415,None,r,0.32316799997352064,1073.2162829998415,None,1073.2162829998415,None,1073.5862612999044,None,1073.5862612999044,None,1073.5862612999044,None,1073.5862612999044,None,1073.5862612999044,None,1073.5862612999044,None,1073.8635623999871,1075.447705899831,1073.8635623999871,1075.447705899831,1075.495808799984,None,1075.495808799984,None,1075.495808799984,None,1075.495808799984,None,1075.495808799984,None,1075.495808799984,None,1075.495808799984,None,1075.495808799984,None,1075.495808799984,None,61,54,22,37,61,58,1078.0136213998776,None,4.0,1.0546558001078665,1078.0136213998776,None,1078.0136213998776,None,1078.0136213998776,None,1078.0136213998776,None,None,None,1079.0831167998258,None,,,,,,,135,f,1,2022_Dec_12_1737,RL,2021.2.3,59.91446615431703,
1,56,0,56,0,,,,,,,,,,,,,,,None,None,None,None,None,1081.03796779993,None,1081.03796779993,None,1081.03796779993,None,1081.03796779993,None,r,0.33210170012898743,1081.03796779993,None,1081.03796779993,None,1081.4239571997896,None,1081.4239571997896,None,1081.4239571997896,None,1081.4239571997896,None,1081.4239571997896,None,1081.4239571997896,None,1081.7189547999296,None,1081.7189547999296,None,1082.7326434999704,None,1082.7326434999704,None,1082.7326434999704,None,1082.7326434999704,None,1082.7326434999704,None,1082.7326434999704,None,1082.7326434999704,None,1082.7326434999704,None,1082.7326434999704,None,60,52,24,40,60,36,1085.2500567999668,None,5.0,0.7889263001270592,1085.2500567999668,None,1085.2500567999668,None,1085.2500567999668,None,1085.2500567999668,None,None,None,1086.054738599807,None,,,,,,,135,f,1,2022_Dec_12_1737,RL,2021.2.3,59.91446615431703,
1,57,0,57,0,,,,,,,,,,,,,,,None,None,None,None,None,1087.792088799877,None,1087.792088799877,None,1087.792088799877,None,1087.792088799877,None,r,0.32737870002165437,1087.792088799877,None,1087.792088799877,None,1088.1633543998469,None,1088.1633543998469,None,1088.1633543998469,None,1088.1633543998469,None,1088.1633543998469,None,1088.1633543998469,None,1088.4569193997886,None,1088.4569193997886,None,1089.456318399869,None,1089.456318399869,None,1089.456318399869,None,1089.456318399869,None,1089.456318399869,None,1089.456318399869,None,1089.456318399869,None,1089.456318399869,None,1089.456318399869,None,69,56,22,35,69,34,1091.9771502998192,None,5.0,0.6853114999830723,1091.9771502998192,None,1091.9771502998192,None,1091.9771502998192,None,1091.9771502998192,None,None,None,1092.6852292998228,None,,,,,,,135,f,1,2022_Dec_12_1737,RL,2021.2.3,59.91446615431703,
1,58,0,58,0,,,,,,,,,,,,,,,None,None,None,None,None,1094.6137299998663,None,1094.6137299998663,None,1094.6137299998663,None,1094.6137299998663,None,r,0.3658678999636322,1094.6137299998663,None,1094.6137299998663,None,1095.0186488998588,None,1095.0186488998588,None,1095.0186488998588,None,1095.0186488998588,None,1095.0186488998588,None,1095.0186488998588,None,1095.311654199846,None,1095.311654199846,None,1096.6943892999552,None,1096.6943892999552,None,1096.6943892999552,None,1096.6943892999552,None,1096.6943892999552,None,1096.6943892999552,None,1096.6943892999552,None,1096.6943892999552,None,1096.6943892999552,None,53,56,30,36,53,61,1099.2115105998237,None,4.0,0.8733561001718044,1099.2115105998237,None,1099.2115105998237,None,1099.2115105998237,None,1099.2115105998237,None,None,None,1100.1056079999544,None,,,,,,,135,f,1,2022_Dec_12_1737,RL,2021.2.3,59.91446615431703,
1,59,0,59,0,,,,,,,,,,,,,,,None,None,None,None,None,1101.936328599928,None,1101.936328599928,None,1101.936328599928,None,1101.936328599928,None,r,0.3635919000953436,1101.936328599928,None,1101.936328599928,None,1102.3401369999629,None,1102.3401369999629,None,1102.3401369999629,None,1102.3401369999629,None,1102.3401369999629,None,1102.3401369999629,None,1102.6167274999898,1103.8005613998976,1102.6167274999898,1103.8005613998976,1103.851022399962,None,1103.851022399962,None,1103.851022399962,None,1103.851022399962,None,1103.851022399962,None,1103.851022399962,None,1103.851022399962,None,1103.851022399962,None,1103.851022399962,None,66,58,33,33,66,77,1106.3666838998906,None,3.0,0.6533192999195307,1106.3666838998906,None,1106.3666838998906,None,1106.3666838998906,None,1106.3666838998906,None,None,None,1107.0360094998032,None,,,,,,,135,f,1,2022_Dec_12_1737,RL,2021.2.3,59.91446615431703,
1,60,0,60,0,,,,,,,,,,,,,,,None,None,None,None,None,1108.6075435997918,None,1108.6075435997918,None,1108.6075435997918,None,1108.6075435997918,None,j,0.2920374001841992,1108.6075435997918,None,1108.6075435997918,None,1108.9451492999215,None,1108.9451492999215,None,1108.9451492999215,None,1108.9451492999215,None,1108.9451492999215,None,1108.9451492999215,None,1109.2212908999063,1110.6554032999557,1109.2212908999063,1110.6554032999557,1110.6860225999262,None,1110.6860225999262,None,1110.6860225999262,None,1110.6860225999262,None,1110.6860225999262,None,1110.6860225999262,None,1110.6860225999262,None,1110.6860225999262,None,1110.6860225999262,None,56,54,27,40,40,65,1113.2049887999892,None,2.0,1.0371354001108557,1113.2049887999892,None,1113.2049887999892,None,1113.2049887999892,None,1113.2049887999892,None,None,None,1114.2577964998782,None,,,,,,,135,f,1,2022_Dec_12_1737,RL,2021.2.3,59.91446615431703,
1,61,0,61,0,,,,,,,,,,,,,,,None,None,None,None,None,1116.2291470000055,None,1116.2291470000055,None,1116.2291470000055,None,1116.2291470000055,None,i,0.3104763999581337,1116.2291470000055,None,1116.2291470000055,None,1116.5890614998061,None,1116.5890614998061,None,1116.5890614998061,None,1116.5890614998061,None,1116.5890614998061,None,1116.5890614998061,None,1116.8764974998776,1117.9607295999303,1116.8764974998776,1117.9607295999303,1117.995129399933,None,1117.995129399933,None,1117.995129399933,None,1117.995129399933,None,1117.995129399933,None,1117.995129399933,None,1117.995129399933,None,1117.995129399933,None,1117.995129399933,None,59,69,32,38,32,66,1120.5120613998733,None,2.0,0.6207057998981327,1120.5120613998733,None,1120.5120613998733,None,1120.5120613998733,None,1120.5120613998733,None,None,None,1121.1503168998752,None,,,,,,,135,f,1,2022_Dec_12_1737,RL,2021.2.3,59.91446615431703,
1,62,0,62,0,,,,,,,,,,,,,,,None,None,None,None,None,1122.9172987998463,None,1122.9172987998463,None,1122.9172987998463,None,1122.9172987998463,None,f,0.3324994998984039,1122.9172987998463,None,1122.9172987998463,None,1123.30299739982,None,1123.30299739982,None,1123.30299739982,None,1123.30299739982,None,1123.30299739982,None,1123.30299739982,None,1123.5978947998956,None,1123.5978947998956,None,1125.0130561999977,None,1125.0130561999977,None,1125.0130561999977,None,1125.0130561999977,None,1125.0130561999977,None,1125.0130561999977,None,1125.0130561999977,None,1125.0130561999977,None,1125.0130561999977,None,62,55,29,34,55,25,1127.5304792998359,None,4.0,1.0881783999502659,1127.5304792998359,None,1127.5304792998359,None,1127.5304792998359,None,1127.5304792998359,None,None,None,1128.634763599839,None,,,,,,,135,f,1,2022_Dec_12_1737,RL,2021.2.3,59.91446615431703,
1,63,0,63,0,,,,,,,,,,,,,,,None,None,None,None,None,1130.5553827998228,None,1130.5553827998228,None,1130.5553827998228,None,1130.5553827998228,None,f,0.2843755001667887,1130.5553827998228,None,1130.5553827998228,None,1130.9362845998257,None,1130.9362845998257,None,1130.9362845998257,None,1130.9362845998257,None,1130.9362845998257,None,1130.9362845998257,None,1131.2365242999513,None,1131.2365242999513,None,1132.6983808998484,None,1132.6983808998484,None,1132.6983808998484,None,1132.6983808998484,None,1132.6983808998484,None,1132.6983808998484,None,1132.6983808998484,None,1132.6983808998484,None,1132.6983808998484,None,61,70,33,33,70,54,1135.2181894998066,None,5.0,1.1220774000976235,1135.2181894998066,None,1135.2181894998066,None,1135.2181894998066,None,1135.2181894998066,None,None,None,1136.3561918998603,None,,,,,,,135,f,1,2022_Dec_12_1737,RL,2021.2.3,59.91446615431703,
1,64,0,64,0,,,,,,,,,,,,,,,None,None,None,None,None,1138.0941759999841,None,1138.0941759999841,None,1138.0941759999841,None,1138.0941759999841,None,f,0.28553149988874793,1138.0941759999841,None,1138.0941759999841,None,1138.428862300003,None,1138.428862300003,None,1138.428862300003,None,1138.428862300003,None,1138.428862300003,None,1138.428862300003,None,1138.7250507997815,None,1138.7250507997815,None,1140.5230521999765,None,1140.5230521999765,None,1140.5230521999765,None,1140.5230521999765,None,1140.5230521999765,None,1140.5230521999765,None,1140.5230521999765,None,1140.5230521999765,None,1140.5230521999765,None,65,65,25,39,65,49,1143.0413493998349,None,5.0,1.0887830001302063,1143.0413493998349,None,1143.0413493998349,None,1143.0413493998349,None,1143.0413493998349,None,None,None,1144.1457974999212,None,,,,,,,135,f,1,2022_Dec_12_1737,RL,2021.2.3,59.91446615431703,
1,65,0,65,0,,,,,,,,,,,,,,,None,None,None,None,None,1145.8995764998253,None,1145.8995764998253,None,1145.8995764998253,None,1145.8995764998253,None,f,0.49024890013970435,1145.8995764998253,None,1145.8995764998253,None,1146.4363554997835,None,1146.4363554997835,None,1146.4363554997835,None,1146.4363554997835,None,1146.4363554997835,None,1146.4363554997835,None,1146.7306651999243,None,1146.7306651999243,None,1148.4952455998864,None,1148.4952455998864,None,1148.4952455998864,None,1148.4952455998864,None,1148.4952455998864,None,1148.4952455998864,None,1148.4952455998864,None,1148.4952455998864,None,1148.4952455998864,None,62,57,35,43,57,44,1151.0137009997852,None,4.0,0.5377433998510242,1151.0137009997852,None,1151.0137009997852,None,1151.0137009997852,None,1151.0137009997852,None,None,None,1151.5674264999107,None,,,,,,,135,f,1,2022_Dec_12_1737,RL,2021.2.3,59.91446615431703,
1,66,0,66,0,,,,,,,,,,,,,,,None,None,None,None,None,1153.2377753998153,None,1153.2377753998153,None,1153.2377753998153,None,1153.2377753998153,None,f,0.33208449999801815,1153.2377753998153,None,1153.2377753998153,None,1153.6073716999963,None,1153.6073716999963,None,1153.6073716999963,None,1153.6073716999963,None,1153.6073716999963,None,1153.6073716999963,None,1153.9023341999855,None,1153.9023341999855,None,1155.3838889999315,None,1155.3838889999315,None,1155.3838889999315,None,1155.3838889999315,None,1155.3838889999315,None,1155.3838889999315,None,1155.3838889999315,None,1155.3838889999315,None,1155.3838889999315,None,60,61,28,36,61,38,1157.9012017999776,None,5.0,0.5554058998823166,1157.9012017999776,None,1157.9012017999776,None,1157.9012017999776,None,1157.9012017999776,None,None,None,1158.479376599891,None,,,,,,,135,f,1,2022_Dec_12_1737,RL,2021.2.3,59.91446615431703,
1,67,0,67,0,,,,,,,,,,,,,,,None,None,None,None,None,1160.3264720998704,None,1160.3264720998704,None,1160.3264720998704,None,1160.3264720998704,None,f,0.32387230009771883,1160.3264720998704,None,1160.3264720998704,None,1160.7010607998818,None,1160.7010607998818,None,1160.7010607998818,None,1160.7010607998818,None,1160.7010607998818,None,1160.7010607998818,None,1160.9905258999206,1162.991860399954,1160.9905258999206,1162.991860399954,1163.0287162999157,None,1163.0287162999157,None,1163.0287162999157,None,1163.0287162999157,None,1163.0287162999157,None,1163.0287162999157,None,1163.0287162999157,None,1163.0287162999157,None,1163.0287162999157,None,62,57,33,38,57,60,1165.565140399849,None,4.0,0.4492046998348087,1165.565140399849,None,1165.565140399849,None,1165.565140399849,None,1165.565140399849,None,None,None,1166.0328169998247,None,,,,,,,135,f,1,2022_Dec_12_1737,RL,2021.2.3,59.91446615431703,
1,68,0,68,0,,,,,,,,,,,,,,,None,None,None,None,None,1167.9147099999245,None,1167.9147099999245,None,1167.9147099999245,None,1167.9147099999245,None,f,0.27519980003125966,1167.9147099999245,None,1167.9147099999245,None,1168.232172699878,None,1168.232172699878,None,1168.232172699878,None,1168.232172699878,None,1168.232172699878,None,1168.232172699878,None,1168.5289456997998,None,1168.5289456997998,None,1169.4585843998939,None,1169.4585843998939,None,1169.4585843998939,None,1169.4585843998939,None,1169.4585843998939,None,1169.4585843998939,None,1169.4585843998939,None,1169.4585843998939,None,1169.4585843998939,None,60,57,30,26,57,54,1171.980755099794,None,4.0,0.4507637999486178,1171.980755099794,None,1171.980755099794,None,1171.980755099794,None,1171.980755099794,None,None,None,1172.4485567999072,None,,,,,,,135,f,1,2022_Dec_12_1737,RL,2021.2.3,59.91446615431703,
1,69,0,69,0,,,,,,,,,,,,,,,None,None,None,None,None,1174.4357759999111,None,1174.4357759999111,None,1174.4357759999111,None,1174.4357759999111,None,f,0.2943102999124676,1174.4357759999111,None,1174.4357759999111,None,1174.7731892999727,None,1174.7731892999727,None,1174.7731892999727,None,1174.7731892999727,None,1174.7731892999727,None,1174.7731892999727,None,1175.0667558999266,None,1175.0667558999266,None,1176.7990395999514,None,1176.7990395999514,None,1176.7990395999514,None,1176.7990395999514,None,1176.7990395999514,None,1176.7990395999514,None,1176.7990395999514,None,1176.7990395999514,None,1176.7990395999514,None,69,58,34,40,58,48,1179.3249611998908,None,4.0,0.40020200004801154,1179.3249611998908,None,1179.3249611998908,None,1179.3249611998908,None,1179.3249611998908,None,None,None,1179.7469127997756,None,,,,,,,135,f,1,2022_Dec_12_1737,RL,2021.2.3,59.91446615431703,
1,70,0,70,0,,,,,,,,,,,,,,,None,None,None,None,None,1181.7075693998486,None,1181.7075693998486,None,1181.7075693998486,None,1181.7075693998486,None,f,0.2925698000472039,1181.7075693998486,None,1181.7075693998486,None,1182.0421278998256,None,1182.0421278998256,None,1182.0421278998256,None,1182.0421278998256,None,1182.0421278998256,None,1182.0421278998256,None,1182.3385408998001,None,1182.3385408998001,None,1183.209771399852,None,1183.209771399852,None,1183.209771399852,None,1183.209771399852,None,1183.209771399852,None,1183.209771399852,None,1183.209771399852,None,1183.209771399852,None,1183.209771399852,None,71,56,32,34,56,44,1185.7366833998822,None,4.0,0.4224197000730783,1185.7366833998822,None,1185.7366833998822,None,1185.7366833998822,None,1185.7366833998822,None,None,None,1186.182816799963,None,,,,,,,135,f,1,2022_Dec_12_1737,RL,2021.2.3,59.91446615431703,
1,71,0,71,0,,,,,,,,,,,,,,,None,None,None,None,None,1187.8628604998812,None,1187.8628604998812,None,1187.8628604998812,None,1187.8628604998812,None,f,0.247365300077945,1187.8628604998812,None,1187.8628604998812,None,1188.1510727999266,None,1188.1510727999266,None,1188.1510727999266,None,1188.1510727999266,None,1188.1510727999266,None,1188.1510727999266,None,1188.442878199974,None,1188.442878199974,None,1189.6420057998039,None,1189.6420057998039,None,1189.6420057998039,None,1189.6420057998039,None,1189.6420057998039,None,1189.6420057998039,None,1189.6420057998039,None,1189.6420057998039,None,1189.6420057998039,None,69,62,28,35,62,54,1192.1636004999746,None,4.0,0.6320704999379814,1192.1636004999746,None,1192.1636004999746,None,1192.1636004999746,None,1192.1636004999746,None,None,None,1192.8123360997997,None,,,,,,,135,f,1,2022_Dec_12_1737,RL,2021.2.3,59.91446615431703,
1,72,0,72,0,,,,,,,,,,,,,,,None,None,None,None,None,1194.383149100002,None,1194.383149100002,None,1194.383149100002,None,1194.383149100002,None,f,0.31711770012043417,1194.383149100002,None,1194.383149100002,None,1194.753459799802,None,1194.753459799802,None,1194.753459799802,None,1194.753459799802,None,1194.753459799802,None,1194.753459799802,None,1195.0477221999317,None,1195.0477221999317,None,1197.0159286998678,None,1197.0159286998678,None,1197.0159286998678,None,1197.0159286998678,None,1197.0159286998678,None,1197.0159286998678,None,1197.0159286998678,None,1197.0159286998678,None,1197.0159286998678,None,73,57,31,28,57,48,1199.5322625997942,None,5.0,0.7709402998443693,1199.5322625997942,None,1199.5322625997942,None,1199.5322625997942,None,1199.5322625997942,None,None,None,1200.3269059997983,None,,,,,,,135,f,1,2022_Dec_12_1737,RL,2021.2.3,59.91446615431703,
1,73,0,73,0,,,,,,,,,,,,,,,None,None,None,None,None,1202.2557703999337,None,1202.2557703999337,None,1202.2557703999337,None,1202.2557703999337,None,f,0.3446529000066221,1202.2557703999337,None,1202.2557703999337,None,1202.6419673999771,None,1202.6419673999771,None,1202.6419673999771,None,1202.6419673999771,None,1202.6419673999771,None,1202.6419673999771,None,1202.9363181998488,None,1202.9363181998488,None,1203.973018199904,None,1203.973018199904,None,1203.973018199904,None,1203.973018199904,None,1203.973018199904,None,1203.973018199904,None,1203.973018199904,None,1203.973018199904,None,1203.973018199904,None,63,62,40,31,62,45,1206.4862549998797,None,5.0,0.4709290999453515,1206.4862549998797,None,1206.4862549998797,None,1206.4862549998797,None,1206.4862549998797,None,None,None,1206.9720625998452,None,,,,,,,135,f,1,2022_Dec_12_1737,RL,2021.2.3,59.91446615431703,
1,74,0,74,0,,,,,,,,,,,,,,,None,None,None,None,None,1208.5934975999407,None,1208.5934975999407,None,1208.5934975999407,None,1208.5934975999407,None,f,0.35662880004383624,1208.5934975999407,None,1208.5934975999407,None,1208.995252699824,None,1208.995252699824,None,1208.995252699824,None,1208.995252699824,None,1208.995252699824,None,1208.995252699824,None,1209.290546399774,None,1209.290546399774,None,1210.787242299877,None,1210.787242299877,None,1210.787242299877,None,1210.787242299877,None,1210.787242299877,None,1210.787242299877,None,1210.787242299877,None,1210.787242299877,None,1210.787242299877,None,71,65,38,25,65,37,1213.3056212998927,None,5.0,0.8225427998695523,1213.3056212998927,None,1213.3056212998927,None,1213.3056212998927,None,1213.3056212998927,None,None,None,1214.1435949997976,None,,,,,,,135,f,1,2022_Dec_12_1737,RL,2021.2.3,59.91446615431703,
1,75,0,75,0,,,,,,,,,,,,,,,1216.078509699786,None,q,1216.078509699786,None,1315.483922299929,None,1315.483922299929,None,1315.483922299929,None,1315.483922299929,None,f,1.2627123000565916,1315.483922299929,None,1315.483922299929,None,1316.776204599999,None,1316.776204599999,None,1316.776204599999,None,1316.776204599999,None,1316.776204599999,None,1316.776204599999,None,1317.0652834000066,None,1317.0652834000066,None,1318.2461504999083,None,1318.2461504999083,None,1318.2461504999083,None,1318.2461504999083,None,1318.2461504999083,None,1318.2461504999083,None,1318.2461504999083,None,1318.2461504999083,None,1318.2461504999083,None,69,67,37,33,67,44,1320.7759355998132,None,5.0,1.566243200097233,1320.7759355998132,None,1320.7759355998132,None,1320.7759355998132,None,1320.7759355998132,None,None,None,1322.3524178999942,None,99.37113959994167,,,,,,135,f,1,2022_Dec_12_1737,RL,2021.2.3,59.91446615431703,
1,76,0,76,0,,,,,,,,,,,,,,,None,None,None,None,None,1324.1567714998964,None,1324.1567714998964,None,1324.1567714998964,None,1324.1567714998964,None,f,0.51022919989191,1324.1567714998964,None,1324.1567714998964,None,1324.7124053000007,None,1324.7124053000007,None,1324.7124053000007,None,1324.7124053000007,None,1324.7124053000007,None,1324.7124053000007,None,1325.004515499808,None,1325.004515499808,None,1326.5174122999888,None,1326.5174122999888,None,1326.5174122999888,None,1326.5174122999888,None,1326.5174122999888,None,1326.5174122999888,None,1326.5174122999888,None,1326.5174122999888,None,1326.5174122999888,None,58,71,32,36,71,56,1329.0412376997992,None,6.0,0.7179543999955058,1329.0412376997992,None,1329.0412376997992,None,1329.0412376997992,None,1329.0412376997992,None,None,None,1329.7735994998366,None,,,,,,,135,f,1,2022_Dec_12_1737,RL,2021.2.3,59.91446615431703,
1,77,0,77,0,,,,,,,,,,,,,,,None,None,None,None,None,1331.762073499849,None,1331.762073499849,None,1331.762073499849,None,1331.762073499849,None,f,0.4045790999662131,1331.762073499849,None,1331.762073499849,None,1332.21734429989,None,1332.21734429989,None,1332.21734429989,None,1332.21734429989,None,1332.21734429989,None,1332.21734429989,None,1332.5094492000062,1333.7100582998246,1332.5094492000062,1333.7100582998246,1333.7416176998522,None,1333.7416176998522,None,1333.7416176998522,None,1333.7416176998522,None,1333.7416176998522,None,1333.7416176998522,None,1333.7416176998522,None,1333.7416176998522,None,1333.7416176998522,None,61,61,30,32,61,38,1336.2590231997892,None,5.0,0.48827479989267886,1336.2590231997892,None,1336.2590231997892,None,1336.2590231997892,None,1336.2590231997892,None,None,None,1336.7618522997946,None,,,,,,,135,f,1,2022_Dec_12_1737,RL,2021.2.3,59.91446615431703,
1,78,0,78,0,,,,,,,,,,,,,,,None,None,None,None,None,1338.4662332998123,None,1338.4662332998123,None,1338.4662332998123,None,1338.4662332998123,None,f,0.3213748000562191,1338.4662332998123,None,1338.4662332998123,None,1338.8393280999735,None,1338.8393280999735,None,1338.8393280999735,None,1338.8393280999735,None,1338.8393280999735,None,1338.8393280999735,None,1339.1308136999141,None,1339.1308136999141,None,1340.3965865999926,None,1340.3965865999926,None,1340.3965865999926,None,1340.3965865999926,None,1340.3965865999926,None,1340.3965865999926,None,1340.3965865999926,None,1340.3965865999926,None,1340.3965865999926,None,57,64,27,40,64,44,1342.911570899887,None,5.0,0.5573460999876261,1342.911570899887,None,1342.911570899887,None,1342.911570899887,None,1342.911570899887,None,None,None,1343.4838906999212,None,,,,,,,135,f,1,2022_Dec_12_1737,RL,2021.2.3,59.91446615431703,
1,79,0,79,0,,,,,,,,,,,,,,,None,None,None,None,None,1345.2549944999628,None,1345.2549944999628,None,1345.2549944999628,None,1345.2549944999628,None,f,0.27293509989976883,1345.2549944999628,None,1345.2549944999628,None,1345.5733147999272,None,1345.5733147999272,None,1345.5733147999272,None,1345.5733147999272,None,1345.5733147999272,None,1345.5733147999272,None,1345.868781699799,1347.736468499992,1345.868781699799,1347.736468499992,1347.774158399785,None,1347.774158399785,None,1347.774158399785,None,1347.774158399785,None,1347.774158399785,None,1347.774158399785,None,1347.774158399785,None,1347.774158399785,None,1347.774158399785,None,60,63,30,29,63,34,1350.2833070999477,None,5.0,0.7064215000718832,1350.2833070999477,None,1350.2833070999477,None,1350.2833070999477,None,1350.2833070999477,None,None,None,1351.0051775998436,None,,,,,,,135,f,1,2022_Dec_12_1737,RL,2021.2.3,59.91446615431703,
1,80,0,80,0,,,,,,,,,,,,,,,None,None,None,None,None,1352.559641999891,None,1352.559641999891,None,1352.559641999891,None,1352.559641999891,None,f,0.38839570013806224,1352.559641999891,None,1352.559641999891,None,1352.998857199913,None,1352.998857199913,None,1352.998857199913,None,1352.998857199913,None,1352.998857199913,None,1352.998857199913,None,1353.2904621998314,None,1353.2904621998314,None,1355.2620259998366,None,1355.2620259998366,None,1355.2620259998366,None,1355.2620259998366,None,1355.2620259998366,None,1355.2620259998366,None,1355.2620259998366,None,1355.2620259998366,None,1355.2620259998366,None,48,68,29,37,68,58,1357.7723551997915,None,4.0,0.8729369998909533,1357.7723551997915,None,1357.7723551997915,None,1357.7723551997915,None,1357.7723551997915,None,None,None,1358.6603969999123,None,,,,,,,135,f,1,2022_Dec_12_1737,RL,2021.2.3,59.91446615431703,
1,81,0,81,0,,,,,,,,,,,,,,,None,None,None,None,None,1360.3314159999136,None,1360.3314159999136,None,1360.3314159999136,None,1360.3314159999136,None,f,0.37677990016527474,1360.3314159999136,None,1360.3314159999136,None,1360.7512007998303,None,1360.7512007998303,None,1360.7512007998303,None,1360.7512007998303,None,1360.7512007998303,None,1360.7512007998303,None,1361.046002099989,None,1361.046002099989,None,1362.8463610999752,None,1362.8463610999752,None,1362.8463610999752,None,1362.8463610999752,None,1362.8463610999752,None,1362.8463610999752,None,1362.8463610999752,None,1362.8463610999752,None,1362.8463610999752,None,67,64,30,35,64,54,1365.366142099956,None,4.0,0.48367869993671775,1365.366142099956,None,1365.366142099956,None,1365.366142099956,None,1365.366142099956,None,None,None,1365.8652960998006,None,,,,,,,135,f,1,2022_Dec_12_1737,RL,2021.2.3,59.91446615431703,
1,82,0,82,0,,,,,,,,,,,,,,,None,None,None,None,None,1367.5698867999017,None,1367.5698867999017,None,1367.5698867999017,None,1367.5698867999017,None,f,0.3580894998740405,1367.5698867999017,None,1367.5698867999017,None,1367.976193399867,None,1367.976193399867,None,1367.976193399867,None,1367.976193399867,None,1367.976193399867,None,1367.976193399867,None,1368.2676242999732,None,1368.2676242999732,None,1369.5813018998597,None,1369.5813018998597,None,1369.5813018998597,None,1369.5813018998597,None,1369.5813018998597,None,1369.5813018998597,None,1369.5813018998597,None,1369.5813018998597,None,1369.5813018998597,None,60,62,35,36,62,43,1372.101673899917,None,5.0,1.2212678000796586,1372.101673899917,None,1372.101673899917,None,1372.101673899917,None,1372.101673899917,None,None,None,1373.3468026998453,None,,,,,,,135,f,1,2022_Dec_12_1737,RL,2021.2.3,59.91446615431703,
1,83,0,83,0,,,,,,,,,,,,,,,None,None,None,None,None,1375.0912673999555,None,1375.0912673999555,None,1375.0912673999555,None,1375.0912673999555,None,f,0.33685519988648593,1375.0912673999555,None,1375.0912673999555,None,1375.477461299859,None,1375.477461299859,None,1375.477461299859,None,1375.477461299859,None,1375.477461299859,None,1375.477461299859,None,1375.7727126998361,None,1375.7727126998361,None,1377.193789199926,None,1377.193789199926,None,1377.193789199926,None,1377.193789199926,None,1377.193789199926,None,1377.193789199926,None,1377.193789199926,None,1377.193789199926,None,1377.193789199926,None,54,65,40,44,65,64,1379.705307399854,None,4.0,0.47410640004090965,1379.705307399854,None,1379.705307399854,None,1379.705307399854,None,1379.705307399854,None,None,None,1380.1959531998727,None,,,,,,,135,f,1,2022_Dec_12_1737,RL,2021.2.3,59.91446615431703,
1,84,0,84,0,,,,,,,,,,,,,,,None,None,None,None,None,1381.7967588999309,None,1381.7967588999309,None,1381.7967588999309,None,1381.7967588999309,None,f,0.4712948000524193,1381.7967588999309,None,1381.7967588999309,None,1382.3161450999323,None,1382.3161450999323,None,1382.3161450999323,None,1382.3161450999323,None,1382.3161450999323,None,1382.3161450999323,None,1382.6108057999518,None,1382.6108057999518,None,1384.5915010999888,None,1384.5915010999888,None,1384.5915010999888,None,1384.5915010999888,None,1384.5915010999888,None,1384.5915010999888,None,1384.5915010999888,None,1384.5915010999888,None,1384.5915010999888,None,56,61,25,49,61,49,1387.1099232998677,None,4.0,0.47059800010174513,1387.1099232998677,None,1387.1099232998677,None,1387.1099232998677,None,1387.1099232998677,None,None,None,1387.5971022997983,None,,,,,,,135,f,1,2022_Dec_12_1737,RL,2021.2.3,59.91446615431703,
1,85,0,85,0,,,,,,,,,,,,,,,None,None,None,None,None,1389.3186381999403,None,1389.3186381999403,None,1389.3186381999403,None,1389.3186381999403,None,f,0.27970990003086627,1389.3186381999403,None,1389.3186381999403,None,1389.6368034998886,None,1389.6368034998886,None,1389.6368034998886,None,1389.6368034998886,None,1389.6368034998886,None,1389.6368034998886,None,1389.9325720998459,None,1389.9325720998459,None,1390.8639222998172,None,1390.8639222998172,None,1390.8639222998172,None,1390.8639222998172,None,1390.8639222998172,None,1390.8639222998172,None,1390.8639222998172,None,1390.8639222998172,None,1390.8639222998172,None,61,58,34,53,58,41,1393.3815808999352,None,4.0,0.4367845000233501,1393.3815808999352,None,1393.3815808999352,None,1393.3815808999352,None,1393.3815808999352,None,None,None,1393.83461299981,None,,,,,,,135,f,1,2022_Dec_12_1737,RL,2021.2.3,59.91446615431703,
1,86,0,86,0,,,,,,,,,,,,,,,None,None,None,None,None,1395.6732876999304,None,1395.6732876999304,None,1395.6732876999304,None,1395.6732876999304,None,f,0.3050830999854952,1395.6732876999304,None,1395.6732876999304,None,1396.0175622999668,None,1396.0175622999668,None,1396.0175622999668,None,1396.0175622999668,None,1396.0175622999668,None,1396.0175622999668,None,1396.3038399999496,1397.2375034999568,1396.3038399999496,1397.2375034999568,1397.2682627998292,None,1397.2682627998292,None,1397.2682627998292,None,1397.2682627998292,None,1397.2682627998292,None,1397.2682627998292,None,1397.2682627998292,None,1397.2682627998292,None,1397.2682627998292,None,61,61,29,69,61,64,1399.7904619998299,None,3.0,0.5677181999199092,1399.7904619998299,None,1399.7904619998299,None,1399.7904619998299,None,1399.7904619998299,None,None,None,1400.3726670998149,None,,,,,,,135,f,1,2022_Dec_12_1737,RL,2021.2.3,59.91446615431703,
1,87,0,87,0,,,,,,,,,,,,,,,None,None,None,None,None,1402.3604133999906,None,1402.3604133999906,None,1402.3604133999906,None,1402.3604133999906,None,f,0.26795589993707836,1402.3604133999906,None,1402.3604133999906,None,1402.6819760999642,None,1402.6819760999642,None,1402.6819760999642,None,1402.6819760999642,None,1402.6819760999642,None,1402.6819760999642,None,1402.9749131998979,None,1402.9749131998979,None,1404.9575238998514,None,1404.9575238998514,None,1404.9575238998514,None,1404.9575238998514,None,1404.9575238998514,None,1404.9575238998514,None,1404.9575238998514,None,1404.9575238998514,None,1404.9575238998514,None,59,55,27,57,55,55,1407.4812723998912,None,4.0,1.0349743999540806,1407.4812723998912,None,1407.4812723998912,None,1407.4812723998912,None,1407.4812723998912,None,None,None,1408.529343499802,None,,,,,,,135,f,1,2022_Dec_12_1737,RL,2021.2.3,59.91446615431703,
1,88,0,88,0,,,,,,,,,,,,,,,None,None,None,None,None,1410.3498694999143,None,1410.3498694999143,None,1410.3498694999143,None,1410.3498694999143,None,f,0.30832870001904666,1410.3498694999143,None,1410.3498694999143,None,1410.7010402998421,None,1410.7010402998421,None,1410.7010402998421,None,1410.7010402998421,None,1410.7010402998421,None,1410.7010402998421,None,1410.9969129997771,None,1410.9969129997771,None,1412.5280593999196,None,1412.5280593999196,None,1412.5280593999196,None,1412.5280593999196,None,1412.5280593999196,None,1412.5280593999196,None,1412.5280593999196,None,1412.5280593999196,None,1412.5280593999196,None,57,67,28,51,67,57,1415.0450526999775,None,5.0,0.6576008999254555,1415.0450526999775,None,1415.0450526999775,None,1415.0450526999775,None,1415.0450526999775,None,None,None,1415.7214745997917,None,,,,,,,135,f,1,2022_Dec_12_1737,RL,2021.2.3,59.91446615431703,
1,89,0,89,0,,,,,,,,,,,,,,,None,None,None,None,None,1417.254210199928,None,1417.254210199928,None,1417.254210199928,None,1417.254210199928,None,f,0.3340015998110175,1417.254210199928,None,1417.254210199928,None,1417.641278399853,None,1417.641278399853,None,1417.641278399853,None,1417.641278399853,None,1417.641278399853,None,1417.641278399853,None,1417.9353936999105,None,1417.9353936999105,None,1418.8994802997913,None,1418.8994802997913,None,1418.8994802997913,None,1418.8994802997913,None,1418.8994802997913,None,1418.8994802997913,None,1418.8994802997913,None,1418.8994802997913,None,1418.8994802997913,None,56,57,35,54,57,66,1421.4179732999764,None,4.0,0.9563023000955582,1421.4179732999764,None,1421.4179732999764,None,1421.4179732999764,None,1421.4179732999764,None,None,None,1422.3879588998388,None,,,,,,,135,f,1,2022_Dec_12_1737,RL,2021.2.3,59.91446615431703,
1,90,0,90,0,,,,,,,,,,,,,,,None,None,None,None,None,1423.9421255998313,None,1423.9421255998313,None,1423.9421255998313,None,1423.9421255998313,None,f,0.3159435000270605,1423.9421255998313,None,1423.9421255998313,None,1424.2929009997752,None,1424.2929009997752,None,1424.2929009997752,None,1424.2929009997752,None,1424.2929009997752,None,1424.2929009997752,None,1424.589903499931,None,1424.589903499931,None,1426.2222666000016,None,1426.2222666000016,None,1426.2222666000016,None,1426.2222666000016,None,1426.2222666000016,None,1426.2222666000016,None,1426.2222666000016,None,1426.2222666000016,None,1426.2222666000016,None,59,51,31,58,51,53,1428.746230599936,None,3.0,0.6204886001069099,1428.746230599936,None,1428.746230599936,None,1428.746230599936,None,1428.746230599936,None,None,None,1429.3763570999727,None,,,,,,,135,f,1,2022_Dec_12_1737,RL,2021.2.3,59.91446615431703,
1,91,0,91,0,,,,,,,,,,,,,,,None,None,None,None,None,1431.0475415999535,None,1431.0475415999535,None,1431.0475415999535,None,1431.0475415999535,None,i,0.8807267998345196,1431.0475415999535,None,1431.0475415999535,None,1431.9677550999913,None,1431.9677550999913,None,1431.9677550999913,None,1431.9677550999913,None,1431.9677550999913,None,1431.9677550999913,None,1432.2618981997948,None,1432.2618981997948,None,1433.5422690999694,None,1433.5422690999694,None,1433.5422690999694,None,1433.5422690999694,None,1433.5422690999694,None,1433.5422690999694,None,1433.5422690999694,None,1433.5422690999694,None,1433.5422690999694,None,67,62,34,58,34,47,1436.067808299791,None,3.0,0.5999469999223948,1436.067808299791,None,1436.067808299791,None,1436.067808299791,None,1436.067808299791,None,None,None,1436.6812025997788,None,,,,,,,135,f,1,2022_Dec_12_1737,RL,2021.2.3,59.91446615431703,
1,92,0,92,0,,,,,,,,,,,,,,,None,None,None,None,None,1438.4694336999673,None,1438.4694336999673,None,1438.4694336999673,None,1438.4694336999673,None,j,0.29945549997501075,1438.4694336999673,None,1438.4694336999673,None,1438.8212225998286,None,1438.8212225998286,None,1438.8212225998286,None,1438.8212225998286,None,1438.8212225998286,None,1438.8212225998286,None,1439.1165261999704,1440.851192599861,1439.1165261999704,1440.851192599861,1440.8851972999983,None,1440.8851972999983,None,1440.8851972999983,None,1440.8851972999983,None,1440.8851972999983,None,1440.8851972999983,None,1440.8851972999983,None,1440.8851972999983,None,1440.8851972999983,None,65,48,31,57,57,43,1443.3992724998388,None,4.0,0.6555037000216544,1443.3992724998388,None,1443.3992724998388,None,1443.3992724998388,None,1443.3992724998388,None,None,None,1444.0700745999347,None,,,,,,,135,f,1,2022_Dec_12_1737,RL,2021.2.3,59.91446615431703,
1,93,0,93,0,,,,,,,,,,,,,,,None,None,None,None,None,1446.0576249998994,None,1446.0576249998994,None,1446.0576249998994,None,1446.0576249998994,None,j,0.29092850000597537,1446.0576249998994,None,1446.0576249998994,None,1446.3943609998096,None,1446.3943609998096,None,1446.3943609998096,None,1446.3943609998096,None,1446.3943609998096,None,1446.3943609998096,None,1446.6885053999722,None,1446.6885053999722,None,1448.2365263998508,None,1448.2365263998508,None,1448.2365263998508,None,1448.2365263998508,None,1448.2365263998508,None,1448.2365263998508,None,1448.2365263998508,None,1448.2365263998508,None,1448.2365263998508,None,70,56,24,58,58,44,1450.7543209998403,None,4.0,0.5880578998476267,1450.7543209998403,None,1450.7543209998403,None,1450.7543209998403,None,1450.7543209998403,None,None,None,1451.357791399816,None,,,,,,,135,f,1,2022_Dec_12_1737,RL,2021.2.3,59.91446615431703,
1,94,0,94,0,,,,,,,,,,,,,,,None,None,None,None,None,1452.9793161998969,None,1452.9793161998969,None,1452.9793161998969,None,1452.9793161998969,None,j,0.2996112999971956,1452.9793161998969,None,1452.9793161998969,None,1453.3315205997787,None,1453.3315205997787,None,1453.3315205997787,None,1453.3315205997787,None,1453.3315205997787,None,1453.3315205997787,None,1453.6267371999566,None,1453.6267371999566,None,1454.9070750998799,None,1454.9070750998799,None,1454.9070750998799,None,1454.9070750998799,None,1454.9070750998799,None,1454.9070750998799,None,1454.9070750998799,None,1454.9070750998799,None,1454.9070750998799,None,67,49,27,62,62,56,1457.4268508998211,None,4.0,0.4378415001556277,1457.4268508998211,None,1457.4268508998211,None,1457.4268508998211,None,1457.4268508998211,None,None,None,1457.879365199944,None,,,,,,,135,f,1,2022_Dec_12_1737,RL,2021.2.3,59.91446615431703,
1,95,0,95,0,,,,,,,,,,,,,,,None,None,None,None,None,1459.566738099791,None,1459.566738099791,None,1459.566738099791,None,1459.566738099791,None,j,0.3322899998165667,1459.566738099791,None,1459.566738099791,None,1459.9364214998204,None,1459.9364214998204,None,1459.9364214998204,None,1459.9364214998204,None,1459.9364214998204,None,1459.9364214998204,None,1460.2312429999001,1461.1318281998392,1460.2312429999001,1461.1318281998392,1461.161825899966,None,1461.161825899966,None,1461.161825899966,None,1461.161825899966,None,1461.161825899966,None,1461.161825899966,None,1461.161825899966,None,1461.161825899966,None,1461.161825899966,None,69,40,32,70,70,62,1463.6823288998567,None,5.0,1.0368351999204606,1463.6823288998567,None,1463.6823288998567,None,1463.6823288998567,None,1463.6823288998567,None,None,None,1464.7366578998044,None,,,,,,,135,f,1,2022_Dec_12_1737,RL,2021.2.3,59.91446615431703,
1,96,0,96,0,,,,,,,,,,,,,,,None,None,None,None,None,1466.5889126998372,None,1466.5889126998372,None,1466.5889126998372,None,1466.5889126998372,None,j,0.35984910000115633,1466.5889126998372,None,1466.5889126998372,None,1466.9897612999193,None,1466.9897612999193,None,1466.9897612999193,None,1466.9897612999193,None,1466.9897612999193,None,1466.9897612999193,None,1467.286234299885,None,1467.286234299885,None,1469.1521993998904,None,1469.1521993998904,None,1469.1521993998904,None,1469.1521993998904,None,1469.1521993998904,None,1469.1521993998904,None,1469.1521993998904,None,1469.1521993998904,None,1469.1521993998904,None,78,49,32,72,72,61,1471.6711178999394,None,5.0,1.0876975997816771,1471.6711178999394,None,1471.6711178999394,None,1471.6711178999394,None,1471.6711178999394,None,None,None,1472.7728369999677,None,,,,,,,135,f,1,2022_Dec_12_1737,RL,2021.2.3,59.91446615431703,
1,97,0,97,0,,,,,,,,,,,,,,,None,None,None,None,None,1474.710880199913,None,1474.710880199913,None,1474.710880199913,None,1474.710880199913,None,j,0.39801479992456734,1474.710880199913,None,1474.710880199913,None,1475.1476371998433,None,1475.1476371998433,None,1475.1476371998433,None,1475.1476371998433,None,1475.1476371998433,None,1475.1476371998433,None,1475.4418159998022,1476.8093760998454,1475.4418159998022,1476.8093760998454,1476.8412510999478,None,1476.8412510999478,None,1476.8412510999478,None,1476.8412510999478,None,1476.8412510999478,None,1476.8412510999478,None,1476.8412510999478,None,1476.8412510999478,None,1476.8412510999478,None,70,57,34,66,66,55,1479.367743899813,None,5.0,1.500394199974835,1479.367743899813,None,1479.367743899813,None,1479.367743899813,None,1479.367743899813,None,None,None,1480.879370199982,None,,,,,,,135,f,1,2022_Dec_12_1737,RL,2021.2.3,59.91446615431703,
1,98,0,98,0,,,,,,,,,,,,,,,None,None,None,None,None,1482.7330912998877,None,1482.7330912998877,None,1482.7330912998877,None,1482.7330912998877,None,j,0.35558400000445545,1482.7330912998877,None,1482.7330912998877,None,1483.1398469998967,None,1483.1398469998967,None,1483.1398469998967,None,1483.1398469998967,None,1483.1398469998967,None,1483.1398469998967,None,1483.4306378997862,1485.115284799831,1483.4306378997862,1485.115284799831,1485.1502865999937,None,1485.1502865999937,None,1485.1502865999937,None,1485.1502865999937,None,1485.1502865999937,None,1485.1502865999937,None,1485.1502865999937,None,1485.1502865999937,None,1485.1502865999937,None,55,49,31,65,65,37,1487.665361699881,None,5.0,0.7040921999141574,1487.665361699881,None,1487.665361699881,None,1487.665361699881,None,1487.665361699881,None,None,None,1488.3837862999644,None,,,,,,,135,f,1,2022_Dec_12_1737,RL,2021.2.3,59.91446615431703,
1,99,0,99,0,,,,,,,,,,,,,,,None,None,None,None,None,1490.0553384998348,None,1490.0553384998348,None,1490.0553384998348,None,1490.0553384998348,None,j,0.2835431999992579,1490.0553384998348,None,1490.0553384998348,None,1490.3895797999576,None,1490.3895797999576,None,1490.3895797999576,None,1490.3895797999576,None,1490.3895797999576,None,1490.3895797999576,None,1490.6857325998135,1492.5869047997985,1490.6857325998135,1492.5869047997985,1492.6196516999044,None,1492.6196516999044,None,1492.6196516999044,None,1492.6196516999044,None,1492.6196516999044,None,1492.6196516999044,None,1492.6196516999044,None,1492.6196516999044,None,1492.6196516999044,None,60,52,36,60,60,44,1495.1352552999742,None,5.0,0.6885603000409901,1495.1352552999742,None,1495.1352552999742,None,1495.1352552999742,None,1495.1352552999742,None,None,None,1495.8402870998252,None,,,,,,,135,f,1,2022_Dec_12_1737,RL,2021.2.3,59.91446615431703,
1,100,0,100,0,,,,,,,,,,,,,,,None,None,None,None,None,1497.7101012999192,None,1497.7101012999192,None,1497.7101012999192,None,1497.7101012999192,None,j,0.33997340011410415,1497.7101012999192,None,1497.7101012999192,None,1498.0994411997963,None,1498.0994411997963,None,1498.0994411997963,None,1498.0994411997963,None,1498.0994411997963,None,1498.0994411997963,None,1498.3910238998942,1500.3589259998407,1498.3910238998942,1500.3589259998407,1500.3923212999944,None,1500.3923212999944,None,1500.3923212999944,None,1500.3923212999944,None,1500.3923212999944,None,1500.3923212999944,None,1500.3923212999944,None,1500.3923212999944,None,1500.3923212999944,None,63,59,42,64,64,31,1502.9118108998518,None,5.0,0.7340039999689907,1502.9118108998518,None,1502.9118108998518,None,1502.9118108998518,None,1502.9118108998518,None,None,None,1503.661219399888,None,,,,,,,135,f,1,2022_Dec_12_1737,RL,2021.2.3,59.91446615431703,
1,101,0,101,0,,,,,,,,,,,,,,,None,None,None,None,None,1505.3991238998715,None,1505.3991238998715,None,1505.3991238998715,None,1505.3991238998715,None,j,0.47090580011717975,1505.3991238998715,None,1505.3991238998715,None,1505.922594100004,None,1505.922594100004,None,1505.922594100004,None,1505.922594100004,None,1505.922594100004,None,1505.922594100004,None,1506.2130982999224,None,1506.2130982999224,None,1507.494152299827,None,1507.494152299827,None,1507.494152299827,None,1507.494152299827,None,1507.494152299827,None,1507.494152299827,None,1507.494152299827,None,1507.494152299827,None,1507.494152299827,None,57,53,38,54,54,51,1510.0178205999546,None,3.0,1.3488872000016272,1510.0178205999546,None,1510.0178205999546,None,1510.0178205999546,None,1510.0178205999546,None,None,None,1511.383201799821,None,,,,,,,135,f,1,2022_Dec_12_1737,RL,2021.2.3,59.91446615431703,
1,102,0,102,0,,,,,,,,,,,,,,,None,None,None,None,None,1512.954173799837,None,1512.954173799837,None,1512.954173799837,None,1512.954173799837,None,j,0.316045000217855,1512.954173799837,None,1512.954173799837,None,1513.3263574999291,None,1513.3263574999291,None,1513.3263574999291,None,1513.3263574999291,None,1513.3263574999291,None,1513.3263574999291,None,1513.6183577999473,None,1513.6183577999473,None,1514.7160687998403,None,1514.7160687998403,None,1514.7160687998403,None,1514.7160687998403,None,1514.7160687998403,None,1514.7160687998403,None,1514.7160687998403,None,1514.7160687998403,None,1514.7160687998403,None,63,57,39,56,56,32,1517.235548599856,None,4.0,0.4861703999340534,1517.235548599856,None,1517.235548599856,None,1517.235548599856,None,1517.235548599856,None,None,None,1517.7372090998106,None,,,,,,,135,f,1,2022_Dec_12_1737,RL,2021.2.3,59.91446615431703,
1,103,0,103,0,,,,,,,,,,,,,,,None,None,None,None,None,1519.4095275998116,None,1519.4095275998116,None,1519.4095275998116,None,1519.4095275998116,None,j,0.2808260000310838,1519.4095275998116,None,1519.4095275998116,None,1519.7311420999467,None,1519.7311420999467,None,1519.7311420999467,None,1519.7311420999467,None,1519.7311420999467,None,1519.7311420999467,None,1520.0226906999014,None,1520.0226906999014,None,1521.487211899832,None,1521.487211899832,None,1521.487211899832,None,1521.487211899832,None,1521.487211899832,None,1521.487211899832,None,1521.487211899832,None,1521.487211899832,None,1521.487211899832,None,50,49,34,61,61,59,1524.0099999997765,None,4.0,0.6341527998447418,1524.0099999997765,None,1524.0099999997765,None,1524.0099999997765,None,1524.0099999997765,None,None,None,1524.6587893997785,None,,,,,,,135,f,1,2022_Dec_12_1737,RL,2021.2.3,59.91446615431703,
1,104,0,104,0,,,,,,,,,,,,,,,None,None,None,None,None,1526.2633911999874,None,1526.2633911999874,None,1526.2633911999874,None,1526.2633911999874,None,j,0.27679479983635247,1526.2633911999874,None,1526.2633911999874,None,1526.5877008999232,None,1526.5877008999232,None,1526.5877008999232,None,1526.5877008999232,None,1526.5877008999232,None,1526.5877008999232,None,1526.8774070998188,1528.3116177998018,1526.8774070998188,1528.3116177998018,1528.3444390997756,None,1528.3444390997756,None,1528.3444390997756,None,1528.3444390997756,None,1528.3444390997756,None,1528.3444390997756,None,1528.3444390997756,None,1528.3444390997756,None,1528.3444390997756,None,59,52,37,53,53,25,1530.860459699994,None,4.0,0.42027370003052056,1530.860459699994,None,1530.860459699994,None,1530.860459699994,None,1530.860459699994,None,None,None,1531.296567299869,None,,,,,,,135,f,1,2022_Dec_12_1737,RL,2021.2.3,59.91446615431703,
1,105,0,105,0,,,,,,,,,,,,,,,None,None,None,None,None,1533.3063729999121,None,1533.3063729999121,None,1533.3063729999121,None,1533.3063729999121,None,j,0.3036026998888701,1533.3063729999121,None,1533.3063729999121,None,1533.653272899799,None,1533.653272899799,None,1533.653272899799,None,1533.653272899799,None,1533.653272899799,None,1533.653272899799,None,1533.9492464999203,None,1533.9492464999203,None,1535.345019100001,None,1535.345019100001,None,1535.345019100001,None,1535.345019100001,None,1535.345019100001,None,1535.345019100001,None,1535.345019100001,None,1535.345019100001,None,1535.345019100001,None,57,54,31,58,58,63,1537.8677720997948,None,3.0,0.5354549000039697,1537.8677720997948,None,1537.8677720997948,None,1537.8677720997948,None,1537.8677720997948,None,None,None,1538.418408199912,None,,,,,,,135,f,1,2022_Dec_12_1737,RL,2021.2.3,59.91446615431703,
1,106,0,106,0,,,,,,,,,,,,,,,None,None,None,None,None,1540.322672299808,None,1540.322672299808,None,1540.322672299808,None,1540.322672299808,None,j,0.3274062001146376,1540.322672299808,None,1540.322672299808,None,1540.6924499999732,None,1540.6924499999732,None,1540.6924499999732,None,1540.6924499999732,None,1540.6924499999732,None,1540.6924499999732,None,1540.987206999911,None,1540.987206999911,None,1542.4698915998451,None,1542.4698915998451,None,1542.4698915998451,None,1542.4698915998451,None,1542.4698915998451,None,1542.4698915998451,None,1542.4698915998451,None,1542.4698915998451,None,1542.4698915998451,None,63,56,31,59,59,64,1544.986987899989,None,3.0,0.5862940999213606,1544.986987899989,None,1544.986987899989,None,1544.986987899989,None,1544.986987899989,None,None,None,1545.5899821999483,None,,,,,,,135,f,1,2022_Dec_12_1737,RL,2021.2.3,59.91446615431703,
1,107,0,107,0,,,,,,,,,,,,,,,None,None,None,None,None,1547.2943757998291,None,1547.2943757998291,None,1547.2943757998291,None,1547.2943757998291,None,r,0.30561999999918044,1547.2943757998291,None,1547.2943757998291,None,1547.6484089998994,None,1547.6484089998994,None,1547.6484089998994,None,1547.6484089998994,None,1547.6484089998994,None,1547.6484089998994,None,1547.9256697997916,1548.8759409999475,1547.9256697997916,1548.8759409999475,1548.9225499997847,None,1548.9225499997847,None,1548.9225499997847,None,1548.9225499997847,None,1548.9225499997847,None,1548.9225499997847,None,1548.9225499997847,None,1548.9225499997847,None,1548.9225499997847,None,56,51,42,62,56,57,1551.440883899806,None,3.0,0.6384903998114169,1551.440883899806,None,1551.440883899806,None,1551.440883899806,None,1551.440883899806,None,None,None,1552.0945209998172,None,,,,,,,135,f,1,2022_Dec_12_1737,RL,2021.2.3,59.91446615431703,
1,108,0,108,0,,,,,,,,,,,,,,,None,None,None,None,None,1554.0659825999755,None,1554.0659825999755,None,1554.0659825999755,None,1554.0659825999755,None,r,0.29448819998651743,1554.0659825999755,None,1554.0659825999755,None,1554.4023382999003,None,1554.4023382999003,None,1554.4023382999003,None,1554.4023382999003,None,1554.4023382999003,None,1554.4023382999003,None,1554.6968335998245,1556.4480575998314,1554.6968335998245,1556.4480575998314,1556.4791960997973,None,1556.4791960997973,None,1556.4791960997973,None,1556.4791960997973,None,1556.4791960997973,None,1556.4791960997973,None,1556.4791960997973,None,1556.4791960997973,None,1556.4791960997973,None,61,46,42,60,61,60,1558.997874099994,None,4.0,0.8855111999437213,1558.997874099994,None,1558.997874099994,None,1558.997874099994,None,1558.997874099994,None,None,None,1559.899779399857,None,,,,,,,135,f,1,2022_Dec_12_1737,RL,2021.2.3,59.91446615431703,
1,109,0,109,0,,,,,,,,,,,,,,,None,None,None,None,None,1561.754497599788,None,1561.754497599788,None,1561.754497599788,None,1561.754497599788,None,f,0.3156729000620544,1561.754497599788,None,1561.754497599788,None,1562.1230822999496,None,1562.1230822999496,None,1562.1230822999496,None,1562.1230822999496,None,1562.1230822999496,None,1562.1230822999496,None,1562.419052499812,None,1562.419052499812,None,1563.9173094998114,None,1563.9173094998114,None,1563.9173094998114,None,1563.9173094998114,None,1563.9173094998114,None,1563.9173094998114,None,1563.9173094998114,None,1563.9173094998114,None,1563.9173094998114,None,64,52,39,64,52,38,1566.4403759997804,None,4.0,0.41728830011561513,1566.4403759997804,None,1566.4403759997804,None,1566.4403759997804,None,1566.4403759997804,None,None,None,1566.8815245998558,None,,,,,,,135,f,1,2022_Dec_12_1737,RL,2021.2.3,59.91446615431703,
1,110,0,110,0,,,,,,,,,,,,,,,None,None,None,None,None,1568.7596409998368,None,1568.7596409998368,None,1568.7596409998368,None,1568.7596409998368,None,f,0.3704490000382066,1568.7596409998368,None,1568.7596409998368,None,1569.178734399844,None,1569.178734399844,None,1569.178734399844,None,1569.178734399844,None,1569.178734399844,None,1569.178734399844,None,1569.4736625999212,None,1569.4736625999212,None,1571.2036782999057,None,1571.2036782999057,None,1571.2036782999057,None,1571.2036782999057,None,1571.2036782999057,None,1571.2036782999057,None,1571.2036782999057,None,1571.2036782999057,None,1571.2036782999057,None,65,58,33,72,58,30,1573.7254848999437,None,4.0,0.4854328001383692,1573.7254848999437,None,1573.7254848999437,None,1573.7254848999437,None,1573.7254848999437,None,None,None,1574.2265600999817,None,,,,,,,135,f,1,2022_Dec_12_1737,RL,2021.2.3,59.91446615431703,
