bandit,trials.thisRepN,trials.thisTrialN,trials.thisN,trials.thisIndex,instru_img1.started,instru_img1.stopped,instru_resp.keys,instru_resp.rt,instru_resp.started,instru_resp.stopped,instru_img2.started,instru_img2.stopped,instru_resp2.keys,instru_resp2.rt,instru_resp2.started,instru_resp2.stopped,fixbefore_2.started,fixbefore_2.stopped,rest_image.started,rest_image.stopped,rest_response.keys,rest_response.started,rest_response.stopped,red.started,red.stopped,green.started,green.stopped,yellow.started,yellow.stopped,blue.started,blue.stopped,choose_bandit.keys,choose_bandit.rt,choose_bandit.started,choose_bandit.stopped,Fixation.started,Fixation.stopped,black.started,black.stopped,red_2.started,red_2.stopped,green_2.started,green_2.stopped,yellow_2.started,yellow_2.stopped,blue_2.started,blue_2.stopped,fixation_2.started,fixation_2.stopped,docs.started,docs.stopped,image_2.started,image_2.stopped,black_com.started,black_com.stopped,reward_sub.started,reward_sub.stopped,palyerb.started,palyerb.stopped,reward__sub.started,reward__sub.stopped,compare.started,compare.stopped,red_compare.started,red_compare.stopped,green_com.started,green_com.stopped,yellow_com.started,yellow_com.stopped,blue_com.started,blue_com.stopped,rewardyellow,rewardred,rewardblue,rewardgreen,subchoose,playerb,image_3.started,image_3.stopped,slider.response,slider.rt,slider.started,slider.stopped,text.started,text.stopped,image_4.started,image_4.stopped,image_5.started,image_5.stopped,bigx.started,bigx.stopped,intertrialfix.started,intertrialfix.stopped,rest_response.rt,image.started,image.stopped,key_resp.keys,key_resp.started,key_resp.stopped,participant,Gender,Age,date,expName,psychopyVersion,frameRate,
,,,,,24.771906699985266,None,space,4.8473388000857085,24.771906699985266,None,,,,,,,,,,,,,,,,,,,,,,,,,,,,,,,,,,,,,,,,,,,,,,,,,,,,,,,,,,,,,,,,,,,,,,,,,,,,,,,,,,,,,,,,,,137,f,1,2022_Dec_13_1339,RL,2021.2.3,59.89315058666729,
,,,,,,,,,,,29.64804770005867,None,space,5.99094960000366,29.64804770005867,None,,,,,,,,,,,,,,,,,,,,,,,,,,,,,,,,,,,,,,,,,,,,,,,,,,,,,,,,,,,,,,,,,,,,,,,,,,,,,,,,,,,,137,f,1,2022_Dec_13_1339,RL,2021.2.3,59.89315058666729,
1,0,0,0,0,,,,,,,,,,,,,35.67841860000044,None,None,None,None,None,None,36.69866840005852,None,36.69866840005852,None,36.69866840005852,None,36.69866840005852,None,r,0.5804475999902934,36.69866840005852,None,36.69866840005852,None,37.33252659998834,None,37.33252659998834,None,37.33252659998834,None,37.33252659998834,None,37.33252659998834,None,37.33252659998834,None,37.61823759996332,39.0858630000148,37.61823759996332,39.0858630000148,39.12882489990443,None,39.12882489990443,None,39.12882489990443,None,39.12882489990443,None,39.12882489990443,None,39.12882489990443,None,39.12882489990443,None,39.12882489990443,None,39.12882489990443,None,72,42,36,61,72,69,41.6659609999042,None,6.0,1.8821606000419706,41.6659609999042,None,41.6659609999042,None,41.6659609999042,None,41.6659609999042,None,None,None,43.583041599951684,None,,,,,,,137,f,1,2022_Dec_13_1339,RL,2021.2.3,59.89315058666729,
1,1,0,1,0,,,,,,,,,,,,,,,None,None,None,None,None,45.2276612999849,None,45.2276612999849,None,45.2276612999849,None,45.2276612999849,None,i,0.9222740998957306,45.2276612999849,None,45.2276612999849,None,46.19572119996883,None,46.19572119996883,None,46.19572119996883,None,46.19572119996883,None,46.19572119996883,None,46.19572119996883,None,46.49097909987904,None,46.49097909987904,None,48.25089280004613,None,48.25089280004613,None,48.25089280004613,None,48.25089280004613,None,48.25089280004613,None,48.25089280004613,None,48.25089280004613,None,48.25089280004613,None,48.25089280004613,None,64,40,37,68,37,70,50.77582859992981,None,3.0,1.2873851000331342,50.77582859992981,None,50.77582859992981,None,50.77582859992981,None,50.77582859992981,None,None,None,52.080153999850154,None,,,,,,,137,f,1,2022_Dec_13_1339,RL,2021.2.3,59.89315058666729,
1,2,0,2,0,,,,,,,,,,,,,,,None,None,None,None,None,53.93200969998725,None,53.93200969998725,None,53.93200969998725,None,53.93200969998725,None,i,0.6277505001053214,53.93200969998725,None,53.93200969998725,None,54.60785329993814,None,54.60785329993814,None,54.60785329993814,None,54.60785329993814,None,54.60785329993814,None,54.60785329993814,None,54.89693299983628,None,54.89693299983628,None,55.86394439986907,None,55.86394439986907,None,55.86394439986907,None,55.86394439986907,None,55.86394439986907,None,55.86394439986907,None,55.86394439986907,None,55.86394439986907,None,55.86394439986907,None,74,37,42,57,42,71,58.380832799943164,None,4.0,1.0044696000404656,58.380832799943164,None,58.380832799943164,None,58.380832799943164,None,58.380832799943164,None,None,None,59.39990870002657,None,,,,,,,137,f,1,2022_Dec_13_1339,RL,2021.2.3,59.89315058666729,
1,3,0,3,0,,,,,,,,,,,,,,,None,None,None,None,None,60.986800599843264,None,60.986800599843264,None,60.986800599843264,None,60.986800599843264,None,r,0.4533283000346273,60.986800599843264,None,60.986800599843264,None,61.48879019985907,None,61.48879019985907,None,61.48879019985907,None,61.48879019985907,None,61.48879019985907,None,61.48879019985907,None,61.785041299881414,None,61.785041299881414,None,63.76915239985101,None,63.76915239985101,None,63.76915239985101,None,63.76915239985101,None,63.76915239985101,None,63.76915239985101,None,63.76915239985101,None,63.76915239985101,None,63.76915239985101,None,82,52,47,65,82,53,66.28482279996388,None,6.0,1.5894040998537093,66.28482279996388,None,66.28482279996388,None,66.28482279996388,None,66.28482279996388,None,None,None,67.88905370002612,None,,,,,,,137,f,1,2022_Dec_13_1339,RL,2021.2.3,59.89315058666729,
1,4,0,4,0,,,,,,,,,,,,,,,None,None,None,None,None,69.67681899992749,None,69.67681899992749,None,69.67681899992749,None,69.67681899992749,None,r,0.463806499959901,69.67681899992749,None,69.67681899992749,None,70.18020559987053,None,70.18020559987053,None,70.18020559987053,None,70.18020559987053,None,70.18020559987053,None,70.18020559987053,None,70.47421179991215,71.90848969994113,70.47421179991215,71.90848969994113,71.94215999986045,None,71.94215999986045,None,71.94215999986045,None,71.94215999986045,None,71.94215999986045,None,71.94215999986045,None,71.94215999986045,None,71.94215999986045,None,71.94215999986045,None,70,39,56,68,70,66,74.4563773998525,None,6.0,1.354431000072509,74.4563773998525,None,74.4563773998525,None,74.4563773998525,None,74.4563773998525,None,None,None,75.82748989993706,None,,,,,,,137,f,1,2022_Dec_13_1339,RL,2021.2.3,59.89315058666729,
1,5,0,5,0,,,,,,,,,,,,,,,None,None,None,None,None,77.60031719994731,None,77.60031719994731,None,77.60031719994731,None,77.60031719994731,None,f,0.46000800002366304,77.60031719994731,None,77.60031719994731,None,78.10099289985374,None,78.10099289985374,None,78.10099289985374,None,78.10099289985374,None,78.10099289985374,None,78.10099289985374,None,78.39650649996474,None,78.39650649996474,None,80.0786355000455,None,80.0786355000455,None,80.0786355000455,None,80.0786355000455,None,80.0786355000455,None,80.0786355000455,None,80.0786355000455,None,80.0786355000455,None,80.0786355000455,None,75,47,44,53,47,59,82.59496619994752,None,3.0,0.9371382999233902,82.59496619994752,None,82.59496619994752,None,82.59496619994752,None,82.59496619994752,None,None,None,83.55672709993087,None,,,,,,,137,f,1,2022_Dec_13_1339,RL,2021.2.3,59.89315058666729,
1,6,0,6,0,,,,,,,,,,,,,,,None,None,None,None,None,85.45417989999987,None,85.45417989999987,None,85.45417989999987,None,85.45417989999987,None,r,0.4657864000182599,85.45417989999987,None,85.45417989999987,None,85.97331969998777,None,85.97331969998777,None,85.97331969998777,None,85.97331969998777,None,85.97331969998777,None,85.97331969998777,None,86.26859320001677,87.31913309986703,86.26859320001677,87.31913309986703,87.35250799986534,None,87.35250799986534,None,87.35250799986534,None,87.35250799986534,None,87.35250799986534,None,87.35250799986534,None,87.35250799986534,None,87.35250799986534,None,87.35250799986534,None,81,55,62,56,81,50,89.87152439984493,None,6.0,1.4687995000276715,89.87152439984493,None,89.87152439984493,None,89.87152439984493,None,89.87152439984493,None,None,None,91.35507839987986,None,,,,,,,137,f,1,2022_Dec_13_1339,RL,2021.2.3,59.89315058666729,
1,7,0,7,0,,,,,,,,,,,,,,,None,None,None,None,None,93.10967539995909,None,93.10967539995909,None,93.10967539995909,None,93.10967539995909,None,r,0.4307510999497026,93.10967539995909,None,93.10967539995909,None,93.5797661000397,None,93.5797661000397,None,93.5797661000397,None,93.5797661000397,None,93.5797661000397,None,93.5797661000397,None,93.87409159983508,None,93.87409159983508,None,95.74098029988818,None,95.74098029988818,None,95.74098029988818,None,95.74098029988818,None,95.74098029988818,None,95.74098029988818,None,95.74098029988818,None,95.74098029988818,None,95.74098029988818,None,77,49,61,61,77,63,98.25769619992934,None,7.0,1.0865241999272257,98.25769619992934,None,98.25769619992934,None,98.25769619992934,None,98.25769619992934,None,None,None,99.36082479986362,None,,,,,,,137,f,1,2022_Dec_13_1339,RL,2021.2.3,59.89315058666729,
1,8,0,8,0,,,,,,,,,,,,,,,None,None,None,None,None,101.26202260004357,None,101.26202260004357,None,101.26202260004357,None,101.26202260004357,None,r,0.5983653001021594,101.26202260004357,None,101.26202260004357,None,101.90692629991099,None,101.90692629991099,None,101.90692629991099,None,101.90692629991099,None,101.90692629991099,None,101.90692629991099,None,102.1962712998502,103.51373620005324,102.1962712998502,103.51373620005324,103.55034579988569,None,103.55034579988569,None,103.55034579988569,None,103.55034579988569,None,103.55034579988569,None,103.55034579988569,None,103.55034579988569,None,103.55034579988569,None,103.55034579988569,None,84,61,59,56,84,54,106.0632666000165,None,5.0,1.1701812001410872,106.0632666000165,None,106.0632666000165,None,106.0632666000165,None,106.0632666000165,None,None,None,107.2492796999868,None,,,,,,,137,f,1,2022_Dec_13_1339,RL,2021.2.3,59.89315058666729,
1,9,0,9,0,,,,,,,,,,,,,,,None,None,None,None,None,108.90350380004384,None,108.90350380004384,None,108.90350380004384,None,108.90350380004384,None,r,0.6368170001078397,108.90350380004384,None,108.90350380004384,None,109.59115529991686,None,109.59115529991686,None,109.59115529991686,None,109.59115529991686,None,109.59115529991686,None,109.59115529991686,None,109.88495879992843,111.21924969996326,109.88495879992843,111.21924969996326,111.25177309988067,None,111.25177309988067,None,111.25177309988067,None,111.25177309988067,None,111.25177309988067,None,111.25177309988067,None,111.25177309988067,None,111.25177309988067,None,111.25177309988067,None,80,60,61,56,80,51,113.77230770001188,None,5.0,1.6494689001701772,113.77230770001188,None,113.77230770001188,None,113.77230770001188,None,113.77230770001188,None,None,None,115.43843470001593,None,,,,,,,137,f,1,2022_Dec_13_1339,RL,2021.2.3,59.89315058666729,
1,10,0,10,0,,,,,,,,,,,,,,,None,None,None,None,None,117.39360659988597,None,117.39360659988597,None,117.39360659988597,None,117.39360659988597,None,r,0.6167115001007915,117.39360659988597,None,117.39360659988597,None,118.06438439991325,None,118.06438439991325,None,118.06438439991325,None,118.06438439991325,None,118.06438439991325,None,118.06438439991325,None,118.34090519999154,120.00849439995363,118.34090519999154,120.00849439995363,120.04489969997667,None,120.04489969997667,None,120.04489969997667,None,120.04489969997667,None,120.04489969997667,None,120.04489969997667,None,120.04489969997667,None,120.04489969997667,None,120.04489969997667,None,73,53,63,50,73,45,122.55696680000983,None,7.0,1.3875961999874562,122.55696680000983,None,122.55696680000983,None,122.55696680000983,None,122.55696680000983,None,None,None,123.96226169983856,None,,,,,,,137,f,1,2022_Dec_13_1339,RL,2021.2.3,59.89315058666729,
1,11,0,11,0,,,,,,,,,,,,,,,None,None,None,None,None,125.83187790005468,None,125.83187790005468,None,125.83187790005468,None,125.83187790005468,None,r,0.5085672999266535,125.83187790005468,None,125.83187790005468,None,126.38965080003254,None,126.38965080003254,None,126.38965080003254,None,126.38965080003254,None,126.38965080003254,None,126.38965080003254,None,126.67996109998785,None,126.67996109998785,None,128.38153729983605,None,128.38153729983605,None,128.38153729983605,None,128.38153729983605,None,128.38153729983605,None,128.38153729983605,None,128.38153729983605,None,128.38153729983605,None,128.38153729983605,None,66,44,64,52,66,59,130.89671609993093,None,7.0,1.9065944000612944,130.89671609993093,None,130.89671609993093,None,130.89671609993093,None,130.89671609993093,None,None,None,132.81712360004894,None,,,,,,,137,f,1,2022_Dec_13_1339,RL,2021.2.3,59.89315058666729,
1,12,0,12,0,,,,,,,,,,,,,,,None,None,None,None,None,134.5718590999022,None,134.5718590999022,None,134.5718590999022,None,134.5718590999022,None,r,0.7886576000601053,134.5718590999022,None,134.5718590999022,None,135.4092524999287,None,135.4092524999287,None,135.4092524999287,None,135.4092524999287,None,135.4092524999287,None,135.4092524999287,None,135.68625919986516,136.9870188999921,135.68625919986516,136.9870188999921,137.01974679995328,None,137.01974679995328,None,137.01974679995328,None,137.01974679995328,None,137.01974679995328,None,137.01974679995328,None,137.01974679995328,None,137.01974679995328,None,137.01974679995328,None,61,39,57,53,61,54,139.54311869991943,None,6.0,1.815696599893272,139.54311869991943,None,139.54311869991943,None,139.54311869991943,None,139.54311869991943,None,None,None,141.37318570003845,None,,,,,,,137,f,1,2022_Dec_13_1339,RL,2021.2.3,59.89315058666729,
1,13,0,13,0,,,,,,,,,,,,,,,None,None,None,None,None,143.1604098000098,None,143.1604098000098,None,143.1604098000098,None,143.1604098000098,None,r,0.5199627000838518,143.1604098000098,None,143.1604098000098,None,143.73566649993882,None,143.73566649993882,None,143.73566649993882,None,143.73566649993882,None,143.73566649993882,None,143.73566649993882,None,144.02553349989466,None,144.02553349989466,None,145.48939509992488,None,145.48939509992488,None,145.48939509992488,None,145.48939509992488,None,145.48939509992488,None,145.48939509992488,None,145.48939509992488,None,145.48939509992488,None,145.48939509992488,None,74,42,58,55,74,59,148.00871809991077,None,6.0,0.7547613999340683,148.00871809991077,None,148.00871809991077,None,148.00871809991077,None,148.00871809991077,None,None,None,148.77805899991654,None,,,,,,,137,f,1,2022_Dec_13_1339,RL,2021.2.3,59.89315058666729,
1,14,0,14,0,,,,,,,,,,,,,,,None,None,None,None,None,150.36609110003337,None,150.36609110003337,None,150.36609110003337,None,150.36609110003337,None,r,0.43446929985657334,150.36609110003337,None,150.36609110003337,None,150.85310079995543,None,150.85310079995543,None,150.85310079995543,None,150.85310079995543,None,150.85310079995543,None,150.85310079995543,None,151.14697259990498,152.1975984000601,151.14697259990498,152.1975984000601,152.22941529983655,None,152.22941529983655,None,152.22941529983655,None,152.22941529983655,None,152.22941529983655,None,152.22941529983655,None,152.22941529983655,None,152.22941529983655,None,152.22941529983655,None,71,51,61,46,71,60,154.74554160004482,None,5.0,1.1542628000024706,154.74554160004482,None,154.74554160004482,None,154.74554160004482,None,154.74554160004482,None,None,None,155.91651559993625,None,,,,,,,137,f,1,2022_Dec_13_1339,RL,2021.2.3,59.89315058666729,
1,15,0,15,0,,,,,,,,,,,,,,,None,None,None,None,None,157.60443169996142,None,157.60443169996142,None,157.60443169996142,None,157.60443169996142,None,r,0.5254642001818866,157.60443169996142,None,157.60443169996142,None,158.15965809999034,None,158.15965809999034,None,158.15965809999034,None,158.15965809999034,None,158.15965809999034,None,158.15965809999034,None,158.45213359990157,159.6191382999532,158.45213359990157,159.6191382999532,159.63969810004346,None,159.63969810004346,None,159.63969810004346,None,159.63969810004346,None,159.63969810004346,None,159.63969810004346,None,159.63969810004346,None,159.63969810004346,None,159.63969810004346,None,81,60,62,52,81,64,162.1685577998869,None,5.0,2.004432499874383,162.1685577998869,None,162.1685577998869,None,162.1685577998869,None,162.1685577998869,None,None,None,164.1890759000089,None,,,,,,,137,f,1,2022_Dec_13_1339,RL,2021.2.3,59.89315058666729,
1,16,0,16,0,,,,,,,,,,,,,,,None,None,None,None,None,166.15983249992132,None,166.15983249992132,None,166.15983249992132,None,166.15983249992132,None,r,0.7010093999560922,166.15983249992132,None,166.15983249992132,None,166.91639559995383,None,166.91639559995383,None,166.91639559995383,None,166.91639559995383,None,166.91639559995383,None,166.91639559995383,None,167.2081646998413,None,167.2081646998413,None,169.17178620002232,None,169.17178620002232,None,169.17178620002232,None,169.17178620002232,None,169.17178620002232,None,169.17178620002232,None,169.17178620002232,None,169.17178620002232,None,169.17178620002232,None,73,62,62,58,73,26,171.68977539986372,None,4.0,1.056839199969545,171.68977539986372,None,171.68977539986372,None,171.68977539986372,None,171.68977539986372,None,None,None,172.76263989997096,None,,,,,,,137,f,1,2022_Dec_13_1339,RL,2021.2.3,59.89315058666729,
1,17,0,17,0,,,,,,,,,,,,,,,None,None,None,None,None,174.349128899863,None,174.349128899863,None,174.349128899863,None,174.349128899863,None,r,0.7815688999835402,174.349128899863,None,174.349128899863,None,175.16883670003153,None,175.16883670003153,None,175.16883670003153,None,175.16883670003153,None,175.16883670003153,None,175.16883670003153,None,175.46383200003766,None,175.46383200003766,None,176.5925729998853,None,176.5925729998853,None,176.5925729998853,None,176.5925729998853,None,176.5925729998853,None,176.5925729998853,None,176.5925729998853,None,176.5925729998853,None,176.5925729998853,None,67,60,67,61,67,33,179.11187979998067,None,4.0,1.3065776000730693,179.11187979998067,None,179.11187979998067,None,179.11187979998067,None,179.11187979998067,None,None,None,180.43341759988107,None,,,,,,,137,f,1,2022_Dec_13_1339,RL,2021.2.3,59.89315058666729,
1,18,0,18,0,,,,,,,,,,,,,,,None,None,None,None,None,182.00445639993995,None,182.00445639993995,None,182.00445639993995,None,182.00445639993995,None,r,0.7464283998124301,182.00445639993995,None,182.00445639993995,None,182.78925969987176,None,182.78925969987176,None,182.78925969987176,None,182.78925969987176,None,182.78925969987176,None,182.78925969987176,None,183.08584529999644,184.43661629990675,183.08584529999644,184.43661629990675,184.46783259999938,None,184.46783259999938,None,184.46783259999938,None,184.46783259999938,None,184.46783259999938,None,184.46783259999938,None,184.46783259999938,None,184.46783259999938,None,184.46783259999938,None,75,64,74,60,75,53,186.98896620003507,None,4.0,1.4017572000157088,186.98896620003507,None,186.98896620003507,None,186.98896620003507,None,186.98896620003507,None,None,None,188.40580870001577,None,,,,,,,137,f,1,2022_Dec_13_1339,RL,2021.2.3,59.89315058666729,
1,19,0,19,0,,,,,,,,,,,,,,,None,None,None,None,None,189.9932752000168,None,189.9932752000168,None,189.9932752000168,None,189.9932752000168,None,r,0.9674110000487417,189.9932752000168,None,189.9932752000168,None,191.01199420006014,None,191.01199420006014,None,191.01199420006014,None,191.01199420006014,None,191.01199420006014,None,191.01199420006014,None,191.308214899851,None,191.308214899851,None,192.53873729985207,None,192.53873729985207,None,192.53873729985207,None,192.53873729985207,None,192.53873729985207,None,192.53873729985207,None,192.53873729985207,None,192.53873729985207,None,192.53873729985207,None,73,60,64,67,73,68,195.05656249984168,None,3.0,1.7056700000539422,195.05656249984168,None,195.05656249984168,None,195.05656249984168,None,195.05656249984168,None,None,None,196.77850320003927,None,,,,,,,137,f,1,2022_Dec_13_1339,RL,2021.2.3,59.89315058666729,
1,20,0,20,0,,,,,,,,,,,,,,,None,None,None,None,None,198.38238850003108,None,198.38238850003108,None,198.38238850003108,None,198.38238850003108,None,r,0.9094143998809159,198.38238850003108,None,198.38238850003108,None,199.33622719999403,None,199.33622719999403,None,199.33622719999403,None,199.33622719999403,None,199.33622719999403,None,199.33622719999403,None,199.63053449988365,None,199.63053449988365,None,201.39972850005142,None,201.39972850005142,None,201.39972850005142,None,201.39972850005142,None,201.39972850005142,None,201.39972850005142,None,201.39972850005142,None,201.39972850005142,None,201.39972850005142,None,72,65,55,65,72,61,203.91809389996342,None,4.0,2.066944499965757,203.91809389996342,None,203.91809389996342,None,203.91809389996342,None,203.91809389996342,None,None,None,206.00772779993713,None,,,,,,,137,f,1,2022_Dec_13_1339,RL,2021.2.3,59.89315058666729,
1,21,0,21,0,,,,,,,,,,,,,,,None,None,None,None,None,207.9890693000052,None,207.9890693000052,None,207.9890693000052,None,207.9890693000052,None,r,0.6428988000843674,207.9890693000052,None,207.9890693000052,None,208.67659739986993,None,208.67659739986993,None,208.67659739986993,None,208.67659739986993,None,208.67659739986993,None,208.67659739986993,None,208.95360899996012,210.27121799997985,208.95360899996012,210.27121799997985,210.3225620999001,None,210.3225620999001,None,210.3225620999001,None,210.3225620999001,None,210.3225620999001,None,210.3225620999001,None,210.3225620999001,None,210.3225620999001,None,210.3225620999001,None,68,58,68,60,68,61,212.8425678999629,None,3.0,2.151737099979073,212.8425678999629,None,212.8425678999629,None,212.8425678999629,None,212.8425678999629,None,None,None,215.00764159997925,None,,,,,,,137,f,1,2022_Dec_13_1339,RL,2021.2.3,59.89315058666729,
1,22,0,22,0,,,,,,,,,,,,,,,None,None,None,None,None,216.62874279986136,None,216.62874279986136,None,216.62874279986136,None,216.62874279986136,None,j,0.9234150999691337,216.62874279986136,None,216.62874279986136,None,217.60842609987594,None,217.60842609987594,None,217.60842609987594,None,217.60842609987594,None,217.60842609987594,None,217.60842609987594,None,217.89326879987493,219.02713249996305,217.89326879987493,219.02713249996305,219.0590641000308,None,219.0590641000308,None,219.0590641000308,None,219.0590641000308,None,219.0590641000308,None,219.0590641000308,None,219.0590641000308,None,219.0590641000308,None,219.0590641000308,None,72,54,70,63,63,67,221.5680470999796,None,5.0,2.06230689981021,221.5680470999796,None,221.5680470999796,None,221.5680470999796,None,221.5680470999796,None,None,None,223.64658529986627,None,,,,,,,137,f,1,2022_Dec_13_1339,RL,2021.2.3,59.89315058666729,
1,23,0,23,0,,,,,,,,,,,,,,,None,None,None,None,None,225.25120439985767,None,225.25120439985767,None,225.25120439985767,None,225.25120439985767,None,r,0.7011931999586523,225.25120439985767,None,225.25120439985767,None,226.00389979989268,None,226.00389979989268,None,226.00389979989268,None,226.00389979989268,None,226.00389979989268,None,226.00389979989268,None,226.29907499998808,None,226.29907499998808,None,227.99855749984272,None,227.99855749984272,None,227.99855749984272,None,227.99855749984272,None,227.99855749984272,None,227.99855749984272,None,227.99855749984272,None,227.99855749984272,None,227.99855749984272,None,72,61,65,46,72,52,230.51571309985593,None,6.0,1.0726044999901205,230.51571309985593,None,230.51571309985593,None,230.51571309985593,None,230.51571309985593,None,None,None,231.60437459987588,None,,,,,,,137,f,1,2022_Dec_13_1339,RL,2021.2.3,59.89315058666729,
1,24,0,24,0,,,,,,,,,,,,,,,None,None,None,None,None,233.5408504998777,None,233.5408504998777,None,233.5408504998777,None,233.5408504998777,None,r,0.7209443999454379,233.5408504998777,None,233.5408504998777,None,234.30993269989267,None,234.30993269989267,None,234.30993269989267,None,234.30993269989267,None,234.30993269989267,None,234.30993269989267,None,234.6048293998465,None,234.6048293998465,None,236.4766903000418,None,236.4766903000418,None,236.4766903000418,None,236.4766903000418,None,236.4766903000418,None,236.4766903000418,None,236.4766903000418,None,236.4766903000418,None,236.4766903000418,None,73,59,69,49,73,65,239.00569849996828,None,5.0,1.588119899854064,239.00569849996828,None,239.00569849996828,None,239.00569849996828,None,239.00569849996828,None,None,None,240.61555349989794,None,,,,,,,137,f,1,2022_Dec_13_1339,RL,2021.2.3,59.89315058666729,
1,25,0,25,0,,,,,,,,,,,,,,,None,None,None,None,None,242.5626016999595,None,242.5626016999595,None,242.5626016999595,None,242.5626016999595,None,r,0.8595302000176162,242.5626016999595,None,242.5626016999595,None,243.46582639985718,None,243.46582639985718,None,243.46582639985718,None,243.46582639985718,None,243.46582639985718,None,243.46582639985718,None,243.7610511998646,None,243.7610511998646,None,244.73143389984034,None,244.73143389984034,None,244.73143389984034,None,244.73143389984034,None,244.73143389984034,None,244.73143389984034,None,244.73143389984034,None,244.73143389984034,None,244.73143389984034,None,78,62,66,47,78,66,247.2435154998675,None,4.0,1.4833298998419195,247.2435154998675,None,247.2435154998675,None,247.2435154998675,None,247.2435154998675,None,None,None,248.74723639991134,None,,,,,,,137,f,1,2022_Dec_13_1339,RL,2021.2.3,59.89315058666729,
1,26,0,26,0,,,,,,,,,,,,,,,None,None,None,None,None,250.7025252999738,None,250.7025252999738,None,250.7025252999738,None,250.7025252999738,None,r,0.4797691002022475,250.7025252999738,None,250.7025252999738,None,251.22120509995148,None,251.22120509995148,None,251.22120509995148,None,251.22120509995148,None,251.22120509995148,None,251.22120509995148,None,251.51652930001728,None,251.51652930001728,None,252.41412109998055,None,252.41412109998055,None,252.41412109998055,None,252.41412109998055,None,252.41412109998055,None,252.41412109998055,None,252.41412109998055,None,252.41412109998055,None,252.41412109998055,None,71,56,66,47,71,69,254.92084869998507,None,5.0,1.5995001001283526,254.92084869998507,None,254.92084869998507,None,254.92084869998507,None,254.92084869998507,None,None,None,256.54123490001075,None,,,,,,,137,f,1,2022_Dec_13_1339,RL,2021.2.3,59.89315058666729,
1,27,0,27,0,,,,,,,,,,,,,,,None,None,None,None,None,258.47347790002823,None,258.47347790002823,None,258.47347790002823,None,258.47347790002823,None,r,0.4089751001447439,258.47347790002823,None,258.47347790002823,None,258.92532549984753,None,258.92532549984753,None,258.92532549984753,None,258.92532549984753,None,258.92532549984753,None,258.92532549984753,None,259.22206389997154,None,259.22206389997154,None,260.76136179990135,None,260.76136179990135,None,260.76136179990135,None,260.76136179990135,None,260.76136179990135,None,260.76136179990135,None,260.76136179990135,None,260.76136179990135,None,260.76136179990135,None,75,52,63,45,75,53,263.2876150000375,None,5.0,0.9728490998968482,263.2876150000375,None,263.2876150000375,None,263.2876150000375,None,263.2876150000375,None,None,None,264.2750684998464,None,,,,,,,137,f,1,2022_Dec_13_1339,RL,2021.2.3,59.89315058666729,
1,28,0,28,0,,,,,,,,,,,,,,,None,None,None,None,None,266.2798717999831,None,266.2798717999831,None,266.2798717999831,None,266.2798717999831,None,r,0.6725809997878969,266.2798717999831,None,266.2798717999831,None,267.006599499844,None,267.006599499844,None,267.006599499844,None,267.006599499844,None,267.006599499844,None,267.006599499844,None,267.2941502998583,268.96184729994275,267.2941502998583,268.96184729994275,268.99669619998895,None,268.99669619998895,None,268.99669619998895,None,268.99669619998895,None,268.99669619998895,None,268.99669619998895,None,268.99669619998895,None,268.99669619998895,None,268.99669619998895,None,78,56,59,49,78,54,271.5101203999948,None,6.0,0.8884389000013471,271.5101203999948,None,271.5101203999948,None,271.5101203999948,None,271.5101203999948,None,None,None,272.41381779988296,None,,,,,,,137,f,1,2022_Dec_13_1339,RL,2021.2.3,59.89315058666729,
1,29,0,29,0,,,,,,,,,,,,,,,None,None,None,None,None,274.2353627998382,None,274.2353627998382,None,274.2353627998382,None,274.2353627998382,None,r,0.4470893999096006,274.2353627998382,None,274.2353627998382,None,274.722604499897,None,274.722604499897,None,274.722604499897,None,274.722604499897,None,274.722604499897,None,274.722604499897,None,274.9996306998655,276.5670314999297,274.9996306998655,276.5670314999297,276.62075680005364,None,276.62075680005364,None,276.62075680005364,None,276.62075680005364,None,276.62075680005364,None,276.62075680005364,None,276.62075680005364,None,276.62075680005364,None,276.62075680005364,None,82,50,57,38,82,50,279.1483456999995,None,7.0,0.973215299891308,279.1483456999995,None,279.1483456999995,None,279.1483456999995,None,279.1483456999995,None,None,None,280.1365284998901,None,,,,,,,137,f,1,2022_Dec_13_1339,RL,2021.2.3,59.89315058666729,
1,30,0,30,0,,,,,,,,,,,,,,,None,None,None,None,None,281.753762899898,None,281.753762899898,None,281.753762899898,None,281.753762899898,None,r,0.9786094999872148,281.753762899898,None,281.753762899898,None,282.7759440999944,None,282.7759440999944,None,282.7759440999944,None,282.7759440999944,None,282.7759440999944,None,282.7759440999944,None,283.0717587999534,None,283.0717587999534,None,284.4530354999006,None,284.4530354999006,None,284.4530354999006,None,284.4530354999006,None,284.4530354999006,None,284.4530354999006,None,284.4530354999006,None,284.4530354999006,None,284.4530354999006,None,82,44,51,51,82,61,286.976572799962,None,7.0,0.7331898999400437,286.976572799962,None,286.976572799962,None,286.976572799962,None,286.976572799962,None,None,None,287.72449439996853,None,,,,,,,137,f,1,2022_Dec_13_1339,RL,2021.2.3,59.89315058666729,
1,31,0,31,0,,,,,,,,,,,,,,,None,None,None,None,None,289.24538049986586,None,289.24538049986586,None,289.24538049986586,None,289.24538049986586,None,f,1.0967431999742985,289.24538049986586,None,289.24538049986586,None,290.3823293999303,None,290.3823293999303,None,290.3823293999303,None,290.3823293999303,None,290.3823293999303,None,290.3823293999303,None,290.67699239985086,None,290.67699239985086,None,291.61052910005674,None,291.61052910005674,None,291.61052910005674,None,291.61052910005674,None,291.61052910005674,None,291.61052910005674,None,291.61052910005674,None,291.61052910005674,None,291.61052910005674,None,72,60,58,42,60,34,294.1233542000409,None,5.0,1.0730506000109017,294.1233542000409,None,294.1233542000409,None,294.1233542000409,None,294.1233542000409,None,None,None,295.213126800023,None,,,,,,,137,f,1,2022_Dec_13_1339,RL,2021.2.3,59.89315058666729,
1,32,0,32,0,,,,,,,,,,,,,,,None,None,None,None,None,296.9176993998699,None,296.9176993998699,None,296.9176993998699,None,296.9176993998699,None,r,0.7449708001222461,296.9176993998699,None,296.9176993998699,None,297.704144399846,None,297.704144399846,None,297.704144399846,None,297.704144399846,None,297.704144399846,None,297.704144399846,None,297.99882730003446,None,297.99882730003446,None,299.59842659998685,None,299.59842659998685,None,299.59842659998685,None,299.59842659998685,None,299.59842659998685,None,299.59842659998685,None,299.59842659998685,None,299.59842659998685,None,299.59842659998685,None,75,47,62,41,75,63,302.1152826999314,None,6.0,1.1892035999335349,302.1152826999314,None,302.1152826999314,None,302.1152826999314,None,302.1152826999314,None,None,None,303.3274819999933,None,,,,,,,137,f,1,2022_Dec_13_1339,RL,2021.2.3,59.89315058666729,
1,33,0,33,0,,,,,,,,,,,,,,,None,None,None,None,None,305.0068795999978,None,305.0068795999978,None,305.0068795999978,None,305.0068795999978,None,r,0.5356268999166787,305.0068795999978,None,305.0068795999978,None,305.59231289988384,None,305.59231289988384,None,305.59231289988384,None,305.59231289988384,None,305.59231289988384,None,305.59231289988384,None,305.8875212999992,306.7880112999119,305.8875212999992,306.7880112999119,306.81892709992826,None,306.81892709992826,None,306.81892709992826,None,306.81892709992826,None,306.81892709992826,None,306.81892709992826,None,306.81892709992826,None,306.81892709992826,None,306.81892709992826,None,83,55,62,34,83,50,309.3368255000096,None,7.0,0.7722585001029074,309.3368255000096,None,309.3368255000096,None,309.3368255000096,None,309.3368255000096,None,None,None,310.1279770999681,None,,,,,,,137,f,1,2022_Dec_13_1339,RL,2021.2.3,59.89315058666729,
1,34,0,34,0,,,,,,,,,,,,,,,None,None,None,None,None,311.8776229999494,None,311.8776229999494,None,311.8776229999494,None,311.8776229999494,None,r,0.5247016998473555,311.8776229999494,None,311.8776229999494,None,312.4482124999631,None,312.4482124999631,None,312.4482124999631,None,312.4482124999631,None,312.4482124999631,None,312.4482124999631,None,312.7426251999568,None,312.7426251999568,None,314.0562199000269,None,314.0562199000269,None,314.0562199000269,None,314.0562199000269,None,314.0562199000269,None,314.0562199000269,None,314.0562199000269,None,314.0562199000269,None,314.0562199000269,None,79,50,63,47,79,32,316.5744002999272,None,7.0,0.9221590999513865,316.5744002999272,None,316.5744002999272,None,316.5744002999272,None,316.5744002999272,None,None,None,317.51236439985223,None,,,,,,,137,f,1,2022_Dec_13_1339,RL,2021.2.3,59.89315058666729,
1,35,0,35,0,,,,,,,,,,,,,,,None,None,None,None,None,319.28335849987343,None,319.28335849987343,None,319.28335849987343,None,319.28335849987343,None,r,0.5692342999391258,319.28335849987343,None,319.28335849987343,None,319.9006373998709,None,319.9006373998709,None,319.9006373998709,None,319.9006373998709,None,319.9006373998709,None,319.9006373998709,None,320.19738289993256,None,320.19738289993256,None,321.62843879987486,None,321.62843879987486,None,321.62843879987486,None,321.62843879987486,None,321.62843879987486,None,321.62843879987486,None,321.62843879987486,None,321.62843879987486,None,321.62843879987486,None,76,37,55,42,76,67,324.14495199988596,None,4.0,1.1063596999738365,324.14495199988596,None,324.14495199988596,None,324.14495199988596,None,324.14495199988596,None,None,None,325.2670417998452,None,,,,,,,137,f,1,2022_Dec_13_1339,RL,2021.2.3,59.89315058666729,
1,36,0,36,0,,,,,,,,,,,,,,,None,None,None,None,None,326.90457260003313,None,326.90457260003313,None,326.90457260003313,None,326.90457260003313,None,r,0.6581314001232386,326.90457260003313,None,326.90457260003313,None,327.61373930005357,None,327.61373930005357,None,327.61373930005357,None,327.61373930005357,None,327.61373930005357,None,327.61373930005357,None,327.9027584998403,329.6039815999102,327.9027584998403,329.6039815999102,329.6365896000061,None,329.6365896000061,None,329.6365896000061,None,329.6365896000061,None,329.6365896000061,None,329.6365896000061,None,329.6365896000061,None,329.6365896000061,None,329.6365896000061,None,74,35,66,39,74,53,332.1576811999548,None,4.0,1.952441900037229,332.1576811999548,None,332.1576811999548,None,332.1576811999548,None,332.1576811999548,None,None,None,334.1283604998607,None,,,,,,,137,f,1,2022_Dec_13_1339,RL,2021.2.3,59.89315058666729,
1,37,0,37,0,,,,,,,,,,,,,,,None,None,None,None,None,335.8289538999088,None,335.8289538999088,None,335.8289538999088,None,335.8289538999088,None,r,0.5036719001363963,335.8289538999088,None,335.8289538999088,None,336.38297330006026,None,336.38297330006026,None,336.38297330006026,None,336.38297330006026,None,336.38297330006026,None,336.38297330006026,None,336.6756259999238,337.57608120003715,336.6756259999238,337.57608120003715,337.6093927999027,None,337.6093927999027,None,337.6093927999027,None,337.6093927999027,None,337.6093927999027,None,337.6093927999027,None,337.6093927999027,None,337.6093927999027,None,337.6093927999027,None,87,42,67,37,87,24,340.12325449986383,None,7.0,1.1057539000175893,340.12325449986383,None,340.12325449986383,None,340.12325449986383,None,340.12325449986383,None,None,None,341.2538000999484,None,,,,,,,137,f,1,2022_Dec_13_1339,RL,2021.2.3,59.89315058666729,
1,38,0,38,0,,,,,,,,,,,,,,,None,None,None,None,None,343.1664266998414,None,343.1664266998414,None,343.1664266998414,None,343.1664266998414,None,f,0.8163495999760926,343.1664266998414,None,343.1664266998414,None,344.0357323999051,None,344.0357323999051,None,344.0357323999051,None,344.0357323999051,None,344.0357323999051,None,344.0357323999051,None,344.330830299994,345.4648140000645,344.330830299994,345.4648140000645,345.50014370004646,None,345.50014370004646,None,345.50014370004646,None,345.50014370004646,None,345.50014370004646,None,345.50014370004646,None,345.50014370004646,None,345.50014370004646,None,345.50014370004646,None,85,44,69,30,44,64,348.01272919983603,None,3.0,0.8898424999788404,348.01272919983603,None,348.01272919983603,None,348.01272919983603,None,348.01272919983603,None,None,None,348.9237395999953,None,,,,,,,137,f,1,2022_Dec_13_1339,RL,2021.2.3,59.89315058666729,
1,39,0,39,0,,,,,,,,,,,,,,,None,None,None,None,None,350.8718222999014,None,350.8718222999014,None,350.8718222999014,None,350.8718222999014,None,r,0.561128499917686,350.8718222999014,None,350.8718222999014,None,351.47366719995625,None,351.47366719995625,None,351.47366719995625,None,351.47366719995625,None,351.47366719995625,None,351.47366719995625,None,351.76933809998445,None,351.76933809998445,None,353.20018419995904,None,353.20018419995904,None,353.20018419995904,None,353.20018419995904,None,353.20018419995904,None,353.20018419995904,None,353.20018419995904,None,353.20018419995904,None,353.20018419995904,None,84,47,68,41,84,44,355.7231854000129,None,7.0,1.3192000000271946,355.7231854000129,None,355.7231854000129,None,355.7231854000129,None,355.7231854000129,None,None,None,357.06046469998546,None,,,,,,,137,f,1,2022_Dec_13_1339,RL,2021.2.3,59.89315058666729,
1,40,0,40,0,,,,,,,,,,,,,,,None,None,None,None,None,358.6938896998763,None,358.6938896998763,None,358.6938896998763,None,358.6938896998763,None,r,0.5802222001366317,358.6938896998763,None,358.6938896998763,None,359.31268980004825,None,359.31268980004825,None,359.31268980004825,None,359.31268980004825,None,359.31268980004825,None,359.31268980004825,None,359.608203999931,None,359.608203999931,None,360.8388648000546,None,360.8388648000546,None,360.8388648000546,None,360.8388648000546,None,360.8388648000546,None,360.8388648000546,None,360.8388648000546,None,360.8388648000546,None,360.8388648000546,None,82,47,63,27,82,58,363.36192999989726,None,7.0,0.5838403000961989,363.36192999989726,None,363.36192999989726,None,363.36192999989726,None,363.36192999989726,None,None,None,363.9663515998982,None,,,,,,,137,f,1,2022_Dec_13_1339,RL,2021.2.3,59.89315058666729,
1,41,0,41,0,,,,,,,,,,,,,,,None,None,None,None,None,365.8816497998778,None,365.8816497998778,None,365.8816497998778,None,365.8816497998778,None,i,0.6722818999551237,365.8816497998778,None,365.8816497998778,None,366.5995565999765,None,366.5995565999765,None,366.5995565999765,None,366.5995565999765,None,366.5995565999765,None,366.5995565999765,None,366.8965453999117,None,366.8965453999117,None,368.81096659996547,None,368.81096659996547,None,368.81096659996547,None,368.81096659996547,None,368.81096659996547,None,368.81096659996547,None,368.81096659996547,None,368.81096659996547,None,368.81096659996547,None,64,44,62,34,62,62,371.3347587999888,None,4.0,1.400664099957794,371.3347587999888,None,371.3347587999888,None,371.3347587999888,None,371.3347587999888,None,None,None,372.7503418000415,None,,,,,,,137,f,1,2022_Dec_13_1339,RL,2021.2.3,59.89315058666729,
1,42,0,42,0,,,,,,,,,,,,,,,None,None,None,None,None,374.57158709992655,None,374.57158709992655,None,374.57158709992655,None,374.57158709992655,None,r,0.41226339992135763,374.57158709992655,None,374.57158709992655,None,375.01072459993884,None,375.01072459993884,None,375.01072459993884,None,375.01072459993884,None,375.01072459993884,None,375.01072459993884,None,375.3023073000368,376.3862910999451,375.3023073000368,376.3862910999451,376.4169004999567,None,376.4169004999567,None,376.4169004999567,None,376.4169004999567,None,376.4169004999567,None,376.4169004999567,None,376.4169004999567,None,376.4169004999567,None,376.4169004999567,None,77,47,58,30,77,42,378.93653950002044,None,6.0,2.0696221999824047,378.93653950002044,None,378.93653950002044,None,378.93653950002044,None,378.93653950002044,None,None,None,381.0222690999508,None,,,,,,,137,f,1,2022_Dec_13_1339,RL,2021.2.3,59.89315058666729,
1,43,0,43,0,,,,,,,,,,,,,,,None,None,None,None,None,382.64376239990816,None,382.64376239990816,None,382.64376239990816,None,382.64376239990816,None,r,0.39034359995275736,382.64376239990816,None,382.64376239990816,None,383.07998969987966,None,383.07998969987966,None,383.07998969987966,None,383.07998969987966,None,383.07998969987966,None,383.07998969987966,None,383.3745960998349,385.37594419997185,383.3745960998349,385.37594419997185,385.40667259995826,None,385.40667259995826,None,385.40667259995826,None,385.40667259995826,None,385.40667259995826,None,385.40667259995826,None,385.40667259995826,None,385.40667259995826,None,385.40667259995826,None,64,45,62,30,64,66,387.9238922998775,None,4.0,1.038959699915722,387.9238922998775,None,387.9238922998775,None,387.9238922998775,None,387.9238922998775,None,None,None,388.9779401998967,None,,,,,,,137,f,1,2022_Dec_13_1339,RL,2021.2.3,59.89315058666729,
1,44,0,44,0,,,,,,,,,,,,,,,None,None,None,None,None,390.7625845998991,None,390.7625845998991,None,390.7625845998991,None,390.7625845998991,None,r,0.4709566000383347,390.7625845998991,None,390.7625845998991,None,391.27148270001635,None,391.27148270001635,None,391.27148270001635,None,391.27148270001635,None,391.27148270001635,None,391.27148270001635,None,391.56334850005805,None,391.56334850005805,None,392.56262560002506,None,392.56262560002506,None,392.56262560002506,None,392.56262560002506,None,392.56262560002506,None,392.56262560002506,None,392.56262560002506,None,392.56262560002506,None,392.56262560002506,None,62,40,62,30,62,37,395.07972529996186,None,5.0,0.9722257000394166,395.07972529996186,None,395.07972529996186,None,395.07972529996186,None,395.07972529996186,None,None,None,396.0663097000215,None,,,,,,,137,f,1,2022_Dec_13_1339,RL,2021.2.3,59.89315058666729,
1,45,0,45,0,,,,,,,,,,,,,,,None,None,None,None,None,397.82050330005586,None,397.82050330005586,None,397.82050330005586,None,397.82050330005586,None,j,0.5234040999785066,397.82050330005586,None,397.82050330005586,None,398.392415399896,None,398.392415399896,None,398.392415399896,None,398.392415399896,None,398.392415399896,None,398.392415399896,None,398.68517079995945,None,398.68517079995945,None,400.19681530003436,None,400.19681530003436,None,400.19681530003436,None,400.19681530003436,None,400.19681530003436,None,400.19681530003436,None,400.19681530003436,None,400.19681530003436,None,400.19681530003436,None,65,45,59,30,30,59,402.7178227000404,None,1.0,2.090107100084424,402.7178227000404,None,402.7178227000404,None,402.7178227000404,None,402.7178227000404,None,None,None,404.82229889999144,None,,,,,,,137,f,1,2022_Dec_13_1339,RL,2021.2.3,59.89315058666729,
1,46,0,46,0,,,,,,,,,,,,,,,None,None,None,None,None,406.62715999991633,None,406.62715999991633,None,406.62715999991633,None,406.62715999991633,None,r,0.41692960006184876,406.62715999991633,None,406.62715999991633,None,407.095121699851,None,407.095121699851,None,407.095121699851,None,407.095121699851,None,407.095121699851,None,407.095121699851,None,407.39136429992504,None,407.39136429992504,None,408.68966099992394,None,408.68966099992394,None,408.68966099992394,None,408.68966099992394,None,408.68966099992394,None,408.68966099992394,None,408.68966099992394,None,408.68966099992394,None,408.68966099992394,None,70,35,61,31,70,67,411.20589610002935,None,4.0,1.1078166000079364,411.20589610002935,None,411.20589610002935,None,411.20589610002935,None,411.20589610002935,None,None,None,412.3365891999565,None,,,,,,,137,f,1,2022_Dec_13_1339,RL,2021.2.3,59.89315058666729,
1,47,0,47,0,,,,,,,,,,,,,,,None,None,None,None,None,414.08302100002766,None,414.08302100002766,None,414.08302100002766,None,414.08302100002766,None,r,0.40118249994702637,414.08302100002766,None,414.08302100002766,None,414.53904840000905,None,414.53904840000905,None,414.53904840000905,None,414.53904840000905,None,414.53904840000905,None,414.53904840000905,None,414.8298051999882,416.54759390000254,414.8298051999882,416.54759390000254,416.5845283998642,None,416.5845283998642,None,416.5845283998642,None,416.5845283998642,None,416.5845283998642,None,416.5845283998642,None,416.5845283998642,None,416.5845283998642,None,416.5845283998642,None,63,37,66,39,63,62,419.1173051998485,None,4.0,0.4839989999309182,419.1173051998485,None,419.1173051998485,None,419.1173051998485,None,419.1173051998485,None,None,None,419.61613429989666,None,,,,,,,137,f,1,2022_Dec_13_1339,RL,2021.2.3,59.89315058666729,
1,48,0,48,0,,,,,,,,,,,,,,,None,None,None,None,None,421.4376699998975,None,421.4376699998975,None,421.4376699998975,None,421.4376699998975,None,r,0.5965881999582052,421.4376699998975,None,421.4376699998975,None,422.07527110003866,None,422.07527110003866,None,422.07527110003866,None,422.07527110003866,None,422.07527110003866,None,422.07527110003866,None,422.36837909999304,424.11937440000474,422.36837909999304,424.11937440000474,424.14957030001096,None,424.14957030001096,None,424.14957030001096,None,424.14957030001096,None,424.14957030001096,None,424.14957030001096,None,424.14957030001096,None,424.14957030001096,None,424.14957030001096,None,62,44,48,46,62,33,426.6696448000148,None,6.0,1.0877863001078367,426.6696448000148,None,426.6696448000148,None,426.6696448000148,None,426.6696448000148,None,None,None,427.7729157998692,None,,,,,,,137,f,1,2022_Dec_13_1339,RL,2021.2.3,59.89315058666729,
1,49,0,49,0,,,,,,,,,,,,,,,None,None,None,None,None,429.49291609996,None,429.49291609996,None,429.49291609996,None,429.49291609996,None,r,0.9012913999613374,429.49291609996,None,429.49291609996,None,430.4478655999992,None,430.4478655999992,None,430.4478655999992,None,430.4478655999992,None,430.4478655999992,None,430.4478655999992,None,430.7241380000487,431.74125489988364,430.7241380000487,431.74125489988364,431.7932527998928,None,431.7932527998928,None,431.7932527998928,None,431.7932527998928,None,431.7932527998928,None,431.7932527998928,None,431.7932527998928,None,431.7932527998928,None,431.7932527998928,None,60,34,61,45,60,56,434.3069197998848,None,4.0,0.7197808001656085,434.3069197998848,None,434.3069197998848,None,434.3069197998848,None,434.3069197998848,None,None,None,435.05299660004675,None,,,,,,,137,f,1,2022_Dec_13_1339,RL,2021.2.3,59.89315058666729,
1,50,0,50,0,,,,,,,,,,,,,,,None,None,None,None,None,436.8647314000409,None,436.8647314000409,None,436.8647314000409,None,436.8647314000409,None,r,0.6896254001185298,436.8647314000409,None,436.8647314000409,None,437.6012949999422,None,437.6012949999422,None,437.6012949999422,None,437.6012949999422,None,437.6012949999422,None,437.6012949999422,None,437.89578259992413,439.54679699987173,437.89578259992413,439.54679699987173,439.578946699854,None,439.578946699854,None,439.578946699854,None,439.578946699854,None,439.578946699854,None,439.578946699854,None,439.578946699854,None,439.578946699854,None,439.578946699854,None,58,35,66,42,58,37,442.09520779992454,None,5.0,1.1027981999795884,442.09520779992454,None,442.09520779992454,None,442.09520779992454,None,442.09520779992454,None,None,None,443.21555979992263,None,,,,,,,137,f,1,2022_Dec_13_1339,RL,2021.2.3,59.89315058666729,
1,51,0,51,0,,,,,,,,,,,,,,,None,None,None,None,None,445.12047219998203,None,445.12047219998203,None,445.12047219998203,None,445.12047219998203,None,r,0.6339084999635816,445.12047219998203,None,445.12047219998203,None,445.8097228000406,None,445.8097228000406,None,445.8097228000406,None,445.8097228000406,None,445.8097228000406,None,445.8097228000406,None,446.10148709989153,None,446.10148709989153,None,446.9397262998391,None,446.9397262998391,None,446.9397262998391,None,446.9397262998391,None,446.9397262998391,None,446.9397262998391,None,446.9397262998391,None,446.9397262998391,None,446.9397262998391,None,66,32,63,45,66,48,449.45007909997366,None,4.0,1.0717012998647988,449.45007909997366,None,449.45007909997366,None,449.45007909997366,None,449.45007909997366,None,None,None,450.53728719986975,None,,,,,,,137,f,1,2022_Dec_13_1339,RL,2021.2.3,59.89315058666729,
1,52,0,52,0,,,,,,,,,,,,,,,None,None,None,None,None,452.29215899994597,None,452.29215899994597,None,452.29215899994597,None,452.29215899994597,None,r,0.5622044999618083,452.29215899994597,None,452.29215899994597,None,452.89246909995563,None,452.89246909995563,None,452.89246909995563,None,452.89246909995563,None,452.89246909995563,None,452.89246909995563,None,453.1896040998399,454.77404669998214,453.1896040998399,454.77404669998214,454.808028700063,None,454.808028700063,None,454.808028700063,None,454.808028700063,None,454.808028700063,None,454.808028700063,None,454.808028700063,None,454.808028700063,None,454.808028700063,None,64,36,65,42,64,53,457.3250760999508,None,5.0,1.8375266999937594,457.3250760999508,None,457.3250760999508,None,457.3250760999508,None,457.3250760999508,None,None,None,459.1784657998942,None,,,,,,,137,f,1,2022_Dec_13_1339,RL,2021.2.3,59.89315058666729,
1,53,0,53,0,,,,,,,,,,,,,,,None,None,None,None,None,460.7814052000176,None,460.7814052000176,None,460.7814052000176,None,460.7814052000176,None,r,0.5930578000843525,460.7814052000176,None,460.7814052000176,None,461.41591560002416,None,461.41591560002416,None,461.41591560002416,None,461.41591560002416,None,461.41591560002416,None,461.41591560002416,None,461.7122466999572,462.6961312999483,461.7122466999572,462.6961312999483,462.7278010000009,None,462.7278010000009,None,462.7278010000009,None,462.7278010000009,None,462.7278010000009,None,462.7278010000009,None,462.7278010000009,None,462.7278010000009,None,462.7278010000009,None,68,39,68,38,68,63,465.2506997999735,None,5.0,0.7483475999906659,465.2506997999735,None,465.2506997999735,None,465.2506997999735,None,465.2506997999735,None,None,None,466.014614299871,None,,,,,,,137,f,1,2022_Dec_13_1339,RL,2021.2.3,59.89315058666729,
1,54,0,54,0,,,,,,,,,,,,,,,None,None,None,None,None,467.60268129990436,None,467.60268129990436,None,467.60268129990436,None,467.60268129990436,None,r,0.491595100145787,467.60268129990436,None,467.60268129990436,None,468.1384057998657,None,468.1384057998657,None,468.1384057998657,None,468.1384057998657,None,468.1384057998657,None,468.1384057998657,None,468.43349269987084,None,468.43349269987084,None,469.8964441998396,None,469.8964441998396,None,469.8964441998396,None,469.8964441998396,None,469.8964441998396,None,469.8964441998396,None,469.8964441998396,None,469.8964441998396,None,469.8964441998396,None,67,40,68,46,67,54,472.42420680006035,None,5.0,1.1490225000306964,472.42420680006035,None,472.42420680006035,None,472.42420680006035,None,472.42420680006035,None,None,None,473.5867788998876,None,,,,,,,137,f,1,2022_Dec_13_1339,RL,2021.2.3,59.89315058666729,
1,55,0,55,0,,,,,,,,,,,,,,,None,None,None,None,None,475.34133749990724,None,475.34133749990724,None,475.34133749990724,None,475.34133749990724,None,r,0.38313849992118776,475.34133749990724,None,475.34133749990724,None,475.77620409987867,None,475.77620409987867,None,475.77620409987867,None,475.77620409987867,None,475.77620409987867,None,475.77620409987867,None,476.0721869999543,None,476.0721869999543,None,477.6262047998607,None,477.6262047998607,None,477.6262047998607,None,477.6262047998607,None,477.6262047998607,None,477.6262047998607,None,477.6262047998607,None,477.6262047998607,None,477.6262047998607,None,68,35,63,44,68,44,480.1415394998621,None,6.0,1.8522994001396,480.1415394998621,None,480.1415394998621,None,480.1415394998621,None,480.1415394998621,None,None,None,482.009125799872,None,,,,,,,137,f,1,2022_Dec_13_1339,RL,2021.2.3,59.89315058666729,
1,56,0,56,0,,,,,,,,,,,,,,,None,None,None,None,None,483.93214090005495,None,483.93214090005495,None,483.93214090005495,None,483.93214090005495,None,r,0.37236019992269576,483.93214090005495,None,483.93214090005495,None,484.34915979998186,None,484.34915979998186,None,484.34915979998186,None,484.34915979998186,None,484.34915979998186,None,484.34915979998186,None,484.6448212999385,None,484.6448212999385,None,486.6595766998362,None,486.6595766998362,None,486.6595766998362,None,486.6595766998362,None,486.6595766998362,None,486.6595766998362,None,486.6595766998362,None,486.6595766998362,None,486.6595766998362,None,73,36,62,55,73,56,489.18339470005594,None,6.0,1.0349971998948604,489.18339470005594,None,489.18339470005594,None,489.18339470005594,None,489.18339470005594,None,None,None,490.2314877999015,None,,,,,,,137,f,1,2022_Dec_13_1339,RL,2021.2.3,59.89315058666729,
1,57,0,57,0,,,,,,,,,,,,,,,None,None,None,None,None,491.98540750006214,None,491.98540750006214,None,491.98540750006214,None,491.98540750006214,None,r,0.819211000110954,491.98540750006214,None,491.98540750006214,None,492.857461999869,None,492.857461999869,None,492.857461999869,None,492.857461999869,None,492.857461999869,None,492.857461999869,None,493.1340605998412,494.1345824999735,493.1340605998412,494.1345824999735,494.1704659999814,None,494.1704659999814,None,494.1704659999814,None,494.1704659999814,None,494.1704659999814,None,494.1704659999814,None,494.1704659999814,None,494.1704659999814,None,494.1704659999814,None,67,39,68,45,67,62,496.6874416999053,None,4.0,0.998969699954614,496.6874416999053,None,496.6874416999053,None,496.6874416999053,None,496.6874416999053,None,None,None,497.7033116000239,None,,,,,,,137,f,1,2022_Dec_13_1339,RL,2021.2.3,59.89315058666729,
1,58,0,58,0,,,,,,,,,,,,,,,None,None,None,None,None,499.3081191999372,None,499.3081191999372,None,499.3081191999372,None,499.3081191999372,None,r,0.9265252999030054,499.3081191999372,None,499.3081191999372,None,500.2794321998954,None,500.2794321998954,None,500.2794321998954,None,500.2794321998954,None,500.2794321998954,None,500.2794321998954,None,500.5558014998678,502.03998350002803,500.5558014998678,502.03998350002803,502.07109840004705,None,502.07109840004705,None,502.07109840004705,None,502.07109840004705,None,502.07109840004705,None,502.07109840004705,None,502.07109840004705,None,502.07109840004705,None,502.07109840004705,None,68,43,63,54,68,49,504.5889451999683,None,5.0,1.3378221997991204,504.5889451999683,None,504.5889451999683,None,504.5889451999683,None,504.5889451999683,None,None,None,505.9424363998696,None,,,,,,,137,f,1,2022_Dec_13_1339,RL,2021.2.3,59.89315058666729,
1,59,0,59,0,,,,,,,,,,,,,,,None,None,None,None,None,507.6961480998434,None,507.6961480998434,None,507.6961480998434,None,507.6961480998434,None,r,0.46836329996585846,507.6961480998434,None,507.6961480998434,None,508.2181416999083,None,508.2181416999083,None,508.2181416999083,None,508.2181416999083,None,508.2181416999083,None,508.2181416999083,None,508.5113225998357,509.96210030000657,508.5113225998357,509.96210030000657,509.9943521998357,None,509.9943521998357,None,509.9943521998357,None,509.9943521998357,None,509.9943521998357,None,509.9943521998357,None,509.9943521998357,None,509.9943521998357,None,509.9943521998357,None,67,46,58,48,67,43,512.5101371998899,None,4.0,1.6572999998461455,512.5101371998899,None,512.5101371998899,None,512.5101371998899,None,512.5101371998899,None,None,None,514.1813662999775,None,,,,,,,137,f,1,2022_Dec_13_1339,RL,2021.2.3,59.89315058666729,
1,60,0,60,0,,,,,,,,,,,,,,,None,None,None,None,None,515.9021574999206,None,515.9021574999206,None,515.9021574999206,None,515.9021574999206,None,r,0.7126531000249088,515.9021574999206,None,515.9021574999206,None,516.7039572000504,None,516.7039572000504,None,516.7039572000504,None,516.7039572000504,None,516.7039572000504,None,516.7039572000504,None,517.0005518998951,None,517.0005518998951,None,518.9897342000622,None,518.9897342000622,None,518.9897342000622,None,518.9897342000622,None,518.9897342000622,None,518.9897342000622,None,518.9897342000622,None,518.9897342000622,None,518.9897342000622,None,71,45,60,46,71,51,521.5205794000067,None,5.0,0.9138235000427812,521.5205794000067,None,521.5205794000067,None,521.5205794000067,None,521.5205794000067,None,None,None,522.454988299869,None,,,,,,,137,f,1,2022_Dec_13_1339,RL,2021.2.3,59.89315058666729,
1,61,0,61,0,,,,,,,,,,,,,,,None,None,None,None,None,524.2052599999588,None,524.2052599999588,None,524.2052599999588,None,524.2052599999588,None,f,0.8990611999761313,524.2052599999588,None,524.2052599999588,None,525.1336304000579,None,525.1336304000579,None,525.1336304000579,None,525.1336304000579,None,525.1336304000579,None,525.1336304000579,None,525.4230334998574,527.1408287000377,525.4230334998574,527.1408287000377,527.1733470000327,None,527.1733470000327,None,527.1733470000327,None,527.1733470000327,None,527.1733470000327,None,527.1733470000327,None,527.1733470000327,None,527.1733470000327,None,527.1733470000327,None,70,42,63,47,42,56,529.6892047999427,None,4.0,1.1900869000237435,529.6892047999427,None,529.6892047999427,None,529.6892047999427,None,529.6892047999427,None,None,None,530.8972318999004,None,,,,,,,137,f,1,2022_Dec_13_1339,RL,2021.2.3,59.89315058666729,
1,62,0,62,0,,,,,,,,,,,,,,,None,None,None,None,None,532.5633853999898,None,532.5633853999898,None,532.5633853999898,None,532.5633853999898,None,r,0.5421374998986721,532.5633853999898,None,532.5633853999898,None,533.150061900029,None,533.150061900029,None,533.150061900029,None,533.150061900029,None,533.150061900029,None,533.150061900029,None,533.4453038000502,None,533.4453038000502,None,535.1939966999926,None,535.1939966999926,None,535.1939966999926,None,535.1939966999926,None,535.1939966999926,None,535.1939966999926,None,535.1939966999926,None,535.1939966999926,None,535.1939966999926,None,67,50,60,33,67,63,537.7108888998628,None,4.0,1.1707522999495268,537.7108888998628,None,537.7108888998628,None,537.7108888998628,None,537.7108888998628,None,None,None,538.8989170999266,None,,,,,,,137,f,1,2022_Dec_13_1339,RL,2021.2.3,59.89315058666729,
1,63,0,63,0,,,,,,,,,,,,,,,None,None,None,None,None,540.4199530000333,None,540.4199530000333,None,540.4199530000333,None,540.4199530000333,None,r,0.4259258001111448,540.4199530000333,None,540.4199530000333,None,540.8888077000156,None,540.8888077000156,None,540.8888077000156,None,540.8888077000156,None,540.8888077000156,None,540.8888077000156,None,541.1840898999944,None,541.1840898999944,None,542.5006772999186,None,542.5006772999186,None,542.5006772999186,None,542.5006772999186,None,542.5006772999186,None,542.5006772999186,None,542.5006772999186,None,542.5006772999186,None,542.5006772999186,None,70,54,52,39,70,57,545.0170950999018,None,5.0,0.8706463999114931,545.0170950999018,None,545.0170950999018,None,545.0170950999018,None,545.0170950999018,None,None,None,545.9033788999077,None,,,,,,,137,f,1,2022_Dec_13_1339,RL,2021.2.3,59.89315058666729,
1,64,0,64,0,,,,,,,,,,,,,,,None,None,None,None,None,547.4244210999459,None,547.4244210999459,None,547.4244210999459,None,547.4244210999459,None,r,0.4515843999106437,547.4244210999459,None,547.4244210999459,None,547.9320723998826,None,547.9320723998826,None,547.9320723998826,None,547.9320723998826,None,547.9320723998826,None,547.9320723998826,None,548.2222181998659,None,548.2222181998659,None,549.4715050000232,None,549.4715050000232,None,549.4715050000232,None,549.4715050000232,None,549.4715050000232,None,549.4715050000232,None,549.4715050000232,None,549.4715050000232,None,549.4715050000232,None,61,56,55,42,61,44,551.9881491998676,None,5.0,1.5728139001876116,551.9881491998676,None,551.9881491998676,None,551.9881491998676,None,551.9881491998676,None,None,None,553.5757154999301,None,,,,,,,137,f,1,2022_Dec_13_1339,RL,2021.2.3,59.89315058666729,
1,65,0,65,0,,,,,,,,,,,,,,,None,None,None,None,None,555.4299738998525,None,555.4299738998525,None,555.4299738998525,None,555.4299738998525,None,r,0.5663154998328537,555.4299738998525,None,555.4299738998525,None,556.0468570999801,None,556.0468570999801,None,556.0468570999801,None,556.0468570999801,None,556.0468570999801,None,556.0468570999801,None,556.3443984999321,None,556.3443984999321,None,557.2567201000638,None,557.2567201000638,None,557.2567201000638,None,557.2567201000638,None,557.2567201000638,None,557.2567201000638,None,557.2567201000638,None,557.2567201000638,None,557.2567201000638,None,69,49,57,48,69,41,559.7834240999073,None,4.0,1.0831926001701504,559.7834240999073,None,559.7834240999073,None,559.7834240999073,None,559.7834240999073,None,None,None,560.8832831999753,None,,,,,,,137,f,1,2022_Dec_13_1339,RL,2021.2.3,59.89315058666729,
1,66,0,66,0,,,,,,,,,,,,,,,None,None,None,None,None,562.8683819000144,None,562.8683819000144,None,562.8683819000144,None,562.8683819000144,None,None,,562.8683819000144,None,562.8683819000144,None,None,None,None,None,None,None,None,None,None,None,None,None,None,None,None,None,None,None,None,None,None,None,None,None,None,None,None,None,None,None,None,None,None,None,69,46,57,43,0,**,None,None,None,None,None,None,None,None,None,None,None,None,564.4398834998719,None,568.9527815999463,None,,,,,,,137,f,1,2022_Dec_13_1339,RL,2021.2.3,59.89315058666729,
1,67,0,67,0,,,,,,,,,,,,,,,None,None,None,None,None,570.4912643998396,None,570.4912643998396,None,570.4912643998396,None,570.4912643998396,None,r,0.48476270004175603,570.4912643998396,None,570.4912643998396,None,571.0286330999807,None,571.0286330999807,None,571.0286330999807,None,571.0286330999807,None,571.0286330999807,None,571.0286330999807,None,571.3048423000146,572.2053632000461,571.3048423000146,572.2053632000461,572.237331100041,None,572.237331100041,None,572.237331100041,None,572.237331100041,None,572.237331100041,None,572.237331100041,None,572.237331100041,None,572.237331100041,None,572.237331100041,None,67,54,60,47,67,48,574.7535955000203,None,4.0,1.2722496001515538,574.7535955000203,None,574.7535955000203,None,574.7535955000203,None,574.7535955000203,None,None,None,576.0413619999308,None,,,,,,,137,f,1,2022_Dec_13_1339,RL,2021.2.3,59.89315058666729,
1,68,0,68,0,,,,,,,,,,,,,,,None,None,None,None,None,578.0288005999755,None,578.0288005999755,None,578.0288005999755,None,578.0288005999755,None,r,0.6673593001905829,578.0288005999755,None,578.0288005999755,None,578.7489956999198,None,578.7489956999198,None,578.7489956999198,None,578.7489956999198,None,578.7489956999198,None,578.7489956999198,None,579.043529599905,None,579.043529599905,None,580.6425472998526,None,580.6425472998526,None,580.6425472998526,None,580.6425472998526,None,580.6425472998526,None,580.6425472998526,None,580.6425472998526,None,580.6425472998526,None,580.6425472998526,None,61,58,58,45,61,63,583.1617018999532,None,4.0,0.537993400124833,583.1617018999532,None,583.1617018999532,None,583.1617018999532,None,583.1617018999532,None,None,None,583.7221129999962,None,,,,,,,137,f,1,2022_Dec_13_1339,RL,2021.2.3,59.89315058666729,
1,69,0,69,0,,,,,,,,,,,,,,,None,None,None,None,None,585.267782599898,None,585.267782599898,None,585.267782599898,None,585.267782599898,None,r,0.41837830003350973,585.267782599898,None,585.267782599898,None,585.7384748000186,None,585.7384748000186,None,585.7384748000186,None,585.7384748000186,None,585.7384748000186,None,585.7384748000186,None,586.0317418999039,587.5660522999242,586.0317418999039,587.5660522999242,587.5982001998927,None,587.5982001998927,None,587.5982001998927,None,587.5982001998927,None,587.5982001998927,None,587.5982001998927,None,587.5982001998927,None,587.5982001998927,None,587.5982001998927,None,62,52,63,56,62,58,590.1138210999779,None,4.0,1.5734688001684844,590.1138210999779,None,590.1138210999779,None,590.1138210999779,None,590.1138210999779,None,None,None,591.7074610998388,None,,,,,,,137,f,1,2022_Dec_13_1339,RL,2021.2.3,59.89315058666729,
1,70,0,70,0,,,,,,,,,,,,,,,None,None,None,None,None,593.2729937999975,None,593.2729937999975,None,593.2729937999975,None,593.2729937999975,None,r,0.6929901000112295,593.2729937999975,None,593.2729937999975,None,594.0095726998989,None,594.0095726998989,None,594.0095726998989,None,594.0095726998989,None,594.0095726998989,None,594.0095726998989,None,594.304108500015,None,594.304108500015,None,596.0850891000591,None,596.0850891000591,None,596.0850891000591,None,596.0850891000591,None,596.0850891000591,None,596.0850891000591,None,596.0850891000591,None,596.0850891000591,None,596.0850891000591,None,66,56,58,42,66,54,598.603916299995,None,3.0,1.1534835000056773,598.603916299995,None,598.603916299995,None,598.603916299995,None,598.603916299995,None,None,None,599.7749005998485,None,,,,,,,137,f,1,2022_Dec_13_1339,RL,2021.2.3,59.89315058666729,
1,71,0,71,0,,,,,,,,,,,,,,,None,None,None,None,None,601.5454675999936,None,601.5454675999936,None,601.5454675999936,None,601.5454675999936,None,r,0.6105440000537783,601.5454675999936,None,601.5454675999936,None,602.1967199998908,None,602.1967199998908,None,602.1967199998908,None,602.1967199998908,None,602.1967199998908,None,602.1967199998908,None,602.4931089999154,None,602.4931089999154,None,603.4893700999673,None,603.4893700999673,None,603.4893700999673,None,603.4893700999673,None,603.4893700999673,None,603.4893700999673,None,603.4893700999673,None,603.4893700999673,None,603.4893700999673,None,63,69,61,54,63,63,606.0097798998468,None,3.0,0.47203710000030696,606.0097798998468,None,606.0097798998468,None,606.0097798998468,None,606.0097798998468,None,None,None,606.5073283000384,None,,,,,,,137,f,1,2022_Dec_13_1339,RL,2021.2.3,59.89315058666729,
1,72,0,72,0,,,,,,,,,,,,,,,None,None,None,None,None,608.1332074999809,None,608.1332074999809,None,608.1332074999809,None,608.1332074999809,None,r,0.5627741999924183,608.1332074999809,None,608.1332074999809,None,608.737312000012,None,608.737312000012,None,608.737312000012,None,608.737312000012,None,608.737312000012,None,608.737312000012,None,609.0309393999632,None,609.0309393999632,None,611.0024103999604,None,611.0024103999604,None,611.0024103999604,None,611.0024103999604,None,611.0024103999604,None,611.0024103999604,None,611.0024103999604,None,611.0024103999604,None,611.0024103999604,None,70,58,57,59,70,54,613.5143514999654,None,3.0,0.6027598001528531,613.5143514999654,None,613.5143514999654,None,613.5143514999654,None,613.5143514999654,None,None,None,614.1340401999187,None,,,,,,,137,f,1,2022_Dec_13_1339,RL,2021.2.3,59.89315058666729,
1,73,0,73,0,,,,,,,,,,,,,,,None,None,None,None,None,615.7889075998683,None,615.7889075998683,None,615.7889075998683,None,615.7889075998683,None,r,0.5274139998946339,615.7889075998683,None,615.7889075998683,None,616.35971660004,None,616.35971660004,None,616.35971660004,None,616.35971660004,None,616.35971660004,None,616.35971660004,None,616.6362695000134,618.3206338000018,616.6362695000134,618.3206338000018,618.3551541999914,None,618.3551541999914,None,618.3551541999914,None,618.3551541999914,None,618.3551541999914,None,618.3551541999914,None,618.3551541999914,None,618.3551541999914,None,618.3551541999914,None,68,52,56,44,68,40,620.8692334999796,None,5.0,1.5034082001075149,620.8692334999796,None,620.8692334999796,None,620.8692334999796,None,620.8692334999796,None,None,None,622.3910488998517,None,,,,,,,137,f,1,2022_Dec_13_1339,RL,2021.2.3,59.89315058666729,
1,74,0,74,0,,,,,,,,,,,,,,,None,None,None,None,None,624.0104326000437,None,624.0104326000437,None,624.0104326000437,None,624.0104326000437,None,r,0.40563299995847046,624.0104326000437,None,624.0104326000437,None,624.4636790000368,None,624.4636790000368,None,624.4636790000368,None,624.4636790000368,None,624.4636790000368,None,624.4636790000368,None,624.7587731999811,None,624.7587731999811,None,626.1414067998994,None,626.1414067998994,None,626.1414067998994,None,626.1414067998994,None,626.1414067998994,None,626.1414067998994,None,626.1414067998994,None,626.1414067998994,None,626.1414067998994,None,61,51,61,42,61,60,628.6574460999109,None,4.0,1.040698500117287,628.6574460999109,None,628.6574460999109,None,628.6574460999109,None,628.6574460999109,None,None,None,629.7187482998706,None,,,,,,,137,f,1,2022_Dec_13_1339,RL,2021.2.3,59.89315058666729,
1,75,0,75,0,,,,,,,,,,,,,,,631.5797220000532,None,q,631.5797220000532,None,655.8492924000602,None,655.8492924000602,None,655.8492924000602,None,655.8492924000602,None,r,0.9372944000642747,655.8492924000602,None,655.8492924000602,None,656.8334619000088,None,656.8334619000088,None,656.8334619000088,None,656.8334619000088,None,656.8334619000088,None,656.8334619000088,None,657.1310093998909,None,657.1310093998909,None,658.6279336998705,None,658.6279336998705,None,658.6279336998705,None,658.6279336998705,None,658.6279336998705,None,658.6279336998705,None,658.6279336998705,None,658.6279336998705,None,658.6279336998705,None,62,59,66,48,62,54,661.1490422000643,None,4.0,1.3364593000151217,661.1490422000643,None,661.1490422000643,None,661.1490422000643,None,661.1490422000643,None,None,None,662.5008544998709,None,24.236821400001645,,,,,,137,f,1,2022_Dec_13_1339,RL,2021.2.3,59.89315058666729,
1,76,0,76,0,,,,,,,,,,,,,,,None,None,None,None,None,664.0887676000129,None,664.0887676000129,None,664.0887676000129,None,664.0887676000129,None,r,0.5876249000430107,664.0887676000129,None,664.0887676000129,None,664.7255875999108,None,664.7255875999108,None,664.7255875999108,None,664.7255875999108,None,664.7255875999108,None,664.7255875999108,None,665.0198728998657,None,665.0198728998657,None,666.0179725000635,None,666.0179725000635,None,666.0179725000635,None,666.0179725000635,None,666.0179725000635,None,666.0179725000635,None,666.0179725000635,None,666.0179725000635,None,666.0179725000635,None,71,45,72,36,71,28,668.5390206000302,None,4.0,0.9166852000635117,668.5390206000302,None,668.5390206000302,None,668.5390206000302,None,668.5390206000302,None,None,None,669.4723946999293,None,,,,,,,137,f,1,2022_Dec_13_1339,RL,2021.2.3,59.89315058666729,
1,77,0,77,0,,,,,,,,,,,,,,,None,None,None,None,None,671.1099417000078,None,671.1099417000078,None,671.1099417000078,None,671.1099417000078,None,r,0.46664560004137456,671.1099417000078,None,671.1099417000078,None,671.6331133998465,None,671.6331133998465,None,671.6331133998465,None,671.6331133998465,None,671.6331133998465,None,671.6331133998465,None,671.924563099863,673.5757054998539,671.924563099863,673.5757054998539,673.6086633999366,None,673.6086633999366,None,673.6086633999366,None,673.6086633999366,None,673.6086633999366,None,673.6086633999366,None,673.6086633999366,None,673.6086633999366,None,673.6086633999366,None,69,59,67,52,69,57,676.1244091000408,None,3.0,0.820821600034833,676.1244091000408,None,676.1244091000408,None,676.1244091000408,None,676.1244091000408,None,None,None,676.961312700063,None,,,,,,,137,f,1,2022_Dec_13_1339,RL,2021.2.3,59.89315058666729,
1,78,0,78,0,,,,,,,,,,,,,,,None,None,None,None,None,678.9484377000481,None,678.9484377000481,None,678.9484377000481,None,678.9484377000481,None,r,0.44843799993395805,678.9484377000481,None,678.9484377000481,None,679.4371958998963,None,679.4371958998963,None,679.4371958998963,None,679.4371958998963,None,679.4371958998963,None,679.4371958998963,None,679.7301831999794,None,679.7301831999794,None,681.1612893999554,None,681.1612893999554,None,681.1612893999554,None,681.1612893999554,None,681.1612893999554,None,681.1612893999554,None,681.1612893999554,None,681.1612893999554,None,681.1612893999554,None,64,47,73,55,64,60,683.6784546000417,None,2.0,0.7884305999614298,683.6784546000417,None,683.6784546000417,None,683.6784546000417,None,683.6784546000417,None,None,None,684.4833513000049,None,,,,,,,137,f,1,2022_Dec_13_1339,RL,2021.2.3,59.89315058666729,
1,79,0,79,0,,,,,,,,,,,,,,,None,None,None,None,None,686.1038293999154,None,686.1038293999154,None,686.1038293999154,None,686.1038293999154,None,r,0.42357959994114935,686.1038293999154,None,686.1038293999154,None,686.5735056998674,None,686.5735056998674,None,686.5735056998674,None,686.5735056998674,None,686.5735056998674,None,686.5735056998674,None,686.868295900058,None,686.868295900058,None,688.7166021999437,None,688.7166021999437,None,688.7166021999437,None,688.7166021999437,None,688.7166021999437,None,688.7166021999437,None,688.7166021999437,None,688.7166021999437,None,688.7166021999437,None,60,47,58,57,60,41,691.2348845999222,None,3.0,1.0882391999475658,691.2348845999222,None,691.2348845999222,None,691.2348845999222,None,691.2348845999222,None,None,None,692.3495932999067,None,,,,,,,137,f,1,2022_Dec_13_1339,RL,2021.2.3,59.89315058666729,
1,80,0,80,0,,,,,,,,,,,,,,,None,None,None,None,None,694.1929070998449,None,694.1929070998449,None,694.1929070998449,None,694.1929070998449,None,r,0.4653053998481482,694.1929070998449,None,694.1929070998449,None,694.6978380999062,None,694.6978380999062,None,694.6978380999062,None,694.6978380999062,None,694.6978380999062,None,694.6978380999062,None,694.9905097000301,696.4749238998629,694.9905097000301,696.4749238998629,696.508831899846,None,696.508831899846,None,696.508831899846,None,696.508831899846,None,696.508831899846,None,696.508831899846,None,696.508831899846,None,696.508831899846,None,696.508831899846,None,71,42,67,52,71,46,699.0218449998647,None,4.0,0.5901770000346005,699.0218449998647,None,699.0218449998647,None,699.0218449998647,None,699.0218449998647,None,None,None,699.6303138998337,None,,,,,,,137,f,1,2022_Dec_13_1339,RL,2021.2.3,59.89315058666729,
1,81,0,81,0,,,,,,,,,,,,,,,None,None,None,None,None,701.1976478998549,None,701.1976478998549,None,701.1976478998549,None,701.1976478998549,None,r,0.620193500071764,701.1976478998549,None,701.1976478998549,None,701.867333999835,None,701.867333999835,None,701.867333999835,None,701.867333999835,None,701.867333999835,None,701.867333999835,None,702.1621968999971,None,702.1621968999971,None,703.4961448998656,None,703.4961448998656,None,703.4961448998656,None,703.4961448998656,None,703.4961448998656,None,703.4961448998656,None,703.4961448998656,None,703.4961448998656,None,703.4961448998656,None,71,39,64,51,71,63,706.0139742998872,None,4.0,1.0343824001029134,706.0139742998872,None,706.0139742998872,None,706.0139742998872,None,706.0139742998872,None,None,None,707.0653045999352,None,,,,,,,137,f,1,2022_Dec_13_1339,RL,2021.2.3,59.89315058666729,
1,82,0,82,0,,,,,,,,,,,,,,,None,None,None,None,None,708.8193623998668,None,708.8193623998668,None,708.8193623998668,None,708.8193623998668,None,r,0.43856420018710196,708.8193623998668,None,708.8193623998668,None,709.3056770998519,None,709.3056770998519,None,709.3056770998519,None,709.3056770998519,None,709.3056770998519,None,709.3056770998519,None,709.6006706999615,None,709.6006706999615,None,711.4048780999146,None,711.4048780999146,None,711.4048780999146,None,711.4048780999146,None,711.4048780999146,None,711.4048780999146,None,711.4048780999146,None,711.4048780999146,None,711.4048780999146,None,70,41,60,43,70,44,713.9318899000064,None,3.0,1.1060590997803956,713.9318899000064,None,713.9318899000064,None,713.9318899000064,None,713.9318899000064,None,None,None,715.0541003998369,None,,,,,,,137,f,1,2022_Dec_13_1339,RL,2021.2.3,59.89315058666729,
1,83,0,83,0,,,,,,,,,,,,,,,None,None,None,None,None,716.9087994999718,None,716.9087994999718,None,716.9087994999718,None,716.9087994999718,None,r,0.3291117998305708,716.9087994999718,None,716.9087994999718,None,717.2886171999853,None,717.2886171999853,None,717.2886171999853,None,717.2886171999853,None,717.2886171999853,None,717.2886171999853,None,717.5729049998336,718.5401262999512,717.5729049998336,718.5401262999512,718.572584599955,None,718.572584599955,None,718.572584599955,None,718.572584599955,None,718.572584599955,None,718.572584599955,None,718.572584599955,None,718.572584599955,None,718.572584599955,None,57,33,52,54,57,53,721.0881103000138,None,3.0,1.52363339997828,721.0881103000138,None,721.0881103000138,None,721.0881103000138,None,721.0881103000138,None,None,None,722.6274830000475,None,,,,,,,137,f,1,2022_Dec_13_1339,RL,2021.2.3,59.89315058666729,
1,84,0,84,0,,,,,,,,,,,,,,,None,None,None,None,None,724.1636629998684,None,724.1636629998684,None,724.1636629998684,None,724.1636629998684,None,r,0.5040057001169771,724.1636629998684,None,724.1636629998684,None,724.7177675999701,None,724.7177675999701,None,724.7177675999701,None,724.7177675999701,None,724.7177675999701,None,724.7177675999701,None,725.0113979999442,726.4789853999391,725.0113979999442,726.4789853999391,726.5106577000115,None,726.5106577000115,None,726.5106577000115,None,726.5106577000115,None,726.5106577000115,None,726.5106577000115,None,726.5106577000115,None,726.5106577000115,None,726.5106577000115,None,59,44,54,52,59,58,729.0288253000472,None,3.0,1.1545861000195146,729.0288253000472,None,729.0288253000472,None,729.0288253000472,None,729.0288253000472,None,None,None,730.2016805999447,None,,,,,,,137,f,1,2022_Dec_13_1339,RL,2021.2.3,59.89315058666729,
1,85,0,85,0,,,,,,,,,,,,,,,None,None,None,None,None,732.0024955000263,None,732.0024955000263,None,732.0024955000263,None,732.0024955000263,None,r,0.5454989999998361,732.0024955000263,None,732.0024955000263,None,732.5895000000019,None,732.5895000000019,None,732.5895000000019,None,732.5895000000019,None,732.5895000000019,None,732.5895000000019,None,732.8836485999636,734.7347543998621,732.8836485999636,734.7347543998621,734.7657997000497,None,734.7657997000497,None,734.7657997000497,None,734.7657997000497,None,734.7657997000497,None,734.7657997000497,None,734.7657997000497,None,734.7657997000497,None,734.7657997000497,None,58,35,53,45,58,54,737.2835766000208,None,4.0,0.7707833999302238,737.2835766000208,None,737.2835766000208,None,737.2835766000208,None,737.2835766000208,None,None,None,738.0777276998851,None,,,,,,,137,f,1,2022_Dec_13_1339,RL,2021.2.3,59.89315058666729,
1,86,0,86,0,,,,,,,,,,,,,,,None,None,None,None,None,739.9077142998576,None,739.9077142998576,None,739.9077142998576,None,739.9077142998576,None,r,0.44051330001093447,739.9077142998576,None,739.9077142998576,None,740.3926835998427,None,740.3926835998427,None,740.3926835998427,None,740.3926835998427,None,740.3926835998427,None,740.3926835998427,None,740.6888915000018,None,740.6888915000018,None,742.5532961999997,None,742.5532961999997,None,742.5532961999997,None,742.5532961999997,None,742.5532961999997,None,742.5532961999997,None,742.5532961999997,None,742.5532961999997,None,742.5532961999997,None,56,33,57,51,56,56,745.0726792998612,None,4.0,0.4878935001324862,745.0726792998612,None,745.0726792998612,None,745.0726792998612,None,745.0726792998612,None,None,None,745.5845850000624,None,,,,,,,137,f,1,2022_Dec_13_1339,RL,2021.2.3,59.89315058666729,
1,87,0,87,0,,,,,,,,,,,,,,,None,None,None,None,None,747.1948915999383,None,747.1948915999383,None,747.1948915999383,None,747.1948915999383,None,r,0.43350549996830523,747.1948915999383,None,747.1948915999383,None,747.6699159999844,None,747.6699159999844,None,747.6699159999844,None,747.6699159999844,None,747.6699159999844,None,747.6699159999844,None,747.9607114000246,749.8617952999193,747.9607114000246,749.8617952999193,749.8947258999106,None,749.8947258999106,None,749.8947258999106,None,749.8947258999106,None,749.8947258999106,None,749.8947258999106,None,749.8947258999106,None,749.8947258999106,None,749.8947258999106,None,57,33,50,54,57,57,752.4100752000231,None,4.0,0.43883990007452667,752.4100752000231,None,752.4100752000231,None,752.4100752000231,None,752.4100752000231,None,None,None,752.8634480999317,None,,,,,,,137,f,1,2022_Dec_13_1339,RL,2021.2.3,59.89315058666729,
1,88,0,88,0,,,,,,,,,,,,,,,None,None,None,None,None,754.7009741999209,None,754.7009741999209,None,754.7009741999209,None,754.7009741999209,None,r,0.41712230001576245,754.7009741999209,None,754.7009741999209,None,755.1712698000483,None,755.1712698000483,None,755.1712698000483,None,755.1712698000483,None,755.1712698000483,None,755.1712698000483,None,755.4659176999703,None,755.4659176999703,None,756.4642785000615,None,756.4642785000615,None,756.4642785000615,None,756.4642785000615,None,756.4642785000615,None,756.4642785000615,None,756.4642785000615,None,756.4642785000615,None,756.4642785000615,None,63,21,48,48,63,61,758.9882873999886,None,4.0,0.6141008001286536,758.9882873999886,None,758.9882873999886,None,758.9882873999886,None,758.9882873999886,None,None,None,759.6181765999645,None,,,,,,,137,f,1,2022_Dec_13_1339,RL,2021.2.3,59.89315058666729,
1,89,0,89,0,,,,,,,,,,,,,,,None,None,None,None,None,761.2230028000195,None,761.2230028000195,None,761.2230028000195,None,761.2230028000195,None,r,0.3251231999602169,761.2230028000195,None,761.2230028000195,None,761.5976497000083,None,761.5976497000083,None,761.5976497000083,None,761.5976497000083,None,761.5976497000083,None,761.5976497000083,None,761.8869727000128,763.5045971998479,761.8869727000128,763.5045971998479,763.5358608998358,None,763.5358608998358,None,763.5358608998358,None,763.5358608998358,None,763.5358608998358,None,763.5358608998358,None,763.5358608998358,None,763.5358608998358,None,763.5358608998358,None,59,38,45,42,59,61,766.054234799929,None,2.0,1.1896412000060081,766.054234799929,None,766.054234799929,None,766.054234799929,None,766.054234799929,None,None,None,767.2570396999363,None,,,,,,,137,f,1,2022_Dec_13_1339,RL,2021.2.3,59.89315058666729,
1,90,0,90,0,,,,,,,,,,,,,,,None,None,None,None,None,768.978063599905,None,768.978063599905,None,768.978063599905,None,768.978063599905,None,r,0.310209299903363,768.978063599905,None,768.978063599905,None,769.3339563000482,None,769.3339563000482,None,769.3339563000482,None,769.3339563000482,None,769.3339563000482,None,769.3339563000482,None,769.6256899000145,None,769.6256899000145,None,771.3459777999669,None,771.3459777999669,None,771.3459777999669,None,771.3459777999669,None,771.3459777999669,None,771.3459777999669,None,771.3459777999669,None,771.3459777999669,None,771.3459777999669,None,53,27,49,48,53,67,773.8645273998845,None,1.0,0.8331089001148939,773.8645273998845,None,773.8645273998845,None,773.8645273998845,None,773.8645273998845,None,None,None,774.7180260999594,None,,,,,,,137,f,1,2022_Dec_13_1339,RL,2021.2.3,59.89315058666729,
1,91,0,91,0,,,,,,,,,,,,,,,None,None,None,None,None,776.5173686998896,None,776.5173686998896,None,776.5173686998896,None,776.5173686998896,None,r,0.33106200001202524,776.5173686998896,None,776.5173686998896,None,776.9027630998753,None,776.9027630998753,None,776.9027630998753,None,776.9027630998753,None,776.9027630998753,None,776.9027630998753,None,777.1975980999414,None,777.1975980999414,None,778.733895199839,None,778.733895199839,None,778.733895199839,None,778.733895199839,None,778.733895199839,None,778.733895199839,None,778.733895199839,None,778.733895199839,None,778.733895199839,None,57,28,53,53,57,65,781.2474569999613,None,1.0,0.9546916000545025,781.2474569999613,None,781.2474569999613,None,781.2474569999613,None,781.2474569999613,None,None,None,782.2203273000196,None,,,,,,,137,f,1,2022_Dec_13_1339,RL,2021.2.3,59.89315058666729,
1,92,0,92,0,,,,,,,,,,,,,,,None,None,None,None,None,783.8873562000226,None,783.8873562000226,None,783.8873562000226,None,783.8873562000226,None,f,0.490637700073421,783.8873562000226,None,783.8873562000226,None,784.422864299966,None,784.422864299966,None,784.422864299966,None,784.422864299966,None,784.422864299966,None,784.422864299966,None,784.7198413999286,None,784.7198413999286,None,786.0916460000444,None,786.0916460000444,None,786.0916460000444,None,786.0916460000444,None,786.0916460000444,None,786.0916460000444,None,786.0916460000444,None,786.0916460000444,None,786.0916460000444,None,63,29,43,55,29,64,788.6021187999286,None,1.0,1.004309699870646,788.6021187999286,None,788.6021187999286,None,788.6021187999286,None,788.6021187999286,None,None,None,789.6304323000368,None,,,,,,,137,f,1,2022_Dec_13_1339,RL,2021.2.3,59.89315058666729,
1,93,0,93,0,,,,,,,,,,,,,,,None,None,None,None,None,791.393253599992,None,791.393253599992,None,791.393253599992,None,791.393253599992,None,i,0.5751225000713021,791.393253599992,None,791.393253599992,None,792.0182381998748,None,792.0182381998748,None,792.0182381998748,None,792.0182381998748,None,792.0182381998748,None,792.0182381998748,None,792.3081739998888,793.6424232998397,792.3081739998888,793.6424232998397,793.6721729999408,None,793.6721729999408,None,793.6721729999408,None,793.6721729999408,None,793.6721729999408,None,793.6721729999408,None,793.6721729999408,None,793.6721729999408,None,793.6721729999408,None,60,27,56,44,56,60,796.192049899837,None,1.0,1.2205050999764353,796.192049899837,None,796.192049899837,None,796.192049899837,None,796.192049899837,None,None,None,797.4279096999671,None,,,,,,,137,f,1,2022_Dec_13_1339,RL,2021.2.3,59.89315058666729,
1,94,0,94,0,,,,,,,,,,,,,,,None,None,None,None,None,798.9654747999739,None,798.9654747999739,None,798.9654747999739,None,798.9654747999739,None,j,0.6226468998938799,798.9654747999739,None,798.9654747999739,None,799.6360352998599,None,799.6360352998599,None,799.6360352998599,None,799.6360352998599,None,799.6360352998599,None,799.6360352998599,None,799.930089399917,800.8471297998913,799.930089399917,800.8471297998913,800.8790652998723,None,800.8790652998723,None,800.8790652998723,None,800.8790652998723,None,800.8790652998723,None,800.8790652998723,None,800.8790652998723,None,800.8790652998723,None,800.8790652998723,None,69,21,52,38,38,67,803.3958513999823,None,1.0,1.3555461999494582,803.3958513999823,None,803.3958513999823,None,803.3958513999823,None,803.3958513999823,None,None,None,804.769075699849,None,,,,,,,137,f,1,2022_Dec_13_1339,RL,2021.2.3,59.89315058666729,
1,95,0,95,0,,,,,,,,,,,,,,,None,None,None,None,None,806.320482299896,None,806.320482299896,None,806.320482299896,None,806.320482299896,None,i,0.3878488000482321,806.320482299896,None,806.320482299896,None,806.7551903000567,None,806.7551903000567,None,806.7551903000567,None,806.7551903000567,None,806.7551903000567,None,806.7551903000567,None,807.0515221999958,None,807.0515221999958,None,808.1159667999018,None,808.1159667999018,None,808.1159667999018,None,808.1159667999018,None,808.1159667999018,None,808.1159667999018,None,808.1159667999018,None,808.1159667999018,None,808.1159667999018,None,59,25,49,47,49,55,810.6398785000201,None,1.0,1.150556500069797,810.6398785000201,None,810.6398785000201,None,810.6398785000201,None,810.6398785000201,None,None,None,811.8054285000544,None,,,,,,,137,f,1,2022_Dec_13_1339,RL,2021.2.3,59.89315058666729,
1,96,0,96,0,,,,,,,,,,,,,,,None,None,None,None,None,813.6584363998845,None,813.6584363998845,None,813.6584363998845,None,813.6584363998845,None,r,0.36999789997935295,813.6584363998845,None,813.6584363998845,None,814.0840179999359,None,814.0840179999359,None,814.0840179999359,None,814.0840179999359,None,814.0840179999359,None,814.0840179999359,None,814.3733440998476,815.2406527998392,814.3733440998476,815.2406527998392,815.2718326998875,None,815.2718326998875,None,815.2718326998875,None,815.2718326998875,None,815.2718326998875,None,815.2718326998875,None,815.2718326998875,None,815.2718326998875,None,815.2718326998875,None,52,23,50,49,52,56,817.788701799931,None,1.0,0.8403513000812382,817.788701799931,None,817.788701799931,None,817.788701799931,None,817.788701799931,None,None,None,818.6451470998581,None,,,,,,,137,f,1,2022_Dec_13_1339,RL,2021.2.3,59.89315058666729,
1,97,0,97,0,,,,,,,,,,,,,,,None,None,None,None,None,820.5976909999736,None,820.5976909999736,None,820.5976909999736,None,820.5976909999736,None,r,0.4905757999513298,820.5976909999736,None,820.5976909999736,None,821.1346054999158,None,821.1346054999158,None,821.1346054999158,None,821.1346054999158,None,821.1346054999158,None,821.1346054999158,None,821.4282953999937,None,821.4282953999937,None,822.7847056000028,None,822.7847056000028,None,822.7847056000028,None,822.7847056000028,None,822.7847056000028,None,822.7847056000028,None,822.7847056000028,None,822.7847056000028,None,822.7847056000028,None,59,29,42,48,59,63,825.3148570000194,None,1.0,0.619191600009799,825.3148570000194,None,825.3148570000194,None,825.3148570000194,None,825.3148570000194,None,None,None,825.9536482999101,None,,,,,,,137,f,1,2022_Dec_13_1339,RL,2021.2.3,59.89315058666729,
1,98,0,98,0,,,,,,,,,,,,,,,None,None,None,None,None,827.8856711999979,None,827.8856711999979,None,827.8856711999979,None,827.8856711999979,None,i,0.44263319997116923,827.8856711999979,None,827.8856711999979,None,828.3727037999779,None,828.3727037999779,None,828.3727037999779,None,828.3727037999779,None,828.3727037999779,None,828.3727037999779,None,828.6666788000148,830.6512060998939,828.6666788000148,830.6512060998939,830.682750799926,None,830.682750799926,None,830.682750799926,None,830.682750799926,None,830.682750799926,None,830.682750799926,None,830.682750799926,None,830.682750799926,None,830.682750799926,None,71,26,51,49,51,70,833.2005700999871,None,1.0,0.5699299001134932,833.2005700999871,None,833.2005700999871,None,833.2005700999871,None,833.2005700999871,None,None,None,833.7863284000196,None,,,,,,,137,f,1,2022_Dec_13_1339,RL,2021.2.3,59.89315058666729,
1,99,0,99,0,,,,,,,,,,,,,,,None,None,None,None,None,835.7742365000304,None,835.7742365000304,None,835.7742365000304,None,835.7742365000304,None,r,0.3244454001542181,835.7742365000304,None,835.7742365000304,None,836.1457568998449,None,836.1457568998449,None,836.1457568998449,None,836.1457568998449,None,836.1457568998449,None,836.1457568998449,None,836.4388792999089,None,836.4388792999089,None,837.6025844998658,None,837.6025844998658,None,837.6025844998658,None,837.6025844998658,None,837.6025844998658,None,837.6025844998658,None,837.6025844998658,None,837.6025844998658,None,837.6025844998658,None,67,22,51,49,67,60,840.1239894998726,None,1.0,0.8189360001124442,840.1239894998726,None,840.1239894998726,None,840.1239894998726,None,840.1239894998726,None,None,None,840.9628679000307,None,,,,,,,137,f,1,2022_Dec_13_1339,RL,2021.2.3,59.89315058666729,
1,100,0,100,0,,,,,,,,,,,,,,,None,None,None,None,None,842.5785435000435,None,842.5785435000435,None,842.5785435000435,None,842.5785435000435,None,r,0.3309249999001622,842.5785435000435,None,842.5785435000435,None,842.9528121000621,None,842.9528121000621,None,842.9528121000621,None,842.9528121000621,None,842.9528121000621,None,842.9528121000621,None,843.2433515000157,None,843.2433515000157,None,844.9915285999887,None,844.9915285999887,None,844.9915285999887,None,844.9915285999887,None,844.9915285999887,None,844.9915285999887,None,844.9915285999887,None,844.9915285999887,None,844.9915285999887,None,64,29,49,47,64,64,847.5187742998824,None,4.0,1.115372900152579,847.5187742998824,None,847.5187742998824,None,847.5187742998824,None,847.5187742998824,None,None,None,848.6466417000629,None,,,,,,,137,f,1,2022_Dec_13_1339,RL,2021.2.3,59.89315058666729,
1,101,0,101,0,,,,,,,,,,,,,,,None,None,None,None,None,850.5511453999206,None,850.5511453999206,None,850.5511453999206,None,850.5511453999206,None,r,0.46847169985994697,850.5511453999206,None,850.5511453999206,None,851.0725809999276,None,851.0725809999276,None,851.0725809999276,None,851.0725809999276,None,851.0725809999276,None,851.0725809999276,None,851.349002599949,853.0000260998495,851.349002599949,853.0000260998495,853.0497895998415,None,853.0497895998415,None,853.0497895998415,None,853.0497895998415,None,853.0497895998415,None,853.0497895998415,None,853.0497895998415,None,853.0497895998415,None,853.0497895998415,None,71,43,57,50,71,61,855.5693432998378,None,4.0,1.4844110999256372,855.5693432998378,None,855.5693432998378,None,855.5693432998378,None,855.5693432998378,None,None,None,857.0785069998819,None,,,,,,,137,f,1,2022_Dec_13_1339,RL,2021.2.3,59.89315058666729,
1,102,0,102,0,,,,,,,,,,,,,,,None,None,None,None,None,859.0240022998769,None,859.0240022998769,None,859.0240022998769,None,859.0240022998769,None,r,0.38573329988867044,859.0240022998769,None,859.0240022998769,None,859.4599257998634,None,859.4599257998634,None,859.4599257998634,None,859.4599257998634,None,859.4599257998634,None,859.4599257998634,None,859.7548930998892,None,859.7548930998892,None,861.4534289999865,None,861.4534289999865,None,861.4534289999865,None,861.4534289999865,None,861.4534289999865,None,861.4534289999865,None,861.4534289999865,None,861.4534289999865,None,861.4534289999865,None,64,30,55,49,64,58,863.9719231999479,None,4.0,1.0696727999020368,863.9719231999479,None,863.9719231999479,None,863.9719231999479,None,863.9719231999479,None,None,None,865.0645508000161,None,,,,,,,137,f,1,2022_Dec_13_1339,RL,2021.2.3,59.89315058666729,
1,103,0,103,0,,,,,,,,,,,,,,,None,None,None,None,None,866.7629829000216,None,866.7629829000216,None,866.7629829000216,None,866.7629829000216,None,r,0.3467164000030607,866.7629829000216,None,866.7629829000216,None,867.1494564998429,None,867.1494564998429,None,867.1494564998429,None,867.1494564998429,None,867.1494564998429,None,867.1494564998429,None,867.443480799906,869.3279327999335,867.443480799906,869.3279327999335,869.3652170998976,None,869.3652170998976,None,869.3652170998976,None,869.3652170998976,None,869.3652170998976,None,869.3652170998976,None,869.3652170998976,None,869.3652170998976,None,869.3652170998976,None,64,26,53,47,64,66,871.8973174998537,None,4.0,0.933804800035432,871.8973174998537,None,871.8973174998537,None,871.8973174998537,None,871.8973174998537,None,None,None,872.8467098998372,None,,,,,,,137,f,1,2022_Dec_13_1339,RL,2021.2.3,59.89315058666729,
1,104,0,104,0,,,,,,,,,,,,,,,None,None,None,None,None,874.6349768000655,None,874.6349768000655,None,874.6349768000655,None,874.6349768000655,None,r,0.4948257999494672,874.6349768000655,None,874.6349768000655,None,875.169118899852,None,875.169118899852,None,875.169118899852,None,875.169118899852,None,875.169118899852,None,875.169118899852,None,875.4657174998429,None,875.4657174998429,None,877.3808110998943,None,877.3808110998943,None,877.3808110998943,None,877.3808110998943,None,877.3808110998943,None,877.3808110998943,None,877.3808110998943,None,877.3808110998943,None,877.3808110998943,None,66,32,56,41,66,59,879.897066900041,None,4.0,1.0727236999664456,879.897066900041,None,879.897066900041,None,879.897066900041,None,879.897066900041,None,None,None,880.9859519999009,None,,,,,,,137,f,1,2022_Dec_13_1339,RL,2021.2.3,59.89315058666729,
1,105,0,105,0,,,,,,,,,,,,,,,None,None,None,None,None,882.8402610998601,None,882.8402610998601,None,882.8402610998601,None,882.8402610998601,None,None,,882.8402610998601,None,882.8402610998601,None,None,None,None,None,None,None,None,None,None,None,None,None,None,None,None,None,None,None,None,None,None,None,None,None,None,None,None,None,None,None,None,None,None,None,85,26,50,45,0,**,None,None,None,None,None,None,None,None,None,None,None,None,884.3974486999214,None,888.9081417999696,None,,,,,,,137,f,1,2022_Dec_13_1339,RL,2021.2.3,59.89315058666729,
1,106,0,106,0,,,,,,,,,,,,,,,None,None,None,None,None,890.6954132998362,None,890.6954132998362,None,890.6954132998362,None,890.6954132998362,None,r,0.46454269997775555,890.6954132998362,None,890.6954132998362,None,891.2053556998726,None,891.2053556998726,None,891.2053556998726,None,891.2053556998726,None,891.2053556998726,None,891.2053556998726,None,891.4935222000349,None,891.4935222000349,None,893.2737437998876,None,893.2737437998876,None,893.2737437998876,None,893.2737437998876,None,893.2737437998876,None,893.2737437998876,None,893.2737437998876,None,893.2737437998876,None,893.2737437998876,None,76,23,44,47,76,54,895.8013036998454,None,3.0,1.631855099927634,895.8013036998454,None,895.8013036998454,None,895.8013036998454,None,895.8013036998454,None,None,None,897.4481736000162,None,,,,,,,137,f,1,2022_Dec_13_1339,RL,2021.2.3,59.89315058666729,
1,107,0,107,0,,,,,,,,,,,,,,,None,None,None,None,None,899.2019736999646,None,899.2019736999646,None,899.2019736999646,None,899.2019736999646,None,r,0.407945099985227,899.2019736999646,None,899.2019736999646,None,899.655117899878,None,899.655117899878,None,899.655117899878,None,899.655117899878,None,899.655117899878,None,899.655117899878,None,899.949374999851,None,899.949374999851,None,901.1465836998541,None,901.1465836998541,None,901.1465836998541,None,901.1465836998541,None,901.1465836998541,None,901.1465836998541,None,901.1465836998541,None,901.1465836998541,None,901.1465836998541,None,80,37,54,47,80,56,903.6643323998433,None,3.0,0.7380864000879228,903.6643323998433,None,903.6643323998433,None,903.6643323998433,None,903.6643323998433,None,None,None,904.418870100053,None,,,,,,,137,f,1,2022_Dec_13_1339,RL,2021.2.3,59.89315058666729,
1,108,0,108,0,,,,,,,,,,,,,,,None,None,None,None,None,905.9562790000346,None,905.9562790000346,None,905.9562790000346,None,905.9562790000346,None,r,0.3436014000326395,905.9562790000346,None,905.9562790000346,None,906.3462976999581,None,906.3462976999581,None,906.3462976999581,None,906.3462976999581,None,906.3462976999581,None,906.3462976999581,None,906.6373566000257,None,906.6373566000257,None,907.7874487999361,None,907.7874487999361,None,907.7874487999361,None,907.7874487999361,None,907.7874487999361,None,907.7874487999361,None,907.7874487999361,None,907.7874487999361,None,907.7874487999361,None,68,34,46,37,68,59,910.304553499911,None,3.0,0.6394349001348019,910.304553499911,None,910.304553499911,None,910.304553499911,None,910.304553499911,None,None,None,910.9561900000554,None,,,,,,,137,f,1,2022_Dec_13_1339,RL,2021.2.3,59.89315058666729,
1,109,0,109,0,,,,,,,,,,,,,,,None,None,None,None,None,912.6772671998478,None,912.6772671998478,None,912.6772671998478,None,912.6772671998478,None,r,0.40247580013237894,912.6772671998478,None,912.6772671998478,None,913.1290267999284,None,913.1290267999284,None,913.1290267999284,None,913.1290267999284,None,913.1290267999284,None,913.1290267999284,None,913.4253300998826,None,913.4253300998826,None,914.8233517999761,None,914.8233517999761,None,914.8233517999761,None,914.8233517999761,None,914.8233517999761,None,914.8233517999761,None,914.8233517999761,None,914.8233517999761,None,914.8233517999761,None,72,27,50,31,72,53,917.3406787000131,None,3.0,0.8389795001130551,917.3406787000131,None,917.3406787000131,None,917.3406787000131,None,917.3406787000131,None,None,None,918.1948809998576,None,,,,,,,137,f,1,2022_Dec_13_1339,RL,2021.2.3,59.89315058666729,
1,110,0,110,0,,,,,,,,,,,,,,,None,None,None,None,None,920.1496849998366,None,920.1496849998366,None,920.1496849998366,None,920.1496849998366,None,r,0.7103787998203188,920.1496849998366,None,920.1496849998366,None,920.9009116999805,None,920.9009116999805,None,920.9009116999805,None,920.9009116999805,None,920.9009116999805,None,920.9009116999805,None,921.1973812999204,None,921.1973812999204,None,922.3975937999785,None,922.3975937999785,None,922.3975937999785,None,922.3975937999785,None,922.3975937999785,None,922.3975937999785,None,922.3975937999785,None,922.3975937999785,None,922.3975937999785,None,70,20,53,35,70,79,924.913191499887,None,3.0,0.6380145000293851,924.913191499887,None,924.913191499887,None,924.913191499887,None,924.913191499887,None,None,None,925.5669100999366,None,,,,,,,137,f,1,2022_Dec_13_1339,RL,2021.2.3,59.89315058666729,
1,111,0,111,0,,,,,,,,,,,,,,,None,None,None,None,None,927.1213211999275,None,927.1213211999275,None,927.1213211999275,None,927.1213211999275,None,r,0.39873680006712675,927.1213211999275,None,927.1213211999275,None,927.5552284000441,None,927.5552284000441,None,927.5552284000441,None,927.5552284000441,None,927.5552284000441,None,927.5552284000441,None,927.8519530000631,None,927.8519530000631,None,928.8384411998559,None,928.8384411998559,None,928.8384411998559,None,928.8384411998559,None,928.8384411998559,None,928.8384411998559,None,928.8384411998559,None,928.8384411998559,None,928.8384411998559,None,71,24,52,41,71,52,931.3507817999925,None,6.0,0.6380698999855667,931.3507817999925,None,931.3507817999925,None,931.3507817999925,None,931.3507817999925,None,None,None,932.0048913999926,None,,,,,,,137,f,1,2022_Dec_13_1339,RL,2021.2.3,59.89315058666729,
1,112,0,112,0,,,,,,,,,,,,,,,None,None,None,None,None,934.00911549991,None,934.00911549991,None,934.00911549991,None,934.00911549991,None,r,0.3510738001205027,934.00911549991,None,934.00911549991,None,934.4148996998556,None,934.4148996998556,None,934.4148996998556,None,934.4148996998556,None,934.4148996998556,None,934.4148996998556,None,934.7068596000317,None,934.7068596000317,None,935.6705839000642,None,935.6705839000642,None,935.6705839000642,None,935.6705839000642,None,935.6705839000642,None,935.6705839000642,None,935.6705839000642,None,935.6705839000642,None,935.6705839000642,None,75,21,46,44,75,78,938.1882380000316,None,4.0,1.1216028998605907,938.1882380000316,None,938.1882380000316,None,938.1882380000316,None,938.1882380000316,None,None,None,939.326003999915,None,,,,,,,137,f,1,2022_Dec_13_1339,RL,2021.2.3,59.89315058666729,
