bandit,trials.thisRepN,trials.thisTrialN,trials.thisN,trials.thisIndex,instru_img1.started,instru_img1.stopped,instru_resp.keys,instru_resp.rt,instru_resp.started,instru_resp.stopped,instru_img2.started,instru_img2.stopped,instru_resp2.keys,instru_resp2.rt,instru_resp2.started,instru_resp2.stopped,fixbefore_2.started,fixbefore_2.stopped,rest_image.started,rest_image.stopped,rest_response.keys,rest_response.started,rest_response.stopped,red.started,red.stopped,green.started,green.stopped,yellow.started,yellow.stopped,blue.started,blue.stopped,choose_bandit.keys,choose_bandit.rt,choose_bandit.started,choose_bandit.stopped,Fixation.started,Fixation.stopped,black.started,black.stopped,red_2.started,red_2.stopped,green_2.started,green_2.stopped,yellow_2.started,yellow_2.stopped,blue_2.started,blue_2.stopped,fixation_2.started,fixation_2.stopped,docs.started,docs.stopped,image_2.started,image_2.stopped,black_com.started,black_com.stopped,reward_sub.started,reward_sub.stopped,palyerb.started,palyerb.stopped,reward__sub.started,reward__sub.stopped,compare.started,compare.stopped,red_compare.started,red_compare.stopped,green_com.started,green_com.stopped,yellow_com.started,yellow_com.stopped,blue_com.started,blue_com.stopped,rewardyellow,rewardred,rewardblue,rewardgreen,subchoose,playerb,image_3.started,image_3.stopped,slider.response,slider.rt,slider.started,slider.stopped,text.started,text.stopped,image_4.started,image_4.stopped,image_5.started,image_5.stopped,bigx.started,bigx.stopped,intertrialfix.started,intertrialfix.stopped,rest_response.rt,image.started,image.stopped,key_resp.keys,key_resp.started,key_resp.stopped,participant,Gender,Age,date,expName,psychopyVersion,frameRate,
,,,,,19.000833600061014,None,space,4.368987400084734,19.000833600061014,None,,,,,,,,,,,,,,,,,,,,,,,,,,,,,,,,,,,,,,,,,,,,,,,,,,,,,,,,,,,,,,,,,,,,,,,,,,,,,,,,,,,,,,,,,,139,f,1,2022_Dec_13_1438,RL,2021.2.3,59.970302759202276,
,,,,,,,,,,,23.388101200107485,None,space,8.221803799970075,23.388101200107485,None,,,,,,,,,,,,,,,,,,,,,,,,,,,,,,,,,,,,,,,,,,,,,,,,,,,,,,,,,,,,,,,,,,,,,,,,,,,,,,,,,,,,139,f,1,2022_Dec_13_1438,RL,2021.2.3,59.970302759202276,
1,0,0,0,0,,,,,,,,,,,,,31.63587910006754,None,None,None,None,None,None,32.6584575001616,None,32.6584575001616,None,32.6584575001616,None,32.6584575001616,None,j,0.4910115001257509,32.6584575001616,None,32.6584575001616,None,33.2064455000218,None,33.2064455000218,None,33.2064455000218,None,33.2064455000218,None,33.2064455000218,None,33.2064455000218,None,33.493504400132224,None,33.493504400132224,None,35.23712110007182,None,35.23712110007182,None,35.23712110007182,None,35.23712110007182,None,35.23712110007182,None,35.23712110007182,None,35.23712110007182,None,35.23712110007182,None,35.23712110007182,None,53,52,66,35,35,56,37.77230090019293,None,3.0,2.6160197001881897,37.77230090019293,None,37.77230090019293,None,37.77230090019293,None,37.77230090019293,None,None,None,40.42668050015345,None,,,,,,,139,f,1,2022_Dec_13_1438,RL,2021.2.3,59.970302759202276,
1,1,0,1,0,,,,,,,,,,,,,,,None,None,None,None,None,42.419009500183165,None,42.419009500183165,None,42.419009500183165,None,42.419009500183165,None,f,0.47058129985816777,42.419009500183165,None,42.419009500183165,None,42.94029520009644,None,42.94029520009644,None,42.94029520009644,None,42.94029520009644,None,42.94029520009644,None,42.94029520009644,None,43.21687910007313,44.81765310000628,43.21687910007313,44.81765310000628,44.85437040007673,None,44.85437040007673,None,44.85437040007673,None,44.85437040007673,None,44.85437040007673,None,44.85437040007673,None,44.85437040007673,None,44.85437040007673,None,44.85437040007673,None,50,59,63,41,59,53,47.3658499000594,None,4.0,1.887653399957344,47.3658499000594,None,47.3658499000594,None,47.3658499000594,None,47.3658499000594,None,None,None,49.27030620002188,None,,,,,,,139,f,1,2022_Dec_13_1438,RL,2021.2.3,59.970302759202276,
1,2,0,2,0,,,,,,,,,,,,,,,None,None,None,None,None,50.87488030013628,None,50.87488030013628,None,50.87488030013628,None,50.87488030013628,None,i,0.6245917999185622,50.87488030013628,None,50.87488030013628,None,51.547078100033104,None,51.547078100033104,None,51.547078100033104,None,51.547078100033104,None,51.547078100033104,None,51.547078100033104,None,51.83959400001913,53.29009360005148,51.83959400001913,53.29009360005148,53.32465710001998,None,53.32465710001998,None,53.32465710001998,None,53.32465710001998,None,53.32465710001998,None,53.32465710001998,None,53.32465710001998,None,53.32465710001998,None,53.32465710001998,None,48,58,61,37,61,53,55.84334630006924,None,4.0,1.3836241997778416,55.84334630006924,None,55.84334630006924,None,55.84334630006924,None,55.84334630006924,None,None,None,57.24307240010239,None,,,,,,,139,f,1,2022_Dec_13_1438,RL,2021.2.3,59.970302759202276,
1,3,0,3,0,,,,,,,,,,,,,,,None,None,None,None,None,59.18060980015434,None,59.18060980015434,None,59.18060980015434,None,59.18060980015434,None,r,0.2789590999018401,59.18060980015434,None,59.18060980015434,None,59.5015573001001,None,59.5015573001001,None,59.5015573001001,None,59.5015573001001,None,59.5015573001001,None,59.5015573001001,None,59.79488100018352,61.39584030001424,59.79488100018352,61.39584030001424,61.42897700006142,None,61.42897700006142,None,61.42897700006142,None,61.42897700006142,None,61.42897700006142,None,61.42897700006142,None,61.42897700006142,None,61.42897700006142,None,61.42897700006142,None,41,49,63,38,41,53,63.94324630009942,None,3.0,1.439343900186941,63.94324630009942,None,63.94324630009942,None,63.94324630009942,None,63.94324630009942,None,None,None,65.3982580001466,None,,,,,,,139,f,1,2022_Dec_13_1438,RL,2021.2.3,59.970302759202276,
1,4,0,4,0,,,,,,,,,,,,,,,None,None,None,None,None,66.98586410004646,None,66.98586410004646,None,66.98586410004646,None,66.98586410004646,None,i,0.35382870002649724,66.98586410004646,None,66.98586410004646,None,67.38690570020117,None,67.38690570020117,None,67.38690570020117,None,67.38690570020117,None,67.38690570020117,None,67.38690570020117,None,67.68398910015821,None,67.68398910015821,None,68.52497140015475,None,68.52497140015475,None,68.52497140015475,None,68.52497140015475,None,68.52497140015475,None,68.52497140015475,None,68.52497140015475,None,68.52497140015475,None,68.52497140015475,None,54,49,58,35,58,54,71.03203420015052,None,3.0,0.5033384000416845,71.03203420015052,None,71.03203420015052,None,71.03203420015052,None,71.03203420015052,None,None,None,71.55259020021185,None,,,,,,,139,f,1,2022_Dec_13_1438,RL,2021.2.3,59.970302759202276,
1,5,0,5,0,,,,,,,,,,,,,,,None,None,None,None,None,73.48994290013798,None,73.48994290013798,None,73.48994290013798,None,73.48994290013798,None,j,0.40966090001165867,73.48994290013798,None,73.48994290013798,None,73.93803160008974,None,73.93803160008974,None,73.93803160008974,None,73.93803160008974,None,73.93803160008974,None,73.93803160008974,None,74.23826690018177,None,74.23826690018177,None,75.2736903000623,None,75.2736903000623,None,75.2736903000623,None,75.2736903000623,None,75.2736903000623,None,75.2736903000623,None,75.2736903000623,None,75.2736903000623,None,75.2736903000623,None,54,53,64,48,48,36,77.78921650000848,None,4.0,0.9860932000447065,77.78921650000848,None,77.78921650000848,None,77.78921650000848,None,77.78921650000848,None,None,None,78.79110940010287,None,,,,,,,139,f,1,2022_Dec_13_1438,RL,2021.2.3,59.970302759202276,
1,6,0,6,0,,,,,,,,,,,,,,,None,None,None,None,None,80.41206170013174,None,80.41206170013174,None,80.41206170013174,None,80.41206170013174,None,r,0.4295312000904232,80.41206170013174,None,80.41206170013174,None,80.88026080001146,None,80.88026080001146,None,80.88026080001146,None,80.88026080001146,None,80.88026080001146,None,80.88026080001146,None,81.17637190013193,None,81.17637190013193,None,82.36187530006282,None,82.36187530006282,None,82.36187530006282,None,82.36187530006282,None,82.36187530006282,None,82.36187530006282,None,82.36187530006282,None,82.36187530006282,None,82.36187530006282,None,49,52,60,42,49,39,84.87694900017232,None,4.0,0.8706371998414397,84.87694900017232,None,84.87694900017232,None,84.87694900017232,None,84.87694900017232,None,None,None,85.76234090002254,None,,,,,,,139,f,1,2022_Dec_13_1438,RL,2021.2.3,59.970302759202276,
1,7,0,7,0,,,,,,,,,,,,,,,None,None,None,None,None,87.63360130018555,None,87.63360130018555,None,87.63360130018555,None,87.63360130018555,None,i,0.2762637999840081,87.63360130018555,None,87.63360130018555,None,87.9538642000407,None,87.9538642000407,None,87.9538642000407,None,87.9538642000407,None,87.9538642000407,None,87.9538642000407,None,88.2478658000473,None,88.2478658000473,None,89.13030920014717,None,89.13030920014717,None,89.13030920014717,None,89.13030920014717,None,89.13030920014717,None,89.13030920014717,None,89.13030920014717,None,89.13030920014717,None,89.13030920014717,None,45,49,62,39,62,53,91.65162170003168,None,4.0,0.731891900068149,91.65162170003168,None,91.65162170003168,None,91.65162170003168,None,91.65162170003168,None,None,None,92.40331410011277,None,,,,,,,139,f,1,2022_Dec_13_1438,RL,2021.2.3,59.970302759202276,
1,8,0,8,0,,,,,,,,,,,,,,,None,None,None,None,None,94.1219786000438,None,94.1219786000438,None,94.1219786000438,None,94.1219786000438,None,j,0.4279440001118928,94.1219786000438,None,94.1219786000438,None,94.59430820005946,None,94.59430820005946,None,94.59430820005946,None,94.59430820005946,None,94.59430820005946,None,94.59430820005946,None,94.88599480013363,None,94.88599480013363,None,95.9656078000553,None,95.9656078000553,None,95.9656078000553,None,95.9656078000553,None,95.9656078000553,None,95.9656078000553,None,95.9656078000553,None,95.9656078000553,None,95.9656078000553,None,43,48,60,44,44,46,98.48512670001946,None,3.0,1.1054128999821842,98.48512670001946,None,98.48512670001946,None,98.48512670001946,None,98.48512670001946,None,None,None,99.60763600002974,None,,,,,,,139,f,1,2022_Dec_13_1438,RL,2021.2.3,59.970302759202276,
1,9,0,9,0,,,,,,,,,,,,,,,None,None,None,None,None,101.45703779999167,None,101.45703779999167,None,101.45703779999167,None,101.45703779999167,None,f,0.28261400014162064,101.45703779999167,None,101.45703779999167,None,101.7849208000116,None,101.7849208000116,None,101.7849208000116,None,101.7849208000116,None,101.7849208000116,None,101.7849208000116,None,102.07442800002173,None,102.07442800002173,None,103.61291390005499,None,103.61291390005499,None,103.61291390005499,None,103.61291390005499,None,103.61291390005499,None,103.61291390005499,None,103.61291390005499,None,103.61291390005499,None,103.61291390005499,None,40,45,65,33,45,48,106.12492950004525,None,3.0,0.4716507999692112,106.12492950004525,None,106.12492950004525,None,106.12492950004525,None,106.12492950004525,None,None,None,106.61032190010883,None,,,,,,,139,f,1,2022_Dec_13_1438,RL,2021.2.3,59.970302759202276,
1,10,0,10,0,,,,,,,,,,,,,,,None,None,None,None,None,108.5313900001347,None,108.5313900001347,None,108.5313900001347,None,108.5313900001347,None,i,0.3383233000058681,108.5313900001347,None,108.5313900001347,None,108.91745010018349,None,108.91745010018349,None,108.91745010018349,None,108.91745010018349,None,108.91745010018349,None,108.91745010018349,None,109.21277930005454,110.37984150019474,109.21277930005454,110.37984150019474,110.41087040002458,None,110.41087040002458,None,110.41087040002458,None,110.41087040002458,None,110.41087040002458,None,110.41087040002458,None,110.41087040002458,None,110.41087040002458,None,110.41087040002458,None,49,42,63,35,63,45,112.9291362001095,None,4.0,0.6893199000041932,112.9291362001095,None,112.9291362001095,None,112.9291362001095,None,112.9291362001095,None,None,None,113.63279370008968,None,,,,,,,139,f,1,2022_Dec_13_1438,RL,2021.2.3,59.970302759202276,
1,11,0,11,0,,,,,,,,,,,,,,,None,None,None,None,None,115.15253780013882,None,115.15253780013882,None,115.15253780013882,None,115.15253780013882,None,j,0.38740580016747117,115.15253780013882,None,115.15253780013882,None,115.58934090007097,None,115.58934090007097,None,115.58934090007097,None,115.58934090007097,None,115.58934090007097,None,115.58934090007097,None,115.8838363001123,None,115.8838363001123,None,117.05025940015912,None,117.05025940015912,None,117.05025940015912,None,117.05025940015912,None,117.05025940015912,None,117.05025940015912,None,117.05025940015912,None,117.05025940015912,None,117.05025940015912,None,47,50,69,35,35,49,119.56490130000748,None,3.0,0.6247523000929505,119.56490130000748,None,119.56490130000748,None,119.56490130000748,None,119.56490130000748,None,None,None,120.21320810006,None,,,,,,,139,f,1,2022_Dec_13_1438,RL,2021.2.3,59.970302759202276,
1,12,0,12,0,,,,,,,,,,,,,,,None,None,None,None,None,121.90782300010324,None,121.90782300010324,None,121.90782300010324,None,121.90782300010324,None,r,0.3722854999359697,121.90782300010324,None,121.90782300010324,None,122.3260348001495,None,122.3260348001495,None,122.3260348001495,None,122.3260348001495,None,122.3260348001495,None,122.3260348001495,None,122.6217458001338,None,122.6217458001338,None,124.38739230018109,None,124.38739230018109,None,124.38739230018109,None,124.38739230018109,None,124.38739230018109,None,124.38739230018109,None,124.38739230018109,None,124.38739230018109,None,124.38739230018109,None,46,41,69,41,46,40,126.90694870008156,None,3.0,0.4856103998608887,126.90694870008156,None,126.90694870008156,None,126.90694870008156,None,126.90694870008156,None,None,None,127.40773220011033,None,,,,,,,139,f,1,2022_Dec_13_1438,RL,2021.2.3,59.970302759202276,
1,13,0,13,0,,,,,,,,,,,,,,,None,None,None,None,None,129.26288760011084,None,129.26288760011084,None,129.26288760011084,None,129.26288760011084,None,j,0.2572882999666035,129.26288760011084,None,129.26288760011084,None,129.56366500002332,None,129.56366500002332,None,129.56366500002332,None,129.56366500002332,None,129.56366500002332,None,129.56366500002332,None,129.86047760001384,None,129.86047760001384,None,131.52599720004946,None,131.52599720004946,None,131.52599720004946,None,131.52599720004946,None,131.52599720004946,None,131.52599720004946,None,131.52599720004946,None,131.52599720004946,None,131.52599720004946,None,52,42,56,38,38,58,134.0440003001131,None,3.0,0.5880954000167549,134.0440003001131,None,134.0440003001131,None,134.0440003001131,None,134.0440003001131,None,None,None,134.6555163001176,None,,,,,,,139,f,1,2022_Dec_13_1438,RL,2021.2.3,59.970302759202276,
1,14,0,14,0,,,,,,,,,,,,,,,None,None,None,None,None,136.20069680013694,None,136.20069680013694,None,136.20069680013694,None,136.20069680013694,None,f,0.2994535001926124,136.20069680013694,None,136.20069680013694,None,136.55541810020804,None,136.55541810020804,None,136.55541810020804,None,136.55541810020804,None,136.55541810020804,None,136.55541810020804,None,136.83166010002606,138.0155997001566,136.83166010002606,138.0155997001566,138.0629292000085,None,138.0629292000085,None,138.0629292000085,None,138.0629292000085,None,138.0629292000085,None,138.0629292000085,None,138.0629292000085,None,138.0629292000085,None,138.0629292000085,None,53,49,61,45,49,44,140.58077900018543,None,3.0,0.43761459994129837,140.58077900018543,None,140.58077900018543,None,140.58077900018543,None,140.58077900018543,None,None,None,141.03416730021127,None,,,,,,,139,f,1,2022_Dec_13_1438,RL,2021.2.3,59.970302759202276,
1,15,0,15,0,,,,,,,,,,,,,,,None,None,None,None,None,142.77191800018772,None,142.77191800018772,None,142.77191800018772,None,142.77191800018772,None,i,0.3189787999726832,142.77191800018772,None,142.77191800018772,None,143.14636830007657,None,143.14636830007657,None,143.14636830007657,None,143.14636830007657,None,143.14636830007657,None,143.14636830007657,None,143.43620450003073,None,143.43620450003073,None,144.98443459998816,None,144.98443459998816,None,144.98443459998816,None,144.98443459998816,None,144.98443459998816,None,144.98443459998816,None,144.98443459998816,None,144.98443459998816,None,144.98443459998816,None,54,42,59,41,59,58,147.50229870015755,None,4.0,0.7890919998753816,147.50229870015755,None,147.50229870015755,None,147.50229870015755,None,147.50229870015755,None,None,None,148.31533470004797,None,,,,,,,139,f,1,2022_Dec_13_1438,RL,2021.2.3,59.970302759202276,
1,16,0,16,0,,,,,,,,,,,,,,,None,None,None,None,None,149.89363420009613,None,149.89363420009613,None,149.89363420009613,None,149.89363420009613,None,r,0.24802269996143878,149.89363420009613,None,149.89363420009613,None,150.17886620014906,None,150.17886620014906,None,150.17886620014906,None,150.17886620014906,None,150.17886620014906,None,150.17886620014906,None,150.47470430005342,None,150.47470430005342,None,152.1957746001426,None,152.1957746001426,None,152.1957746001426,None,152.1957746001426,None,152.1957746001426,None,152.1957746001426,None,152.1957746001426,None,152.1957746001426,None,152.1957746001426,None,39,45,62,47,39,56,154.7069674001541,None,3.0,0.7051653999369591,154.7069674001541,None,154.7069674001541,None,154.7069674001541,None,154.7069674001541,None,None,None,155.42741770017892,None,,,,,,,139,f,1,2022_Dec_13_1438,RL,2021.2.3,59.970302759202276,
1,17,0,17,0,,,,,,,,,,,,,,,None,None,None,None,None,157.1487400000915,None,157.1487400000915,None,157.1487400000915,None,157.1487400000915,None,i,0.29256489989347756,157.1487400000915,None,157.1487400000915,None,157.48314240016043,None,157.48314240016043,None,157.48314240016043,None,157.48314240016043,None,157.48314240016043,None,157.48314240016043,None,157.77942470018752,None,157.77942470018752,None,158.64376900019124,None,158.64376900019124,None,158.64376900019124,None,158.64376900019124,None,158.64376900019124,None,158.64376900019124,None,158.64376900019124,None,158.64376900019124,None,158.64376900019124,None,53,47,56,44,56,55,161.16036470001563,None,4.0,0.9050120001193136,161.16036470001563,None,161.16036470001563,None,161.16036470001563,None,161.16036470001563,None,None,None,162.08207030012272,None,,,,,,,139,f,1,2022_Dec_13_1438,RL,2021.2.3,59.970302759202276,
1,18,0,18,0,,,,,,,,,,,,,,,None,None,None,None,None,163.6860786001198,None,163.6860786001198,None,163.6860786001198,None,163.6860786001198,None,f,0.24517130013555288,163.6860786001198,None,163.6860786001198,None,163.97113270009868,None,163.97113270009868,None,163.97113270009868,None,163.97113270009868,None,163.97113270009868,None,163.97113270009868,None,164.26732480013743,None,164.26732480013743,None,166.01694340002723,None,166.01694340002723,None,166.01694340002723,None,166.01694340002723,None,166.01694340002723,None,166.01694340002723,None,166.01694340002723,None,166.01694340002723,None,166.01694340002723,None,56,57,60,41,57,54,168.53337730001658,None,4.0,0.3882873000111431,168.53337730001658,None,168.53337730001658,None,168.53337730001658,None,168.53337730001658,None,None,None,168.9451552000828,None,,,,,,,139,f,1,2022_Dec_13_1438,RL,2021.2.3,59.970302759202276,
1,19,0,19,0,,,,,,,,,,,,,,,None,None,None,None,None,170.50790480012074,None,170.50790480012074,None,170.50790480012074,None,170.50790480012074,None,i,0.2434410999994725,170.50790480012074,None,170.50790480012074,None,170.79165980010293,None,170.79165980010293,None,170.79165980010293,None,170.79165980010293,None,170.79165980010293,None,170.79165980010293,None,171.08871320006438,None,171.08871320006438,None,171.98551820009016,None,171.98551820009016,None,171.98551820009016,None,171.98551820009016,None,171.98551820009016,None,171.98551820009016,None,171.98551820009016,None,171.98551820009016,None,171.98551820009016,None,59,52,52,37,52,48,174.5083626001142,None,4.0,0.43299590004608035,174.5083626001142,None,174.5083626001142,None,174.5083626001142,None,174.5083626001142,None,None,None,174.95844560000114,None,,,,,,,139,f,1,2022_Dec_13_1438,RL,2021.2.3,59.970302759202276,
1,20,0,20,0,,,,,,,,,,,,,,,None,None,None,None,None,176.64500260003842,None,176.64500260003842,None,176.64500260003842,None,176.64500260003842,None,j,0.35626430017873645,176.64500260003842,None,176.64500260003842,None,177.05022510001436,None,177.05022510001436,None,177.05022510001436,None,177.05022510001436,None,177.05022510001436,None,177.05022510001436,None,177.34303920017555,179.0940839999821,177.34303920017555,179.0940839999821,179.13014530017972,None,179.13014530017972,None,179.13014530017972,None,179.13014530017972,None,179.13014530017972,None,179.13014530017972,None,179.13014530017972,None,179.13014530017972,None,179.13014530017972,None,62,56,52,43,43,51,181.64194160001352,None,3.0,0.9050930000375956,181.64194160001352,None,181.64194160001352,None,181.64194160001352,None,181.64194160001352,None,None,None,182.56246310006827,None,,,,,,,139,f,1,2022_Dec_13_1438,RL,2021.2.3,59.970302759202276,
1,21,0,21,0,,,,,,,,,,,,,,,None,None,None,None,None,184.43433500011452,None,184.43433500011452,None,184.43433500011452,None,184.43433500011452,None,r,0.3475242001004517,184.43433500011452,None,184.43433500011452,None,184.81978740007617,None,184.81978740007617,None,184.81978740007617,None,184.81978740007617,None,184.81978740007617,None,184.81978740007617,None,185.1149873000104,None,185.1149873000104,None,186.6018215001095,None,186.6018215001095,None,186.6018215001095,None,186.6018215001095,None,186.6018215001095,None,186.6018215001095,None,186.6018215001095,None,186.6018215001095,None,186.6018215001095,None,71,51,48,43,71,38,189.12268740008585,None,5.0,0.5203506001271307,189.12268740008585,None,189.12268740008585,None,189.12268740008585,None,189.12268740008585,None,None,None,189.6511640001554,None,,,,,,,139,f,1,2022_Dec_13_1438,RL,2021.2.3,59.970302759202276,
1,22,0,22,0,,,,,,,,,,,,,,,None,None,None,None,None,191.37193710007705,None,191.37193710007705,None,191.37193710007705,None,191.37193710007705,None,r,0.2694061000365764,191.37193710007705,None,191.37193710007705,None,191.69339520018548,None,191.69339520018548,None,191.69339520018548,None,191.69339520018548,None,191.69339520018548,None,191.69339520018548,None,191.96976960008033,193.88751010014676,191.96976960008033,193.88751010014676,193.91015150002204,None,193.91015150002204,None,193.91015150002204,None,193.91015150002204,None,193.91015150002204,None,193.91015150002204,None,193.91015150002204,None,193.91015150002204,None,193.91015150002204,None,67,46,57,55,67,64,196.43594540003687,None,5.0,0.42055499996058643,196.43594540003687,None,196.43594540003687,None,196.43594540003687,None,196.43594540003687,None,None,None,196.8730601000134,None,,,,,,,139,f,1,2022_Dec_13_1438,RL,2021.2.3,59.970302759202276,
1,23,0,23,0,,,,,,,,,,,,,,,None,None,None,None,None,198.6439865999855,None,198.6439865999855,None,198.6439865999855,None,198.6439865999855,None,r,0.28737760009244084,198.6439865999855,None,198.6439865999855,None,198.98015100019984,None,198.98015100019984,None,198.98015100019984,None,198.98015100019984,None,198.98015100019984,None,198.98015100019984,None,199.27486350014806,None,199.27486350014806,None,200.684218400158,None,200.684218400158,None,200.684218400158,None,200.684218400158,None,200.684218400158,None,200.684218400158,None,200.684218400158,None,200.684218400158,None,200.684218400158,None,66,49,59,40,66,34,203.21146240015514,None,5.0,0.43439100007526577,203.21146240015514,None,203.21146240015514,None,203.21146240015514,None,203.21146240015514,None,None,None,203.66095430008136,None,,,,,,,139,f,1,2022_Dec_13_1438,RL,2021.2.3,59.970302759202276,
1,24,0,24,0,,,,,,,,,,,,,,,None,None,None,None,None,205.59873850014992,None,205.59873850014992,None,205.59873850014992,None,205.59873850014992,None,r,0.6327418000437319,205.59873850014992,None,205.59873850014992,None,206.2886398001574,None,206.2886398001574,None,206.2886398001574,None,206.2886398001574,None,206.2886398001574,None,206.2886398001574,None,206.5799340000376,208.44782240013592,206.5799340000376,208.44782240013592,208.4817795001436,None,208.4817795001436,None,208.4817795001436,None,208.4817795001436,None,208.4817795001436,None,208.4817795001436,None,208.4817795001436,None,208.4817795001436,None,208.4817795001436,None,60,40,61,51,60,64,210.99996490008198,None,4.0,0.5341233001090586,210.99996490008198,None,210.99996490008198,None,210.99996490008198,None,210.99996490008198,None,None,None,211.54981860006228,None,,,,,,,139,f,1,2022_Dec_13_1438,RL,2021.2.3,59.970302759202276,
1,25,0,25,0,,,,,,,,,,,,,,,None,None,None,None,None,213.37107260013,None,213.37107260013,None,213.37107260013,None,213.37107260013,None,r,0.25036150007508695,213.37107260013,None,213.37107260013,None,213.6739803000819,None,213.6739803000819,None,213.6739803000819,None,213.6739803000819,None,213.6739803000819,None,213.6739803000819,None,213.96830390021205,215.6360570001416,213.96830390021205,215.6360570001416,215.6662806000095,None,215.6662806000095,None,215.6662806000095,None,215.6662806000095,None,215.6662806000095,None,215.6662806000095,None,215.6662806000095,None,215.6662806000095,None,215.6662806000095,None,61,44,64,48,61,52,218.18855880014598,None,5.0,0.38332629995420575,218.18855880014598,None,218.18855880014598,None,218.18855880014598,None,218.18855880014598,None,None,None,218.58821030007675,None,,,,,,,139,f,1,2022_Dec_13_1438,RL,2021.2.3,59.970302759202276,
1,26,0,26,0,,,,,,,,,,,,,,,None,None,None,None,None,220.27529200003482,None,220.27529200003482,None,220.27529200003482,None,220.27529200003482,None,f,0.33620449993759394,220.27529200003482,None,220.27529200003482,None,220.66224720003083,None,220.66224720003083,None,220.66224720003083,None,220.66224720003083,None,220.66224720003083,None,220.66224720003083,None,220.9566407999955,None,220.9566407999955,None,222.45630980003625,None,222.45630980003625,None,222.45630980003625,None,222.45630980003625,None,222.45630980003625,None,222.45630980003625,None,222.45630980003625,None,222.45630980003625,None,222.45630980003625,None,62,56,57,44,56,56,224.9724868000485,None,5.0,0.37113030022010207,224.9724868000485,None,224.9724868000485,None,224.9724868000485,None,224.9724868000485,None,None,None,225.35922620003112,None,,,,,,,139,f,1,2022_Dec_13_1438,RL,2021.2.3,59.970302759202276,
1,27,0,27,0,,,,,,,,,,,,,,,None,None,None,None,None,227.01316990004852,None,227.01316990004852,None,227.01316990004852,None,227.01316990004852,None,r,0.3182393000461161,227.01316990004852,None,227.01316990004852,None,227.38132630009204,None,227.38132630009204,None,227.38132630009204,None,227.38132630009204,None,227.38132630009204,None,227.38132630009204,None,227.67807350005023,None,227.67807350005023,None,228.53112220019102,None,228.53112220019102,None,228.53112220019102,None,228.53112220019102,None,228.53112220019102,None,228.53112220019102,None,228.53112220019102,None,228.53112220019102,None,228.53112220019102,None,59,46,54,52,59,28,231.04283830011263,None,5.0,0.47236310015432537,231.04283830011263,None,231.04283830011263,None,231.04283830011263,None,231.04283830011263,None,None,None,231.53013950004242,None,,,,,,,139,f,1,2022_Dec_13_1438,RL,2021.2.3,59.970302759202276,
1,28,0,28,0,,,,,,,,,,,,,,,None,None,None,None,None,233.18438710016198,None,233.18438710016198,None,233.18438710016198,None,233.18438710016198,None,i,0.9273504999000579,233.18438710016198,None,233.18438710016198,None,234.15576370013878,None,234.15576370013878,None,234.15576370013878,None,234.15576370013878,None,234.15576370013878,None,234.15576370013878,None,234.4492780000437,235.79998980020173,234.4492780000437,235.79998980020173,235.8352413000539,None,235.8352413000539,None,235.8352413000539,None,235.8352413000539,None,235.8352413000539,None,235.8352413000539,None,235.8352413000539,None,235.8352413000539,None,235.8352413000539,None,55,50,53,49,53,59,238.34896420012228,None,4.0,0.6540635998826474,238.34896420012228,None,238.34896420012228,None,238.34896420012228,None,238.34896420012228,None,None,None,239.01851640013047,None,,,,,,,139,f,1,2022_Dec_13_1438,RL,2021.2.3,59.970302759202276,
1,29,0,29,0,,,,,,,,,,,,,,,None,None,None,None,None,240.5731267000083,None,240.5731267000083,None,240.5731267000083,None,240.5731267000083,None,j,0.3088737998623401,240.5731267000083,None,240.5731267000083,None,240.9310290000867,None,240.9310290000867,None,240.9310290000867,None,240.9310290000867,None,240.9310290000867,None,240.9310290000867,None,241.22065020003356,242.95501780021004,241.22065020003356,242.95501780021004,242.98779390007257,None,242.98779390007257,None,242.98779390007257,None,242.98779390007257,None,242.98779390007257,None,242.98779390007257,None,242.98779390007257,None,242.98779390007257,None,242.98779390007257,None,61,45,55,51,51,64,245.50605299999006,None,4.0,0.5381527000572532,245.50605299999006,None,245.50605299999006,None,245.50605299999006,None,245.50605299999006,None,None,None,246.06219700002111,None,,,,,,,139,f,1,2022_Dec_13_1438,RL,2021.2.3,59.970302759202276,
1,30,0,30,0,,,,,,,,,,,,,,,None,None,None,None,None,247.61193220014684,None,247.61193220014684,None,247.61193220014684,None,247.61193220014684,None,r,0.31969969999045134,247.61193220014684,None,247.61193220014684,None,247.9834788001608,None,247.9834788001608,None,247.9834788001608,None,247.9834788001608,None,247.9834788001608,None,247.9834788001608,None,248.27555960020982,None,248.27555960020982,None,249.7057289001532,None,249.7057289001532,None,249.7057289001532,None,249.7057289001532,None,249.7057289001532,None,249.7057289001532,None,249.7057289001532,None,249.7057289001532,None,249.7057289001532,None,61,59,56,45,61,58,252.22453420003876,None,5.0,0.7721080000046641,252.22453420003876,None,252.22453420003876,None,252.22453420003876,None,252.22453420003876,None,None,None,253.0117972001899,None,,,,,,,139,f,1,2022_Dec_13_1438,RL,2021.2.3,59.970302759202276,
1,31,0,31,0,,,,,,,,,,,,,,,None,None,None,None,None,255.01608199998736,None,255.01608199998736,None,255.01608199998736,None,255.01608199998736,None,r,0.27575920009985566,255.01608199998736,None,255.01608199998736,None,255.3352723000571,None,255.3352723000571,None,255.3352723000571,None,255.3352723000571,None,255.3352723000571,None,255.3352723000571,None,255.63057580008171,None,255.63057580008171,None,257.61204470018856,None,257.61204470018856,None,257.61204470018856,None,257.61204470018856,None,257.61204470018856,None,257.61204470018856,None,257.61204470018856,None,257.61204470018856,None,257.61204470018856,None,53,57,63,40,53,40,260.12914500012994,None,5.0,0.9008545000106096,260.12914500012994,None,260.12914500012994,None,260.12914500012994,None,260.12914500012994,None,None,None,261.050389500102,None,,,,,,,139,f,1,2022_Dec_13_1438,RL,2021.2.3,59.970302759202276,
1,32,0,32,0,,,,,,,,,,,,,,,None,None,None,None,None,262.58782690018415,None,262.58782690018415,None,262.58782690018415,None,262.58782690018415,None,r,0.3538741001393646,262.58782690018415,None,262.58782690018415,None,262.99211700004525,None,262.99211700004525,None,262.99211700004525,None,262.99211700004525,None,262.99211700004525,None,262.99211700004525,None,263.2859482001513,None,263.2859482001513,None,264.4171559000388,None,264.4171559000388,None,264.4171559000388,None,264.4171559000388,None,264.4171559000388,None,264.4171559000388,None,264.4171559000388,None,264.4171559000388,None,264.4171559000388,None,57,52,67,50,57,69,266.934036700055,None,4.0,0.5886684998404235,266.934036700055,None,266.934036700055,None,266.934036700055,None,266.934036700055,None,None,None,267.54317740001716,None,,,,,,,139,f,1,2022_Dec_13_1438,RL,2021.2.3,59.970302759202276,
1,33,0,33,0,,,,,,,,,,,,,,,None,None,None,None,None,269.2592459002044,None,269.2592459002044,None,269.2592459002044,None,269.2592459002044,None,r,0.2325951000675559,269.2592459002044,None,269.2592459002044,None,269.545919300057,None,269.545919300057,None,269.545919300057,None,269.545919300057,None,269.545919300057,None,269.545919300057,None,269.84047699999064,None,269.84047699999064,None,271.74127950007096,None,271.74127950007096,None,271.74127950007096,None,271.74127950007096,None,271.74127950007096,None,271.74127950007096,None,271.74127950007096,None,271.74127950007096,None,271.74127950007096,None,61,53,58,48,61,65,274.25589190004393,None,4.0,0.6885073999874294,274.25589190004393,None,274.25589190004393,None,274.25589190004393,None,274.25589190004393,None,None,None,274.96176300011575,None,,,,,,,139,f,1,2022_Dec_13_1438,RL,2021.2.3,59.970302759202276,
1,34,0,34,0,,,,,,,,,,,,,,,None,None,None,None,None,276.64813670003787,None,276.64813670003787,None,276.64813670003787,None,276.64813670003787,None,i,0.7737400999758393,276.64813670003787,None,276.64813670003787,None,277.46784050017595,None,277.46784050017595,None,277.46784050017595,None,277.46784050017595,None,277.46784050017595,None,277.46784050017595,None,277.7626176001504,None,277.7626176001504,None,279.59457240020856,None,279.59457240020856,None,279.59457240020856,None,279.59457240020856,None,279.59457240020856,None,279.59457240020856,None,279.59457240020856,None,279.59457240020856,None,279.59457240020856,None,54,55,65,49,65,70,282.11047300021164,None,4.0,0.7237472999840975,282.11047300021164,None,282.11047300021164,None,282.11047300021164,None,282.11047300021164,None,None,None,282.8571872001048,None,,,,,,,139,f,1,2022_Dec_13_1438,RL,2021.2.3,59.970302759202276,
1,35,0,35,0,,,,,,,,,,,,,,,None,None,None,None,None,284.6038463001605,None,284.6038463001605,None,284.6038463001605,None,284.6038463001605,None,j,0.3281566998921335,284.6038463001605,None,284.6038463001605,None,284.97493370017037,None,284.97493370017037,None,284.97493370017037,None,284.97493370017037,None,284.97493370017037,None,284.97493370017037,None,285.2510949000716,287.0022497000173,285.2510949000716,287.0022497000173,287.0338559001684,None,287.0338559001684,None,287.0338559001684,None,287.0338559001684,None,287.0338559001684,None,287.0338559001684,None,287.0338559001684,None,287.0338559001684,None,287.0338559001684,None,56,51,63,56,56,68,289.55032470007427,None,4.0,0.5381355001591146,289.55032470007427,None,289.55032470007427,None,289.55032470007427,None,289.55032470007427,None,None,None,290.1039573000744,None,,,,,,,139,f,1,2022_Dec_13_1438,RL,2021.2.3,59.970302759202276,
1,36,0,36,0,,,,,,,,,,,,,,,None,None,None,None,None,291.80794810014777,None,291.80794810014777,None,291.80794810014777,None,291.80794810014777,None,f,0.27403709990903735,291.80794810014777,None,291.80794810014777,None,292.1265490001533,None,292.1265490001533,None,292.1265490001533,None,292.1265490001533,None,292.1265490001533,None,292.1265490001533,None,292.42277810000814,None,292.42277810000814,None,294.1776796001941,None,294.1776796001941,None,294.1776796001941,None,294.1776796001941,None,294.1776796001941,None,294.1776796001941,None,294.1776796001941,None,294.1776796001941,None,294.1776796001941,None,57,63,71,53,63,60,296.68768570013344,None,4.0,0.38988210004754364,296.68768570013344,None,296.68768570013344,None,296.68768570013344,None,296.68768570013344,None,None,None,297.0924908001907,None,,,,,,,139,f,1,2022_Dec_13_1438,RL,2021.2.3,59.970302759202276,
1,37,0,37,0,,,,,,,,,,,,,,,None,None,None,None,None,298.8470064001158,None,298.8470064001158,None,298.8470064001158,None,298.8470064001158,None,f,0.2149928999133408,298.8470064001158,None,298.8470064001158,None,299.09833380021155,None,299.09833380021155,None,299.09833380021155,None,299.09833380021155,None,299.09833380021155,None,299.09833380021155,None,299.3943015001714,None,299.3943015001714,None,300.5592409002129,None,300.5592409002129,None,300.5592409002129,None,300.5592409002129,None,300.5592409002129,None,300.5592409002129,None,300.5592409002129,None,300.5592409002129,None,300.5592409002129,None,61,69,61,46,69,62,303.0775183001533,None,4.0,0.4550215001218021,303.0775183001533,None,303.0775183001533,None,303.0775183001533,None,303.0775183001533,None,None,None,303.54658349999227,None,,,,,,,139,f,1,2022_Dec_13_1438,RL,2021.2.3,59.970302759202276,
1,38,0,38,0,,,,,,,,,,,,,,,None,None,None,None,None,305.08478550007567,None,305.08478550007567,None,305.08478550007567,None,305.08478550007567,None,f,0.2973872998263687,305.08478550007567,None,305.08478550007567,None,305.4207853002008,None,305.4207853002008,None,305.4207853002008,None,305.4207853002008,None,305.4207853002008,None,305.4207853002008,None,305.71543940017,307.59983880002983,305.71543940017,307.59983880002983,307.63718000007793,None,307.63718000007793,None,307.63718000007793,None,307.63718000007793,None,307.63718000007793,None,307.63718000007793,None,307.63718000007793,None,307.63718000007793,None,307.63718000007793,None,56,58,64,55,58,51,310.1618815001566,None,4.0,0.3568728999234736,310.1618815001566,None,310.1618815001566,None,310.1618815001566,None,310.1618815001566,None,None,None,310.5346634001471,None,,,,,,,139,f,1,2022_Dec_13_1438,RL,2021.2.3,59.970302759202276,
1,39,0,39,0,,,,,,,,,,,,,,,None,None,None,None,None,312.4062707000412,None,312.4062707000412,None,312.4062707000412,None,312.4062707000412,None,f,0.2959667998366058,312.4062707000412,None,312.4062707000412,None,312.7417925000191,None,312.7417925000191,None,312.7417925000191,None,312.7417925000191,None,312.7417925000191,None,312.7417925000191,None,313.0371635002084,313.8874562000856,313.0371635002084,313.8874562000856,313.9089268001262,None,313.9089268001262,None,313.9089268001262,None,313.9089268001262,None,313.9089268001262,None,313.9089268001262,None,313.9089268001262,None,313.9089268001262,None,313.9089268001262,None,58,66,67,51,66,55,316.43623760016635,None,5.0,0.7218630001880229,316.43623760016635,None,316.43623760016635,None,316.43623760016635,None,316.43623760016635,None,None,None,317.1787590000313,None,,,,,,,139,f,1,2022_Dec_13_1438,RL,2021.2.3,59.970302759202276,
1,40,0,40,0,,,,,,,,,,,,,,,None,None,None,None,None,319.04438960016705,None,319.04438960016705,None,319.04438960016705,None,319.04438960016705,None,f,0.21863680006936193,319.04438960016705,None,319.04438960016705,None,319.31298679998145,None,319.31298679998145,None,319.31298679998145,None,319.31298679998145,None,319.31298679998145,None,319.31298679998145,None,319.6084012000356,None,319.6084012000356,None,320.6240950000938,None,320.6240950000938,None,320.6240950000938,None,320.6240950000938,None,320.6240950000938,None,320.6240950000938,None,320.6240950000938,None,320.6240950000938,None,320.6240950000938,None,58,57,52,53,57,71,323.14078850019723,None,3.0,0.6201117001473904,323.14078850019723,None,323.14078850019723,None,323.14078850019723,None,323.14078850019723,None,None,None,323.77726010000333,None,,,,,,,139,f,1,2022_Dec_13_1438,RL,2021.2.3,59.970302759202276,
1,41,0,41,0,,,,,,,,,,,,,,,None,None,None,None,None,325.76555350003764,None,325.76555350003764,None,325.76555350003764,None,325.76555350003764,None,r,0.2375485000666231,325.76555350003764,None,325.76555350003764,None,326.0516125999857,None,326.0516125999857,None,326.0516125999857,None,326.0516125999857,None,326.0516125999857,None,326.0516125999857,None,326.3461999001447,None,326.3461999001447,None,327.6113587000873,None,327.6113587000873,None,327.6113587000873,None,327.6113587000873,None,327.6113587000873,None,327.6113587000873,None,327.6113587000873,None,327.6113587000873,None,327.6113587000873,None,53,48,51,51,53,59,330.13235300011,None,3.0,0.5186209999956191,330.13235300011,None,330.13235300011,None,330.13235300011,None,330.13235300011,None,None,None,330.6654284000397,None,,,,,,,139,f,1,2022_Dec_13_1438,RL,2021.2.3,59.970302759202276,
1,42,0,42,0,,,,,,,,,,,,,,,None,None,None,None,None,332.5201382001396,None,332.5201382001396,None,332.5201382001396,None,332.5201382001396,None,j,0.25288889999501407,332.5201382001396,None,332.5201382001396,None,332.8233456001617,None,332.8233456001617,None,332.8233456001617,None,332.8233456001617,None,332.8233456001617,None,332.8233456001617,None,333.11772840004414,None,333.11772840004414,None,334.46817550016567,None,334.46817550016567,None,334.46817550016567,None,334.46817550016567,None,334.46817550016567,None,334.46817550016567,None,334.46817550016567,None,334.46817550016567,None,334.46817550016567,None,58,61,51,57,57,41,336.98243340011686,None,5.0,0.6732032001018524,336.98243340011686,None,336.98243340011686,None,336.98243340011686,None,336.98243340011686,None,None,None,337.6734396000393,None,,,,,,,139,f,1,2022_Dec_13_1438,RL,2021.2.3,59.970302759202276,
1,43,0,43,0,,,,,,,,,,,,,,,None,None,None,None,None,339.42532530007884,None,339.42532530007884,None,339.42532530007884,None,339.42532530007884,None,j,0.3076557000167668,339.42532530007884,None,339.42532530007884,None,339.77973170019686,None,339.77973170019686,None,339.77973170019686,None,339.77973170019686,None,339.77973170019686,None,339.77973170019686,None,340.072446500184,341.87365200021304,340.072446500184,341.87365200021304,341.90754660009407,None,341.90754660009407,None,341.90754660009407,None,341.90754660009407,None,341.90754660009407,None,341.90754660009407,None,341.90754660009407,None,341.90754660009407,None,341.90754660009407,None,55,56,56,61,61,59,344.42181070009246,None,4.0,0.456696700071916,344.42181070009246,None,344.42181070009246,None,344.42181070009246,None,344.42181070009246,None,None,None,344.894447500119,None,,,,,,,139,f,1,2022_Dec_13_1438,RL,2021.2.3,59.970302759202276,
1,44,0,44,0,,,,,,,,,,,,,,,None,None,None,None,None,346.6976900000591,None,346.6976900000591,None,346.6976900000591,None,346.6976900000591,None,i,0.17554620001465082,346.6976900000591,None,346.6976900000591,None,346.9186213000212,None,346.9186213000212,None,346.9186213000212,None,346.9186213000212,None,346.9186213000212,None,346.9186213000212,None,347.2106904000975,348.97863969998434,347.2106904000975,348.97863969998434,349.0114238001406,None,349.0114238001406,None,349.0114238001406,None,349.0114238001406,None,349.0114238001406,None,349.0114238001406,None,349.0114238001406,None,349.0114238001406,None,349.0114238001406,None,62,45,60,58,60,53,351.52792090014555,None,4.0,0.3719425001181662,351.52792090014555,None,351.52792090014555,None,351.52792090014555,None,351.52792090014555,None,None,None,351.9171444000676,None,,,,,,,139,f,1,2022_Dec_13_1438,RL,2021.2.3,59.970302759202276,
1,45,0,45,0,,,,,,,,,,,,,,,None,None,None,None,None,353.43487830017693,None,353.43487830017693,None,353.43487830017693,None,353.43487830017693,None,i,0.4382291999645531,353.43487830017693,None,353.43487830017693,None,353.90658830013126,None,353.90658830013126,None,353.90658830013126,None,353.90658830013126,None,353.90658830013126,None,353.90658830013126,None,354.19884090009145,355.01595870009623,354.19884090009145,355.01595870009623,355.04729120014235,None,355.04729120014235,None,355.04729120014235,None,355.04729120014235,None,355.04729120014235,None,355.04729120014235,None,355.04729120014235,None,355.04729120014235,None,355.04729120014235,None,54,50,50,64,50,45,357.56668200017884,None,4.0,0.46428790013305843,357.56668200017884,None,357.56668200017884,None,357.56668200017884,None,357.56668200017884,None,None,None,358.056062299991,None,,,,,,,139,f,1,2022_Dec_13_1438,RL,2021.2.3,59.970302759202276,
1,46,0,46,0,,,,,,,,,,,,,,,None,None,None,None,None,359.58856140007265,None,359.58856140007265,None,359.58856140007265,None,359.58856140007265,None,j,0.3248953998554498,359.58856140007265,None,359.58856140007265,None,359.95707980007865,None,359.95707980007865,None,359.95707980007865,None,359.95707980007865,None,359.95707980007865,None,359.95707980007865,None,360.25315300002694,361.4873005000409,360.25315300002694,361.4873005000409,361.52060510008596,None,361.52060510008596,None,361.52060510008596,None,361.52060510008596,None,361.52060510008596,None,361.52060510008596,None,361.52060510008596,None,361.52060510008596,None,361.52060510008596,None,57,60,51,46,46,54,364.0428084000014,None,4.0,0.3992843001615256,364.0428084000014,None,364.0428084000014,None,364.0428084000014,None,364.0428084000014,None,None,None,364.46585790021345,None,,,,,,,139,f,1,2022_Dec_13_1438,RL,2021.2.3,59.970302759202276,
1,47,0,47,0,,,,,,,,,,,,,,,None,None,None,None,None,366.1432573001366,None,366.1432573001366,None,366.1432573001366,None,366.1432573001366,None,j,1.3304878999479115,366.1432573001366,None,366.1432573001366,None,367.51454400015064,None,367.51454400015064,None,367.51454400015064,None,367.51454400015064,None,367.51454400015064,None,367.51454400015064,None,367.80853280005977,369.2259490999859,367.80853280005977,369.2259490999859,369.2588884001598,None,369.2588884001598,None,369.2588884001598,None,369.2588884001598,None,369.2588884001598,None,369.2588884001598,None,369.2588884001598,None,369.2588884001598,None,369.2588884001598,None,54,59,47,53,53,70,371.7771788001992,None,3.0,0.4213806998450309,371.7771788001992,None,371.7771788001992,None,371.7771788001992,None,371.7771788001992,None,None,None,372.2215784001164,None,,,,,,,139,f,1,2022_Dec_13_1438,RL,2021.2.3,59.970302759202276,
1,48,0,48,0,,,,,,,,,,,,,,,None,None,None,None,None,373.7489201000426,None,373.7489201000426,None,373.7489201000426,None,373.7489201000426,None,f,0.5345007998403162,373.7489201000426,None,373.7489201000426,None,374.3344631001819,None,374.3344631001819,None,374.3344631001819,None,374.3344631001819,None,374.3344631001819,None,374.3344631001819,None,374.62981400010176,None,374.62981400010176,None,376.4940103001427,None,376.4940103001427,None,376.4940103001427,None,376.4940103001427,None,376.4940103001427,None,376.4940103001427,None,376.4940103001427,None,376.4940103001427,None,376.4940103001427,None,60,69,50,58,69,66,379.0173999001272,None,4.0,0.7346149000804871,379.0173999001272,None,379.0173999001272,None,379.0173999001272,None,379.0173999001272,None,None,None,379.76603810000233,None,,,,,,,139,f,1,2022_Dec_13_1438,RL,2021.2.3,59.970302759202276,
1,49,0,49,0,,,,,,,,,,,,,,,None,None,None,None,None,381.40424010017887,None,381.40424010017887,None,381.40424010017887,None,381.40424010017887,None,r,0.4089456000365317,381.40424010017887,None,381.40424010017887,None,381.85635840008035,None,381.85635840008035,None,381.85635840008035,None,381.85635840008035,None,381.85635840008035,None,381.85635840008035,None,382.1516589000821,None,382.1516589000821,None,383.3500783999916,None,383.3500783999916,None,383.3500783999916,None,383.3500783999916,None,383.3500783999916,None,383.3500783999916,None,383.3500783999916,None,383.3500783999916,None,383.3500783999916,None,54,49,42,52,54,63,385.870971100172,None,3.0,0.6334966998547316,385.870971100172,None,385.870971100172,None,385.870971100172,None,385.870971100172,None,None,None,386.52652270020917,None,,,,,,,139,f,1,2022_Dec_13_1438,RL,2021.2.3,59.970302759202276,
1,50,0,50,0,,,,,,,,,,,,,,,None,None,None,None,None,388.04186620004475,None,388.04186620004475,None,388.04186620004475,None,388.04186620004475,None,f,0.2515062999445945,388.04186620004475,None,388.04186620004475,None,388.34418120002374,None,388.34418120002374,None,388.34418120002374,None,388.34418120002374,None,388.34418120002374,None,388.34418120002374,None,388.6395698999986,None,388.6395698999986,None,390.47276920010336,None,390.47276920010336,None,390.47276920010336,None,390.47276920010336,None,390.47276920010336,None,390.47276920010336,None,390.47276920010336,None,390.47276920010336,None,390.47276920010336,None,49,56,50,52,56,63,392.9890865001362,None,3.0,0.4883026999887079,392.9890865001362,None,392.9890865001362,None,392.9890865001362,None,392.9890865001362,None,None,None,393.49470510007814,None,,,,,,,139,f,1,2022_Dec_13_1438,RL,2021.2.3,59.970302759202276,
1,51,0,51,0,,,,,,,,,,,,,,,None,None,None,None,None,395.1801970000379,None,395.1801970000379,None,395.1801970000379,None,395.1801970000379,None,j,0.29342089989222586,395.1801970000379,None,395.1801970000379,None,395.5220793001354,None,395.5220793001354,None,395.5220793001354,None,395.5220793001354,None,395.5220793001354,None,395.5220793001354,None,395.81103780004196,None,395.81103780004196,None,397.1312804000918,None,397.1312804000918,None,397.1312804000918,None,397.1312804000918,None,397.1312804000918,None,397.1312804000918,None,397.1312804000918,None,397.1312804000918,None,397.1312804000918,None,53,51,47,62,62,68,399.6439843000844,None,3.0,0.5550053000915796,399.6439843000844,None,399.6439843000844,None,399.6439843000844,None,399.6439843000844,None,None,None,400.2232218000572,None,,,,,,,139,f,1,2022_Dec_13_1438,RL,2021.2.3,59.970302759202276,
1,52,0,52,0,,,,,,,,,,,,,,,None,None,None,None,None,401.7841768001672,None,401.7841768001672,None,401.7841768001672,None,401.7841768001672,None,i,0.3393900999799371,401.7841768001672,None,401.7841768001672,None,402.168320100056,None,402.168320100056,None,402.168320100056,None,402.168320100056,None,402.168320100056,None,402.168320100056,None,402.46581000019796,None,402.46581000019796,None,403.70311010000296,None,403.70311010000296,None,403.70311010000296,None,403.70311010000296,None,403.70311010000296,None,403.70311010000296,None,403.70311010000296,None,403.70311010000296,None,403.70311010000296,None,55,57,58,60,58,55,406.2138441000134,None,3.0,0.4199727999512106,406.2138441000134,None,406.2138441000134,None,406.2138441000134,None,406.2138441000134,None,None,None,406.65146300010383,None,,,,,,,139,f,1,2022_Dec_13_1438,RL,2021.2.3,59.970302759202276,
1,53,0,53,0,,,,,,,,,,,,,,,None,None,None,None,None,408.4723758001346,None,408.4723758001346,None,408.4723758001346,None,408.4723758001346,None,f,0.2511769998818636,408.4723758001346,None,408.4723758001346,None,408.7778775000479,None,408.7778775000479,None,408.7778775000479,None,408.7778775000479,None,408.7778775000479,None,408.7778775000479,None,409.0702745001763,409.92091970006004,409.0702745001763,409.92091970006004,409.95329590002075,None,409.95329590002075,None,409.95329590002075,None,409.95329590002075,None,409.95329590002075,None,409.95329590002075,None,409.95329590002075,None,409.95329590002075,None,409.95329590002075,None,50,62,46,60,62,60,412.47166190017015,None,4.0,0.5195683999918401,412.47166190017015,None,412.47166190017015,None,412.47166190017015,None,412.47166190017015,None,None,None,413.0116821001284,None,,,,,,,139,f,1,2022_Dec_13_1438,RL,2021.2.3,59.970302759202276,
1,54,0,54,0,,,,,,,,,,,,,,,None,None,None,None,None,414.5275259001646,None,414.5275259001646,None,414.5275259001646,None,414.5275259001646,None,j,0.2661647000350058,414.5275259001646,None,414.5275259001646,None,414.8471324001439,None,414.8471324001439,None,414.8471324001439,None,414.8471324001439,None,414.8471324001439,None,414.8471324001439,None,415.14119980018586,None,415.14119980018586,None,417.0899406999815,None,417.0899406999815,None,417.0899406999815,None,417.0899406999815,None,417.0899406999815,None,417.0899406999815,None,417.0899406999815,None,417.0899406999815,None,417.0899406999815,None,54,53,49,66,66,41,419.6068400000222,None,6.0,0.4365596999414265,419.6068400000222,None,419.6068400000222,None,419.6068400000222,None,419.6068400000222,None,None,None,420.06084530008957,None,,,,,,,139,f,1,2022_Dec_13_1438,RL,2021.2.3,59.970302759202276,
1,55,0,55,0,,,,,,,,,,,,,,,None,None,None,None,None,421.8657955999952,None,421.8657955999952,None,421.8657955999952,None,421.8657955999952,None,f,0.26793349999934435,421.8657955999952,None,421.8657955999952,None,422.18681009998545,None,422.18681009998545,None,422.18681009998545,None,422.18681009998545,None,422.18681009998545,None,422.18681009998545,None,422.47966940002516,423.3804351000581,422.47966940002516,423.3804351000581,423.4112424000632,None,423.4112424000632,None,423.4112424000632,None,423.4112424000632,None,423.4112424000632,None,423.4112424000632,None,423.4112424000632,None,423.4112424000632,None,423.4112424000632,None,50,47,48,71,47,67,425.9303724002093,None,4.0,0.5878234999254346,425.9303724002093,None,425.9303724002093,None,425.9303724002093,None,425.9303724002093,None,None,None,426.5330515000969,None,,,,,,,139,f,1,2022_Dec_13_1438,RL,2021.2.3,59.970302759202276,
1,56,0,56,0,,,,,,,,,,,,,,,None,None,None,None,None,428.38648320012726,None,428.38648320012726,None,428.38648320012726,None,428.38648320012726,None,j,0.19749090005643666,428.38648320012726,None,428.38648320012726,None,428.61576650012285,None,428.61576650012285,None,428.61576650012285,None,428.61576650012285,None,428.61576650012285,None,428.61576650012285,None,428.91744090011343,None,428.91744090011343,None,430.21491430001333,None,430.21491430001333,None,430.21491430001333,None,430.21491430001333,None,430.21491430001333,None,430.21491430001333,None,430.21491430001333,None,430.21491430001333,None,430.21491430001333,None,43,56,53,56,56,59,432.73313629999757,None,4.0,0.38347469992004335,432.73313629999757,None,432.73313629999757,None,432.73313629999757,None,432.73313629999757,None,None,None,433.13432670012116,None,,,,,,,139,f,1,2022_Dec_13_1438,RL,2021.2.3,59.970302759202276,
1,57,0,57,0,,,,,,,,,,,,,,,None,None,None,None,None,434.9744627000764,None,434.9744627000764,None,434.9744627000764,None,434.9744627000764,None,r,0.23938030004501343,434.9744627000764,None,434.9744627000764,None,435.26028560008854,None,435.26028560008854,None,435.26028560008854,None,435.26028560008854,None,435.26028560008854,None,435.26028560008854,None,435.55536660016514,437.339665699983,435.55536660016514,437.339665699983,437.3711316001136,None,437.3711316001136,None,437.3711316001136,None,437.3711316001136,None,437.3711316001136,None,437.3711316001136,None,437.3711316001136,None,437.3711316001136,None,437.3711316001136,None,47,60,54,55,47,70,439.88448090013117,None,3.0,0.4408444999717176,439.88448090013117,None,439.88448090013117,None,439.88448090013117,None,439.88448090013117,None,None,None,440.3416021000594,None,,,,,,,139,f,1,2022_Dec_13_1438,RL,2021.2.3,59.970302759202276,
1,58,0,58,0,,,,,,,,,,,,,,,None,None,None,None,None,442.213260400109,None,442.213260400109,None,442.213260400109,None,442.213260400109,None,i,0.2506728998851031,442.213260400109,None,442.213260400109,None,442.52625210001133,None,442.52625210001133,None,442.52625210001133,None,442.52625210001133,None,442.52625210001133,None,442.52625210001133,None,442.8103679001797,444.4947159001604,442.8103679001797,444.4947159001604,444.5275070001371,None,444.5275070001371,None,444.5275070001371,None,444.5275070001371,None,444.5275070001371,None,444.5275070001371,None,444.5275070001371,None,444.5275070001371,None,444.5275070001371,None,53,59,55,56,55,54,447.0477252001874,None,3.0,0.7195747999940068,447.0477252001874,None,447.0477252001874,None,447.0477252001874,None,447.0477252001874,None,None,None,447.7807827000506,None,,,,,,,139,f,1,2022_Dec_13_1438,RL,2021.2.3,59.970302759202276,
1,59,0,59,0,,,,,,,,,,,,,,,None,None,None,None,None,449.4338593999855,None,449.4338593999855,None,449.4338593999855,None,449.4338593999855,None,j,0.2299017000477761,449.4338593999855,None,449.4338593999855,None,449.70443430007435,None,449.70443430007435,None,449.70443430007435,None,449.70443430007435,None,449.70443430007435,None,449.70443430007435,None,449.99855520017445,None,449.99855520017445,None,451.5463625001721,None,451.5463625001721,None,451.5463625001721,None,451.5463625001721,None,451.5463625001721,None,451.5463625001721,None,451.5463625001721,None,451.5463625001721,None,451.5463625001721,None,40,50,53,56,56,59,454.0652083000168,None,3.0,0.4713846000377089,454.0652083000168,None,454.0652083000168,None,454.0652083000168,None,454.0652083000168,None,None,None,454.5514108000789,None,,,,,,,139,f,1,2022_Dec_13_1438,RL,2021.2.3,59.970302759202276,
1,60,0,60,0,,,,,,,,,,,,,,,None,None,None,None,None,456.13924520020373,None,456.13924520020373,None,456.13924520020373,None,456.13924520020373,None,f,0.3148376001045108,456.13924520020373,None,456.13924520020373,None,456.4945435000118,None,456.4945435000118,None,456.4945435000118,None,456.4945435000118,None,456.4945435000118,None,456.4945435000118,None,456.7701003002003,458.27080390020274,456.7701003002003,458.27080390020274,458.3021833000239,None,458.3021833000239,None,458.3021833000239,None,458.3021833000239,None,458.3021833000239,None,458.3021833000239,None,458.3021833000239,None,458.3021833000239,None,458.3021833000239,None,51,50,60,57,50,60,460.81886070012115,None,3.0,0.43733139988034964,460.81886070012115,None,460.81886070012115,None,460.81886070012115,None,460.81886070012115,None,None,None,461.272487899987,None,,,,,,,139,f,1,2022_Dec_13_1438,RL,2021.2.3,59.970302759202276,
1,61,0,61,0,,,,,,,,,,,,,,,None,None,None,None,None,463.2603798999917,None,463.2603798999917,None,463.2603798999917,None,463.2603798999917,None,j,0.2236229998525232,463.2603798999917,None,463.2603798999917,None,463.52889270009473,None,463.52889270009473,None,463.52889270009473,None,463.52889270009473,None,463.52889270009473,None,463.52889270009473,None,463.82495860010386,465.47603540006094,463.82495860010386,465.47603540006094,465.5122283999808,None,465.5122283999808,None,465.5122283999808,None,465.5122283999808,None,465.5122283999808,None,465.5122283999808,None,465.5122283999808,None,465.5122283999808,None,465.5122283999808,None,56,51,54,53,53,61,468.04193060006946,None,3.0,0.38512509991414845,468.04193060006946,None,468.04193060006946,None,468.04193060006946,None,468.04193060006946,None,None,None,468.44539370015264,None,,,,,,,139,f,1,2022_Dec_13_1438,RL,2021.2.3,59.970302759202276,
1,62,0,62,0,,,,,,,,,,,,,,,None,None,None,None,None,470.1996832001023,None,470.1996832001023,None,470.1996832001023,None,470.1996832001023,None,f,0.29505219985730946,470.1996832001023,None,470.1996832001023,None,470.5352582000196,None,470.5352582000196,None,470.5352582000196,None,470.5352582000196,None,470.5352582000196,None,470.5352582000196,None,470.8296670001,472.7476229001768,470.8296670001,472.7476229001768,472.77958240010776,None,472.77958240010776,None,472.77958240010776,None,472.77958240010776,None,472.77958240010776,None,472.77958240010776,None,472.77958240010776,None,472.77958240010776,None,472.77958240010776,None,55,42,66,57,42,56,475.29597400012426,None,3.0,0.38940549991093576,475.29597400012426,None,475.29597400012426,None,475.29597400012426,None,475.29597400012426,None,None,None,475.70984710007906,None,,,,,,,139,f,1,2022_Dec_13_1438,RL,2021.2.3,59.970302759202276,
1,63,0,63,0,,,,,,,,,,,,,,,None,None,None,None,None,477.68731240020134,None,477.68731240020134,None,477.68731240020134,None,477.68731240020134,None,i,0.31753970007412136,477.68731240020134,None,477.68731240020134,None,478.05888920021243,None,478.05888920021243,None,478.05888920021243,None,478.05888920021243,None,478.05888920021243,None,478.05888920021243,None,478.3516769001726,479.96931489999406,478.3516769001726,479.96931489999406,480.003282800084,None,480.003282800084,None,480.003282800084,None,480.003282800084,None,480.003282800084,None,480.003282800084,None,480.003282800084,None,480.003282800084,None,480.003282800084,None,48,49,69,48,69,71,482.5087540000677,None,4.0,0.5157206000294536,482.5087540000677,None,482.5087540000677,None,482.5087540000677,None,482.5087540000677,None,None,None,483.04841640009545,None,,,,,,,139,f,1,2022_Dec_13_1438,RL,2021.2.3,59.970302759202276,
1,64,0,64,0,,,,,,,,,,,,,,,None,None,None,None,None,485.0590533001814,None,485.0590533001814,None,485.0590533001814,None,485.0590533001814,None,r,0.24588089995086193,485.0590533001814,None,485.0590533001814,None,485.3444730001502,None,485.3444730001502,None,485.3444730001502,None,485.3444730001502,None,485.3444730001502,None,485.3444730001502,None,485.63999390020035,None,485.63999390020035,None,486.722695000004,None,486.722695000004,None,486.722695000004,None,486.722695000004,None,486.722695000004,None,486.722695000004,None,486.722695000004,None,486.722695000004,None,486.722695000004,None,54,51,66,44,54,56,489.2465701000765,None,4.0,0.4146839000750333,489.2465701000765,None,489.2465701000765,None,489.2465701000765,None,489.2465701000765,None,None,None,489.67606259998865,None,,,,,,,139,f,1,2022_Dec_13_1438,RL,2021.2.3,59.970302759202276,
1,65,0,65,0,,,,,,,,,,,,,,,None,None,None,None,None,491.66397160012275,None,491.66397160012275,None,491.66397160012275,None,491.66397160012275,None,f,0.2610781001858413,491.66397160012275,None,491.66397160012275,None,491.9637744000647,None,491.9637744000647,None,491.9637744000647,None,491.9637744000647,None,491.9637744000647,None,491.9637744000647,None,492.26125350012444,None,492.26125350012444,None,493.6106167000253,None,493.6106167000253,None,493.6106167000253,None,493.6106167000253,None,493.6106167000253,None,493.6106167000253,None,493.6106167000253,None,493.6106167000253,None,493.6106167000253,None,60,49,53,52,49,47,496.12899330002256,None,4.0,0.46915979986079037,496.12899330002256,None,496.12899330002256,None,496.12899330002256,None,496.12899330002256,None,None,None,496.6226365000475,None,,,,,,,139,f,1,2022_Dec_13_1438,RL,2021.2.3,59.970302759202276,
1,66,0,66,0,,,,,,,,,,,,,,,None,None,None,None,None,498.38492590002716,None,498.38492590002716,None,498.38492590002716,None,498.38492590002716,None,j,0.26035150000825524,498.38492590002716,None,498.38492590002716,None,498.6887717000209,None,498.6887717000209,None,498.6887717000209,None,498.6887717000209,None,498.6887717000209,None,498.6887717000209,None,498.98250790010206,500.7504490001593,498.98250790010206,500.7504490001593,500.78178960015066,None,500.78178960015066,None,500.78178960015066,None,500.78178960015066,None,500.78178960015066,None,500.78178960015066,None,500.78178960015066,None,500.78178960015066,None,500.78178960015066,None,52,42,50,57,57,53,503.2996237000916,None,4.0,0.48837739997543395,503.2996237000916,None,503.2996237000916,None,503.2996237000916,None,503.2996237000916,None,None,None,503.80241870018654,None,,,,,,,139,f,1,2022_Dec_13_1438,RL,2021.2.3,59.970302759202276,
1,67,0,67,0,,,,,,,,,,,,,,,None,None,None,None,None,505.57322590006515,None,505.57322590006515,None,505.57322590006515,None,505.57322590006515,None,r,0.2620973999146372,505.57322590006515,None,505.57322590006515,None,505.87593880016357,None,505.87593880016357,None,505.87593880016357,None,505.87593880016357,None,505.87593880016357,None,505.87593880016357,None,506.17104680021293,None,506.17104680021293,None,507.65143160009757,None,507.65143160009757,None,507.65143160009757,None,507.65143160009757,None,507.65143160009757,None,507.65143160009757,None,507.65143160009757,None,507.65143160009757,None,507.65143160009757,None,67,50,49,56,67,46,510.1703437999822,None,6.0,0.4708235999569297,510.1703437999822,None,510.1703437999822,None,510.1703437999822,None,510.1703437999822,None,None,None,510.6572679001838,None,,,,,,,139,f,1,2022_Dec_13_1438,RL,2021.2.3,59.970302759202276,
1,68,0,68,0,,,,,,,,,,,,,,,None,None,None,None,None,512.2276524000335,None,512.2276524000335,None,512.2276524000335,None,512.2276524000335,None,j,0.30747839994728565,512.2276524000335,None,512.2276524000335,None,512.581431100145,None,512.581431100145,None,512.581431100145,None,512.581431100145,None,512.581431100145,None,512.581431100145,None,512.8754181000404,None,512.8754181000404,None,514.1888483001385,None,514.1888483001385,None,514.1888483001385,None,514.1888483001385,None,514.1888483001385,None,514.1888483001385,None,514.1888483001385,None,514.1888483001385,None,514.1888483001385,None,65,35,50,53,53,47,516.7138867999893,None,5.0,0.4181178000289947,516.7138867999893,None,516.7138867999893,None,516.7138867999893,None,516.7138867999893,None,None,None,517.145233000163,None,,,,,,,139,f,1,2022_Dec_13_1438,RL,2021.2.3,59.970302759202276,
1,69,0,69,0,,,,,,,,,,,,,,,None,None,None,None,None,518.7488911000546,None,518.7488911000546,None,518.7488911000546,None,518.7488911000546,None,j,0.2565196000505239,518.7488911000546,None,518.7488911000546,None,519.0524714000057,None,519.0524714000057,None,519.0524714000057,None,519.0524714000057,None,519.0524714000057,None,519.0524714000057,None,519.3467491001356,None,519.3467491001356,None,520.2763602000196,None,520.2763602000196,None,520.2763602000196,None,520.2763602000196,None,520.2763602000196,None,520.2763602000196,None,520.2763602000196,None,520.2763602000196,None,520.2763602000196,None,59,39,45,55,55,68,522.7945721000433,None,4.0,0.45522419991903007,522.7945721000433,None,522.7945721000433,None,522.7945721000433,None,522.7945721000433,None,None,None,523.265725400066,None,,,,,,,139,f,1,2022_Dec_13_1438,RL,2021.2.3,59.970302759202276,
1,70,0,70,0,,,,,,,,,,,,,,,None,None,None,None,None,525.2206264000852,None,525.2206264000852,None,525.2206264000852,None,525.2206264000852,None,f,0.304521800018847,525.2206264000852,None,525.2206264000852,None,525.5708863001782,None,525.5708863001782,None,525.5708863001782,None,525.5708863001782,None,525.5708863001782,None,525.5708863001782,None,525.8678673000541,None,525.8678673000541,None,527.2461414001882,None,527.2461414001882,None,527.2461414001882,None,527.2461414001882,None,527.2461414001882,None,527.2461414001882,None,527.2461414001882,None,527.2461414001882,None,527.2461414001882,None,65,56,48,52,56,50,529.766761300154,None,4.0,0.4553757000248879,529.766761300154,None,529.766761300154,None,529.766761300154,None,529.766761300154,None,None,None,530.2416135000531,None,,,,,,,139,f,1,2022_Dec_13_1438,RL,2021.2.3,59.970302759202276,
1,71,0,71,0,,,,,,,,,,,,,,,None,None,None,None,None,532.0081735001877,None,532.0081735001877,None,532.0081735001877,None,532.0081735001877,None,j,0.29726090002804995,532.0081735001877,None,532.0081735001877,None,532.3478571001906,None,532.3478571001906,None,532.3478571001906,None,532.3478571001906,None,532.3478571001906,None,532.3478571001906,None,532.639383800095,None,532.639383800095,None,533.7360276000109,None,533.7360276000109,None,533.7360276000109,None,533.7360276000109,None,533.7360276000109,None,533.7360276000109,None,533.7360276000109,None,533.7360276000109,None,533.7360276000109,None,67,48,42,52,52,42,536.253943500109,None,5.0,0.5717960000038147,536.253943500109,None,536.253943500109,None,536.253943500109,None,536.253943500109,None,None,None,536.8443897999823,None,,,,,,,139,f,1,2022_Dec_13_1438,RL,2021.2.3,59.970302759202276,
1,72,0,72,0,,,,,,,,,,,,,,,None,None,None,None,None,538.5629781000316,None,538.5629781000316,None,538.5629781000316,None,538.5629781000316,None,r,0.30219389987178147,538.5629781000316,None,538.5629781000316,None,538.9196967000607,None,538.9196967000607,None,538.9196967000607,None,538.9196967000607,None,538.9196967000607,None,538.9196967000607,None,539.2105016000569,540.8948878000956,539.2105016000569,540.8948878000956,540.9277929000091,None,540.9277929000091,None,540.9277929000091,None,540.9277929000091,None,540.9277929000091,None,540.9277929000091,None,540.9277929000091,None,540.9277929000091,None,540.9277929000091,None,66,54,46,55,66,63,543.4460433002096,None,5.0,0.43143569980748,543.4460433002096,None,543.4460433002096,None,543.4460433002096,None,543.4460433002096,None,None,None,543.8991126001347,None,,,,,,,139,f,1,2022_Dec_13_1438,RL,2021.2.3,59.970302759202276,
1,73,0,73,0,,,,,,,,,,,,,,,None,None,None,None,None,545.8182284000795,None,545.8182284000795,None,545.8182284000795,None,545.8182284000795,None,f,0.7368900999426842,545.8182284000795,None,545.8182284000795,None,546.6039421001915,None,546.6039421001915,None,546.6039421001915,None,546.6039421001915,None,546.6039421001915,None,546.6039421001915,None,546.8992576000746,None,546.8992576000746,None,547.918310899986,None,547.918310899986,None,547.918310899986,None,547.918310899986,None,547.918310899986,None,547.918310899986,None,547.918310899986,None,547.918310899986,None,547.918310899986,None,66,42,48,59,42,61,550.4313125000335,None,3.0,0.5221255999058485,550.4313125000335,None,550.4313125000335,None,550.4313125000335,None,550.4313125000335,None,None,None,550.9740884001367,None,,,,,,,139,f,1,2022_Dec_13_1438,RL,2021.2.3,59.970302759202276,
1,74,0,74,0,,,,,,,,,,,,,,,None,None,None,None,None,552.5567559001502,None,552.5567559001502,None,552.5567559001502,None,552.5567559001502,None,j,0.29876849986612797,552.5567559001502,None,552.5567559001502,None,552.9078611000441,None,552.9078611000441,None,552.9078611000441,None,552.9078611000441,None,552.9078611000441,None,552.9078611000441,None,553.2035871001426,None,553.2035871001426,None,554.5346592999995,None,554.5346592999995,None,554.5346592999995,None,554.5346592999995,None,554.5346592999995,None,554.5346592999995,None,554.5346592999995,None,554.5346592999995,None,554.5346592999995,None,62,49,47,63,63,34,557.0514764001127,None,6.0,0.15872139995917678,557.0514764001127,None,557.0514764001127,None,557.0514764001127,None,557.0514764001127,None,None,None,557.2227945001796,None,,,,,,,139,f,1,2022_Dec_13_1438,RL,2021.2.3,59.970302759202276,
1,75,0,75,0,,,,,,,,,,,,,,,558.7738032999914,None,q,558.7738032999914,None,688.0497516000178,None,688.0497516000178,None,688.0497516000178,None,688.0497516000178,None,j,0.9145927000790834,688.0497516000178,None,688.0497516000178,None,689.0012561001349,None,689.0012561001349,None,689.0012561001349,None,689.0012561001349,None,689.0012561001349,None,689.0012561001349,None,689.2978879001457,None,689.2978879001457,None,690.6992651000619,None,690.6992651000619,None,690.6992651000619,None,690.6992651000619,None,690.6992651000619,None,690.6992651000619,None,690.6992651000619,None,690.6992651000619,None,690.6992651000619,None,61,41,59,58,58,63,693.2143962001428,None,4.0,1.353532399982214,693.2143962001428,None,693.2143962001428,None,693.2143962001428,None,693.2143962001428,None,None,None,694.5842320001684,None,129.25342600001022,,,,,,139,f,1,2022_Dec_13_1438,RL,2021.2.3,59.970302759202276,
1,76,0,76,0,,,,,,,,,,,,,,,None,None,None,None,None,696.3383506999817,None,696.3383506999817,None,696.3383506999817,None,696.3383506999817,None,i,0.2760307998396456,696.3383506999817,None,696.3383506999817,None,696.6592190000229,None,696.6592190000229,None,696.6592190000229,None,696.6592190000229,None,696.6592190000229,None,696.6592190000229,None,696.9531268000137,698.153874500189,696.9531268000137,698.153874500189,698.184485899983,None,698.184485899983,None,698.184485899983,None,698.184485899983,None,698.184485899983,None,698.184485899983,None,698.184485899983,None,698.184485899983,None,698.184485899983,None,63,37,47,70,47,63,700.7048701001331,None,3.0,0.4679101000074297,700.7048701001331,None,700.7048701001331,None,700.7048701001331,None,700.7048701001331,None,None,None,701.1953744001221,None,,,,,,,139,f,1,2022_Dec_13_1438,RL,2021.2.3,59.970302759202276,
1,77,0,77,0,,,,,,,,,,,,,,,None,None,None,None,None,703.1936232000589,None,703.1936232000589,None,703.1936232000589,None,703.1936232000589,None,j,0.2607527000363916,703.1936232000589,None,703.1936232000589,None,703.497003100114,None,703.497003100114,None,703.497003100114,None,703.497003100114,None,703.497003100114,None,703.497003100114,None,703.7912755000871,705.5923715000972,703.7912755000871,705.5923715000972,705.6233098001685,None,705.6233098001685,None,705.6233098001685,None,705.6233098001685,None,705.6233098001685,None,705.6233098001685,None,705.6233098001685,None,705.6233098001685,None,705.6233098001685,None,78,34,56,59,59,59,708.1404339000583,None,4.0,0.37092399992980063,708.1404339000583,None,708.1404339000583,None,708.1404339000583,None,708.1404339000583,None,None,None,708.5286028000992,None,,,,,,,139,f,1,2022_Dec_13_1438,RL,2021.2.3,59.970302759202276,
1,78,0,78,0,,,,,,,,,,,,,,,None,None,None,None,None,710.4327912000008,None,710.4327912000008,None,710.4327912000008,None,710.4327912000008,None,f,0.2013077000156045,710.4327912000008,None,710.4327912000008,None,710.6847792000044,None,710.6847792000044,None,710.6847792000044,None,710.6847792000044,None,710.6847792000044,None,710.6847792000044,None,710.9796767001972,712.0635491001885,710.9796767001972,712.0635491001885,712.0951768001541,None,712.0951768001541,None,712.0951768001541,None,712.0951768001541,None,712.0951768001541,None,712.0951768001541,None,712.0951768001541,None,712.0951768001541,None,712.0951768001541,None,73,32,56,48,32,31,714.5994628001936,None,4.0,0.5012318000663072,714.5994628001936,None,714.5994628001936,None,714.5994628001936,None,714.5994628001936,None,None,None,715.1276807000395,None,,,,,,,139,f,1,2022_Dec_13_1438,RL,2021.2.3,59.970302759202276,
1,79,0,79,0,,,,,,,,,,,,,,,None,None,None,None,None,716.953032300109,None,716.953032300109,None,716.953032300109,None,716.953032300109,None,f,1.0014586001634598,716.953032300109,None,716.953032300109,None,718.016398700187,None,718.016398700187,None,718.016398700187,None,718.016398700187,None,718.016398700187,None,718.016398700187,None,718.3013463001698,719.685469100019,718.3013463001698,719.685469100019,719.7174419001676,None,719.7174419001676,None,719.7174419001676,None,719.7174419001676,None,719.7174419001676,None,719.7174419001676,None,719.7174419001676,None,719.7174419001676,None,719.7174419001676,None,71,26,39,47,26,65,722.2348745001946,None,3.0,0.47174050007015467,722.2348745001946,None,722.2348745001946,None,722.2348745001946,None,722.2348745001946,None,None,None,722.7241555000655,None,,,,,,,139,f,1,2022_Dec_13_1438,RL,2021.2.3,59.970302759202276,
1,80,0,80,0,,,,,,,,,,,,,,,None,None,None,None,None,724.5086525999941,None,724.5086525999941,None,724.5086525999941,None,724.5086525999941,None,j,0.2457968001253903,724.5086525999941,None,724.5086525999941,None,724.7932944002096,None,724.7932944002096,None,724.7932944002096,None,724.7932944002096,None,724.7932944002096,None,724.7932944002096,None,725.0894499002025,None,725.0894499002025,None,726.5440969001502,None,726.5440969001502,None,726.5440969001502,None,726.5440969001502,None,726.5440969001502,None,726.5440969001502,None,726.5440969001502,None,726.5440969001502,None,726.5440969001502,None,70,32,54,49,49,63,729.0595765002072,None,3.0,0.3845919999293983,729.0595765002072,None,729.0595765002072,None,729.0595765002072,None,729.0595765002072,None,None,None,729.4593510001432,None,,,,,,,139,f,1,2022_Dec_13_1438,RL,2021.2.3,59.970302759202276,
1,81,0,81,0,,,,,,,,,,,,,,,None,None,None,None,None,731.2796248001978,None,731.2796248001978,None,731.2796248001978,None,731.2796248001978,None,i,0.2651035999879241,731.2796248001978,None,731.2796248001978,None,731.5984581001103,None,731.5984581001103,None,731.5984581001103,None,731.5984581001103,None,731.5984581001103,None,731.5984581001103,None,731.8941707999911,None,731.8941707999911,None,732.8246373999864,None,732.8246373999864,None,732.8246373999864,None,732.8246373999864,None,732.8246373999864,None,732.8246373999864,None,732.8246373999864,None,732.8246373999864,None,732.8246373999864,None,73,45,45,44,45,59,735.3424228001386,None,3.0,0.38660759991034865,735.3424228001386,None,735.3424228001386,None,735.3424228001386,None,735.3424228001386,None,None,None,735.747019100003,None,,,,,,,139,f,1,2022_Dec_13_1438,RL,2021.2.3,59.970302759202276,
1,82,0,82,0,,,,,,,,,,,,,,,None,None,None,None,None,737.3343164999969,None,737.3343164999969,None,737.3343164999969,None,737.3343164999969,None,j,0.2502939999103546,737.3343164999969,None,737.3343164999969,None,737.6404238000978,None,737.6404238000978,None,737.6404238000978,None,737.6404238000978,None,737.6404238000978,None,737.6404238000978,None,737.931557000149,None,737.931557000149,None,739.4290057001635,None,739.4290057001635,None,739.4290057001635,None,739.4290057001635,None,739.4290057001635,None,739.4290057001635,None,739.4290057001635,None,739.4290057001635,None,739.4290057001635,None,75,26,44,52,52,60,741.951754800044,None,3.0,0.3672653001267463,741.951754800044,None,741.951754800044,None,741.951754800044,None,741.951754800044,None,None,None,742.3342856999952,None,,,,,,,139,f,1,2022_Dec_13_1438,RL,2021.2.3,59.970302759202276,
1,83,0,83,0,,,,,,,,,,,,,,,None,None,None,None,None,743.8389587001875,None,743.8389587001875,None,743.8389587001875,None,743.8389587001875,None,j,0.24542249995283782,743.8389587001875,None,743.8389587001875,None,744.1241311000194,None,744.1241311000194,None,744.1241311000194,None,744.1241311000194,None,744.1241311000194,None,744.1241311000194,None,744.4195122001693,745.4200923000462,744.4195122001693,745.4200923000462,745.4514681000728,None,745.4514681000728,None,745.4514681000728,None,745.4514681000728,None,745.4514681000728,None,745.4514681000728,None,745.4514681000728,None,745.4514681000728,None,745.4514681000728,None,71,25,48,46,46,53,747.9717499001417,None,3.0,0.34956500004045665,747.9717499001417,None,747.9717499001417,None,747.9717499001417,None,747.9717499001417,None,None,None,748.341389000183,None,,,,,,,139,f,1,2022_Dec_13_1438,RL,2021.2.3,59.970302759202276,
1,84,0,84,0,,,,,,,,,,,,,,,None,None,None,None,None,750.2264509000815,None,750.2264509000815,None,750.2264509000815,None,750.2264509000815,None,i,0.2282007997855544,750.2264509000815,None,750.2264509000815,None,750.4955362000037,None,750.4955362000037,None,750.4955362000037,None,750.4955362000037,None,750.4955362000037,None,750.4955362000037,None,750.79063160019,None,750.79063160019,None,752.7547667000908,None,752.7547667000908,None,752.7547667000908,None,752.7547667000908,None,752.7547667000908,None,752.7547667000908,None,752.7547667000908,None,752.7547667000908,None,752.7547667000908,None,75,35,48,50,48,29,755.2769122000318,None,4.0,0.33536150003783405,755.2769122000318,None,755.2769122000318,None,755.2769122000318,None,755.2769122000318,None,None,None,755.6322212000377,None,,,,,,,139,f,1,2022_Dec_13_1438,RL,2021.2.3,59.970302759202276,
1,85,0,85,0,,,,,,,,,,,,,,,None,None,None,None,None,757.198283100035,None,757.198283100035,None,757.198283100035,None,757.198283100035,None,i,0.23612240003421903,757.198283100035,None,757.198283100035,None,757.4849086999893,None,757.4849086999893,None,757.4849086999893,None,757.4849086999893,None,757.4849086999893,None,757.4849086999893,None,757.7620006001089,759.1961902000476,757.7620006001089,759.1961902000476,759.2280845001806,None,759.2280845001806,None,759.2280845001806,None,759.2280845001806,None,759.2280845001806,None,759.2280845001806,None,759.2280845001806,None,759.2280845001806,None,759.2280845001806,None,75,35,47,51,47,64,761.7518262001686,None,3.0,0.38014760008081794,761.7518262001686,None,761.7518262001686,None,761.7518262001686,None,761.7518262001686,None,None,None,762.1491607001517,None,,,,,,,139,f,1,2022_Dec_13_1438,RL,2021.2.3,59.970302759202276,
1,86,0,86,0,,,,,,,,,,,,,,,None,None,None,None,None,764.069120200118,None,764.069120200118,None,764.069120200118,None,764.069120200118,None,j,0.22567630000412464,764.069120200118,None,764.069120200118,None,764.3388141000178,None,764.3388141000178,None,764.3388141000178,None,764.3388141000178,None,764.3388141000178,None,764.3388141000178,None,764.6334188000765,None,764.6334188000765,None,765.8027830000501,None,765.8027830000501,None,765.8027830000501,None,765.8027830000501,None,765.8027830000501,None,765.8027830000501,None,765.8027830000501,None,765.8027830000501,None,765.8027830000501,None,70,31,38,48,48,69,768.3165649999864,None,3.0,0.40354710002429783,768.3165649999864,None,768.3165649999864,None,768.3165649999864,None,768.3165649999864,None,None,None,768.7418911000714,None,,,,,,,139,f,1,2022_Dec_13_1438,RL,2021.2.3,59.970302759202276,
1,87,0,87,0,,,,,,,,,,,,,,,None,None,None,None,None,770.7065274000634,None,770.7065274000634,None,770.7065274000634,None,770.7065274000634,None,j,0.2687407999765128,770.7065274000634,None,770.7065274000634,None,771.027136299992,None,771.027136299992,None,771.027136299992,None,771.027136299992,None,771.027136299992,None,771.027136299992,None,771.3214084000792,None,771.3214084000792,None,772.5583179001696,None,772.5583179001696,None,772.5583179001696,None,772.5583179001696,None,772.5583179001696,None,772.5583179001696,None,772.5583179001696,None,772.5583179001696,None,772.5583179001696,None,77,32,48,65,65,54,775.0689596000593,None,4.0,0.38744039996527135,775.0689596000593,None,775.0689596000593,None,775.0689596000593,None,775.0689596000593,None,None,None,775.4752353001386,None,,,,,,,139,f,1,2022_Dec_13_1438,RL,2021.2.3,59.970302759202276,
1,88,0,88,0,,,,,,,,,,,,,,,None,None,None,None,None,777.2085989001207,None,777.2085989001207,None,777.2085989001207,None,777.2085989001207,None,i,0.2461578999646008,777.2085989001207,None,777.2085989001207,None,777.5009262000676,None,777.5009262000676,None,777.5009262000676,None,777.5009262000676,None,777.5009262000676,None,777.5009262000676,None,777.7924898001365,None,777.7924898001365,None,779.1253174000885,None,779.1253174000885,None,779.1253174000885,None,779.1253174000885,None,779.1253174000885,None,779.1253174000885,None,779.1253174000885,None,779.1253174000885,None,779.1253174000885,None,71,31,49,57,49,48,781.6462791000959,None,4.0,0.3482785001397133,781.6462791000959,None,781.6462791000959,None,781.6462791000959,None,781.6462791000959,None,None,None,782.0130152001511,None,,,,,,,139,f,1,2022_Dec_13_1438,RL,2021.2.3,59.970302759202276,
1,89,0,89,0,,,,,,,,,,,,,,,None,None,None,None,None,783.7996706999838,None,783.7996706999838,None,783.7996706999838,None,783.7996706999838,None,f,0.25497810007072985,783.7996706999838,None,783.7996706999838,None,784.1026142002083,None,784.1026142002083,None,784.1026142002083,None,784.1026142002083,None,784.1026142002083,None,784.1026142002083,None,784.3971710000187,None,784.3971710000187,None,786.2675010000821,None,786.2675010000821,None,786.2675010000821,None,786.2675010000821,None,786.2675010000821,None,786.2675010000821,None,786.2675010000821,None,786.2675010000821,None,786.2675010000821,None,74,32,53,57,32,31,788.7835171001498,None,4.0,0.5531228000763804,788.7835171001498,None,788.7835171001498,None,788.7835171001498,None,788.7835171001498,None,None,None,789.3600331000052,None,,,,,,,139,f,1,2022_Dec_13_1438,RL,2021.2.3,59.970302759202276,
1,90,0,90,0,,,,,,,,,,,,,,,None,None,None,None,None,791.1724517000839,None,791.1724517000839,None,791.1724517000839,None,791.1724517000839,None,r,0.23244629986584187,791.1724517000839,None,791.1724517000839,None,791.458103600191,None,791.458103600191,None,791.458103600191,None,791.458103600191,None,791.458103600191,None,791.458103600191,None,791.7521973000839,None,791.7521973000839,None,793.5165676001925,None,793.5165676001925,None,793.5165676001925,None,793.5165676001925,None,793.5165676001925,None,793.5165676001925,None,793.5165676001925,None,793.5165676001925,None,793.5165676001925,None,74,32,52,55,74,57,796.0356452001724,None,7.0,0.42155819991603494,796.0356452001724,None,796.0356452001724,None,796.0356452001724,None,796.0356452001724,None,None,None,796.4756508001592,None,,,,,,,139,f,1,2022_Dec_13_1438,RL,2021.2.3,59.970302759202276,
1,91,0,91,0,,,,,,,,,,,,,,,None,None,None,None,None,798.0256672000978,None,798.0256672000978,None,798.0256672000978,None,798.0256672000978,None,r,0.24906000006012619,798.0256672000978,None,798.0256672000978,None,798.3123352001421,None,798.3123352001421,None,798.3123352001421,None,798.3123352001421,None,798.3123352001421,None,798.3123352001421,None,798.6070464001969,799.5908758000005,798.6070464001969,799.5908758000005,799.624073300045,None,799.624073300045,None,799.624073300045,None,799.624073300045,None,799.624073300045,None,799.624073300045,None,799.624073300045,None,799.624073300045,None,799.624073300045,None,80,32,57,53,80,61,802.1396449999884,None,7.0,0.3558600000105798,802.1396449999884,None,802.1396449999884,None,802.1396449999884,None,802.1396449999884,None,None,None,802.5139249002095,None,,,,,,,139,f,1,2022_Dec_13_1438,RL,2021.2.3,59.970302759202276,
1,92,0,92,0,,,,,,,,,,,,,,,None,None,None,None,None,804.2300484001171,None,804.2300484001171,None,804.2300484001171,None,804.2300484001171,None,r,0.28472530003637075,804.2300484001171,None,804.2300484001171,None,804.5703048000578,None,804.5703048000578,None,804.5703048000578,None,804.5703048000578,None,804.5703048000578,None,804.5703048000578,None,804.8614135000389,806.2288470000494,804.8614135000389,806.2288470000494,806.2605590000749,None,806.2605590000749,None,806.2605590000749,None,806.2605590000749,None,806.2605590000749,None,806.2605590000749,None,806.2605590000749,None,806.2605590000749,None,806.2605590000749,None,66,29,60,54,66,54,808.7825723001733,None,7.0,0.34927020012401044,808.7825723001733,None,808.7825723001733,None,808.7825723001733,None,808.7825723001733,None,None,None,809.1473782001995,None,,,,,,,139,f,1,2022_Dec_13_1438,RL,2021.2.3,59.970302759202276,
1,93,0,93,0,,,,,,,,,,,,,,,None,None,None,None,None,810.9348588001449,None,810.9348588001449,None,810.9348588001449,None,810.9348588001449,None,r,0.23030150006525218,810.9348588001449,None,810.9348588001449,None,811.2070489001926,None,811.2070489001926,None,811.2070489001926,None,811.2070489001926,None,811.2070489001926,None,811.2070489001926,None,811.4825937000569,813.1837398000062,811.4825937000569,813.1837398000062,813.2303627000656,None,813.2303627000656,None,813.2303627000656,None,813.2303627000656,None,813.2303627000656,None,813.2303627000656,None,813.2303627000656,None,813.2303627000656,None,813.2303627000656,None,68,34,60,55,68,56,815.7482491000555,None,7.0,0.3555700001306832,815.7482491000555,None,815.7482491000555,None,815.7482491000555,None,815.7482491000555,None,None,None,816.1220097001642,None,,,,,,,139,f,1,2022_Dec_13_1438,RL,2021.2.3,59.970302759202276,
1,94,0,94,0,,,,,,,,,,,,,,,None,None,None,None,None,817.8559146001935,None,817.8559146001935,None,817.8559146001935,None,817.8559146001935,None,r,0.24901070003397763,817.8559146001935,None,817.8559146001935,None,818.1602241999935,None,818.1602241999935,None,818.1602241999935,None,818.1602241999935,None,818.1602241999935,None,818.1602241999935,None,818.4541176999919,820.0216510000173,818.4541176999919,820.0216510000173,820.0543991001323,None,820.0543991001323,None,820.0543991001323,None,820.0543991001323,None,820.0543991001323,None,820.0543991001323,None,820.0543991001323,None,820.0543991001323,None,820.0543991001323,None,76,31,66,43,76,63,822.5692076000851,None,7.0,0.37234049988910556,822.5692076000851,None,822.5692076000851,None,822.5692076000851,None,822.5692076000851,None,None,None,822.961696700193,None,,,,,,,139,f,1,2022_Dec_13_1438,RL,2021.2.3,59.970302759202276,
1,95,0,95,0,,,,,,,,,,,,,,,None,None,None,None,None,824.7276555001736,None,824.7276555001736,None,824.7276555001736,None,824.7276555001736,None,r,0.24736369983293116,824.7276555001736,None,824.7276555001736,None,825.008359100204,None,825.008359100204,None,825.008359100204,None,825.008359100204,None,825.008359100204,None,825.008359100204,None,825.3088236001786,None,825.3088236001786,None,827.0413597000297,None,827.0413597000297,None,827.0413597000297,None,827.0413597000297,None,827.0413597000297,None,827.0413597000297,None,827.0413597000297,None,827.0413597000297,None,827.0413597000297,None,79,26,78,50,79,34,829.5586943000089,None,7.0,0.3544756001792848,829.5586943000089,None,829.5586943000089,None,829.5586943000089,None,829.5586943000089,None,None,None,829.9284326999914,None,,,,,,,139,f,1,2022_Dec_13_1438,RL,2021.2.3,59.970302759202276,
1,96,0,96,0,,,,,,,,,,,,,,,None,None,None,None,None,831.9327516001649,None,831.9327516001649,None,831.9327516001649,None,831.9327516001649,None,r,0.2322652000002563,831.9327516001649,None,831.9327516001649,None,832.2202120001893,None,832.2202120001893,None,832.2202120001893,None,832.2202120001893,None,832.2202120001893,None,832.2202120001893,None,832.4972105000634,833.4644144000486,832.4972105000634,833.4644144000486,833.4952275000978,None,833.4952275000978,None,833.4952275000978,None,833.4952275000978,None,833.4952275000978,None,833.4952275000978,None,833.4952275000978,None,833.4952275000978,None,833.4952275000978,None,80,23,71,37,80,52,836.0112286000513,None,7.0,0.3561174999922514,836.0112286000513,None,836.0112286000513,None,836.0112286000513,None,836.0112286000513,None,None,None,836.3826523001771,None,,,,,,,139,f,1,2022_Dec_13_1438,RL,2021.2.3,59.970302759202276,
1,97,0,97,0,,,,,,,,,,,,,,,None,None,None,None,None,838.354356800206,None,838.354356800206,None,838.354356800206,None,838.354356800206,None,r,0.2706030998378992,838.354356800206,None,838.354356800206,None,838.6696876999922,None,838.6696876999922,None,838.6696876999922,None,838.6696876999922,None,838.6696876999922,None,838.6696876999922,None,838.9685878001619,None,838.9685878001619,None,840.9508664000314,None,840.9508664000314,None,840.9508664000314,None,840.9508664000314,None,840.9508664000314,None,840.9508664000314,None,840.9508664000314,None,840.9508664000314,None,840.9508664000314,None,76,19,75,47,76,49,843.4696698000189,None,7.0,0.319683900102973,843.4696698000189,None,843.4696698000189,None,843.4696698000189,None,843.4696698000189,None,None,None,843.8044741000049,None,,,,,,,139,f,1,2022_Dec_13_1438,RL,2021.2.3,59.970302759202276,
1,98,0,98,0,,,,,,,,,,,,,,,None,None,None,None,None,845.6589301000349,None,845.6589301000349,None,845.6589301000349,None,845.6589301000349,None,r,0.21722079999744892,845.6589301000349,None,845.6589301000349,None,845.9278180000838,None,845.9278180000838,None,845.9278180000838,None,845.9278180000838,None,845.9278180000838,None,845.9278180000838,None,846.2233120000456,847.7410023000557,846.2233120000456,847.7410023000557,847.7734025001992,None,847.7734025001992,None,847.7734025001992,None,847.7734025001992,None,847.7734025001992,None,847.7734025001992,None,847.7734025001992,None,847.7734025001992,None,847.7734025001992,None,82,30,66,44,82,52,850.2899960000068,None,7.0,0.3374836000148207,850.2899960000068,None,850.2899960000068,None,850.2899960000068,None,850.2899960000068,None,None,None,850.642645600019,None,,,,,,,139,f,1,2022_Dec_13_1438,RL,2021.2.3,59.970302759202276,
1,99,0,99,0,,,,,,,,,,,,,,,None,None,None,None,None,852.4808281001169,None,852.4808281001169,None,852.4808281001169,None,852.4808281001169,None,r,0.3052674999926239,852.4808281001169,None,852.4808281001169,None,852.8330576000735,None,852.8330576000735,None,852.8330576000735,None,852.8330576000735,None,852.8330576000735,None,852.8330576000735,None,853.1281372001395,None,853.1281372001395,None,854.7099926001392,None,854.7099926001392,None,854.7099926001392,None,854.7099926001392,None,854.7099926001392,None,854.7099926001392,None,854.7099926001392,None,854.7099926001392,None,854.7099926001392,None,75,24,71,45,75,48,857.2293809000403,None,7.0,0.3705856001470238,857.2293809000403,None,857.2293809000403,None,857.2293809000403,None,857.2293809000403,None,None,None,857.6140126001555,None,,,,,,,139,f,1,2022_Dec_13_1438,RL,2021.2.3,59.970302759202276,
1,100,0,100,0,,,,,,,,,,,,,,,None,None,None,None,None,859.535608000122,None,859.535608000122,None,859.535608000122,None,859.535608000122,None,r,0.18079219991341233,859.535608000122,None,859.535608000122,None,859.7556953001767,None,859.7556953001767,None,859.7556953001767,None,859.7556953001767,None,859.7556953001767,None,859.7556953001767,None,860.0496141000185,860.9166715000756,860.0496141000185,860.9166715000756,860.9466262001079,None,860.9466262001079,None,860.9466262001079,None,860.9466262001079,None,860.9466262001079,None,860.9466262001079,None,860.9466262001079,None,860.9466262001079,None,860.9466262001079,None,82,29,70,54,82,60,863.4607332001906,None,7.0,0.3606221000663936,863.4607332001906,None,863.4607332001906,None,863.4607332001906,None,863.4607332001906,None,None,None,863.8350687001366,None,,,,,,,139,f,1,2022_Dec_13_1438,RL,2021.2.3,59.970302759202276,
1,101,0,101,0,,,,,,,,,,,,,,,None,None,None,None,None,865.4901770001743,None,865.4901770001743,None,865.4901770001743,None,865.4901770001743,None,r,0.3659111999440938,865.4901770001743,None,865.4901770001743,None,865.9111957000569,None,865.9111957000569,None,865.9111957000569,None,865.9111957000569,None,865.9111957000569,None,865.9111957000569,None,866.1872558000032,867.0877452001441,866.1872558000032,867.0877452001441,867.1188785000704,None,867.1188785000704,None,867.1188785000704,None,867.1188785000704,None,867.1188785000704,None,867.1188785000704,None,867.1188785000704,None,867.1188785000704,None,867.1188785000704,None,85,26,68,48,85,64,869.6356653000694,None,7.0,0.3557823000010103,869.6356653000694,None,869.6356653000694,None,869.6356653000694,None,869.6356653000694,None,None,None,870.0060575001407,None,,,,,,,139,f,1,2022_Dec_13_1438,RL,2021.2.3,59.970302759202276,
1,102,0,102,0,,,,,,,,,,,,,,,None,None,None,None,None,871.8610307001509,None,871.8610307001509,None,871.8610307001509,None,871.8610307001509,None,r,0.275192900095135,871.8610307001509,None,871.8610307001509,None,872.181479900144,None,872.181479900144,None,872.181479900144,None,872.181479900144,None,872.181479900144,None,872.181479900144,None,872.4747792000417,None,872.4747792000417,None,873.5046012999956,None,873.5046012999956,None,873.5046012999956,None,873.5046012999956,None,873.5046012999956,None,873.5046012999956,None,873.5046012999956,None,873.5046012999956,None,873.5046012999956,None,80,25,73,53,80,61,876.0278861999977,None,7.0,0.35069340001791716,876.0278861999977,None,876.0278861999977,None,876.0278861999977,None,876.0278861999977,None,None,None,876.3936672999989,None,,,,,,,139,f,1,2022_Dec_13_1438,RL,2021.2.3,59.970302759202276,
1,103,0,103,0,,,,,,,,,,,,,,,None,None,None,None,None,878.0982419000939,None,878.0982419000939,None,878.0982419000939,None,878.0982419000939,None,r,0.23801129986532032,878.0982419000939,None,878.0982419000939,None,878.3836472001858,None,878.3836472001858,None,878.3836472001858,None,878.3836472001858,None,878.3836472001858,None,878.3836472001858,None,878.6791278000455,880.0301161000971,878.6791278000455,880.0301161000971,880.0669825000223,None,880.0669825000223,None,880.0669825000223,None,880.0669825000223,None,880.0669825000223,None,880.0669825000223,None,880.0669825000223,None,880.0669825000223,None,880.0669825000223,None,68,26,76,60,68,58,882.6013807000127,None,5.0,0.3669998999685049,882.6013807000127,None,882.6013807000127,None,882.6013807000127,None,882.6013807000127,None,None,None,882.98915210017,None,,,,,,,139,f,1,2022_Dec_13_1438,RL,2021.2.3,59.970302759202276,
1,104,0,104,0,,,,,,,,,,,,,,,None,None,None,None,None,884.6192914000712,None,884.6192914000712,None,884.6192914000712,None,884.6192914000712,None,r,0.15702379983849823,884.6192914000712,None,884.6192914000712,None,884.8218758001458,None,884.8218758001458,None,884.8218758001458,None,884.8218758001458,None,884.8218758001458,None,884.8218758001458,None,885.1170205001254,886.5344671001658,885.1170205001254,886.5344671001658,886.5657655000687,None,886.5657655000687,None,886.5657655000687,None,886.5657655000687,None,886.5657655000687,None,886.5657655000687,None,886.5657655000687,None,886.5657655000687,None,886.5657655000687,None,71,21,70,45,71,49,889.0884470001329,None,6.0,0.38449430000036955,889.0884470001329,None,889.0884470001329,None,889.0884470001329,None,889.0884470001329,None,None,None,889.4860551001038,None,,,,,,,139,f,1,2022_Dec_13_1438,RL,2021.2.3,59.970302759202276,
1,105,0,105,0,,,,,,,,,,,,,,,None,None,None,None,None,891.3573088000994,None,891.3573088000994,None,891.3573088000994,None,891.3573088000994,None,r,0.22910430002957582,891.3573088000994,None,891.3573088000994,None,891.6317059001885,None,891.6317059001885,None,891.6317059001885,None,891.6317059001885,None,891.6317059001885,None,891.6317059001885,None,891.9217492002062,893.8228229000233,891.9217492002062,893.8228229000233,893.8559487999883,None,893.8559487999883,None,893.8559487999883,None,893.8559487999883,None,893.8559487999883,None,893.8559487999883,None,893.8559487999883,None,893.8559487999883,None,893.8559487999883,None,82,18,74,53,82,52,896.3756320001557,None,6.0,0.36488529993221164,896.3756320001557,None,896.3756320001557,None,896.3756320001557,None,896.3756320001557,None,None,None,896.7645606000442,None,,,,,,,139,f,1,2022_Dec_13_1438,RL,2021.2.3,59.970302759202276,
1,106,0,106,0,,,,,,,,,,,,,,,None,None,None,None,None,898.3626358001493,None,898.3626358001493,None,898.3626358001493,None,898.3626358001493,None,r,0.8439342000056058,898.3626358001493,None,898.3626358001493,None,899.2510427001398,None,899.2510427001398,None,899.2510427001398,None,899.2510427001398,None,899.2510427001398,None,899.2510427001398,None,899.543605200015,None,899.543605200015,None,901.34140080004,None,901.34140080004,None,901.34140080004,None,901.34140080004,None,901.34140080004,None,901.34140080004,None,901.34140080004,None,901.34140080004,None,901.34140080004,None,80,21,68,53,80,60,903.8596356001217,None,7.0,0.3723671000916511,903.8596356001217,None,903.8596356001217,None,903.8596356001217,None,903.8596356001217,None,None,None,904.2481627000961,None,,,,,,,139,f,1,2022_Dec_13_1438,RL,2021.2.3,59.970302759202276,
1,107,0,107,0,,,,,,,,,,,,,,,None,None,None,None,None,905.9008878001478,None,905.9008878001478,None,905.9008878001478,None,905.9008878001478,None,r,0.3055593001190573,905.9008878001478,None,905.9008878001478,None,906.2624813001603,None,906.2624813001603,None,906.2624813001603,None,906.2624813001603,None,906.2624813001603,None,906.2624813001603,None,906.5489749000408,908.4830118999816,906.5489749000408,908.4830118999816,908.5131229001563,None,908.5131229001563,None,908.5131229001563,None,908.5131229001563,None,908.5131229001563,None,908.5131229001563,None,908.5131229001563,None,908.5131229001563,None,908.5131229001563,None,78,15,67,53,78,49,911.0309464000165,None,6.0,0.3720346000045538,911.0309464000165,None,911.0309464000165,None,911.0309464000165,None,911.0309464000165,None,None,None,911.4179760999978,None,,,,,,,139,f,1,2022_Dec_13_1438,RL,2021.2.3,59.970302759202276,
1,108,0,108,0,,,,,,,,,,,,,,,None,None,None,None,None,913.2060795000289,None,913.2060795000289,None,913.2060795000289,None,913.2060795000289,None,r,0.27023740019649267,913.2060795000289,None,913.2060795000289,None,913.5261341000441,None,913.5261341000441,None,913.5261341000441,None,913.5261341000441,None,913.5261341000441,None,913.5261341000441,None,913.8202211000025,915.5879697001074,913.8202211000025,915.5879697001074,915.6176647001412,None,915.6176647001412,None,915.6176647001412,None,915.6176647001412,None,915.6176647001412,None,915.6176647001412,None,915.6176647001412,None,915.6176647001412,None,915.6176647001412,None,75,13,66,49,75,54,918.138488000026,None,6.0,0.3873451999388635,918.138488000026,None,918.138488000026,None,918.138488000026,None,918.138488000026,None,None,None,918.5399527000263,None,,,,,,,139,f,1,2022_Dec_13_1438,RL,2021.2.3,59.970302759202276,
1,109,0,109,0,,,,,,,,,,,,,,,None,None,None,None,None,920.3444632000756,None,920.3444632000756,None,920.3444632000756,None,920.3444632000756,None,r,0.28196720010600984,920.3444632000756,None,920.3444632000756,None,920.685396200046,None,920.685396200046,None,920.685396200046,None,920.685396200046,None,920.685396200046,None,920.685396200046,None,920.9752181000076,None,920.9752181000076,None,921.9727684999816,None,921.9727684999816,None,921.9727684999816,None,921.9727684999816,None,921.9727684999816,None,921.9727684999816,None,921.9727684999816,None,921.9727684999816,None,921.9727684999816,None,69,15,74,59,69,46,924.4906477001496,None,6.0,0.37119159987196326,924.4906477001496,None,924.4906477001496,None,924.4906477001496,None,924.4906477001496,None,None,None,924.8774633000139,None,,,,,,,139,f,1,2022_Dec_13_1438,RL,2021.2.3,59.970302759202276,
1,110,0,110,0,,,,,,,,,,,,,,,None,None,None,None,None,926.4482119001914,None,926.4482119001914,None,926.4482119001914,None,926.4482119001914,None,r,0.2793888000305742,926.4482119001914,None,926.4482119001914,None,926.7648010000121,None,926.7648010000121,None,926.7648010000121,None,926.7648010000121,None,926.7648010000121,None,926.7648010000121,None,927.0626807000954,None,927.0626807000954,None,928.6255093000364,None,928.6255093000364,None,928.6255093000364,None,928.6255093000364,None,928.6255093000364,None,928.6255093000364,None,928.6255093000364,None,928.6255093000364,None,928.6255093000364,None,69,23,68,47,69,49,931.1469382001087,None,6.0,0.40228789998218417,931.1469382001087,None,931.1469382001087,None,931.1469382001087,None,931.1469382001087,None,None,None,931.5654498999938,None,,,,,,,139,f,1,2022_Dec_13_1438,RL,2021.2.3,59.970302759202276,
1,111,0,111,0,,,,,,,,,,,,,,,None,None,None,None,None,933.4694020000752,None,933.4694020000752,None,933.4694020000752,None,933.4694020000752,None,r,0.236953399842605,933.4694020000752,None,933.4694020000752,None,933.7551049001049,None,933.7551049001049,None,933.7551049001049,None,933.7551049001049,None,933.7551049001049,None,933.7551049001049,None,934.0509054001886,None,934.0509054001886,None,935.6647914000787,None,935.6647914000787,None,935.6647914000787,None,935.6647914000787,None,935.6647914000787,None,935.6647914000787,None,935.6647914000787,None,935.6647914000787,None,935.6647914000787,None,73,22,69,54,73,59,938.1898803000804,None,6.0,0.3169145998544991,938.1898803000804,None,938.1898803000804,None,938.1898803000804,None,938.1898803000804,None,None,None,938.5202390002087,None,,,,,,,139,f,1,2022_Dec_13_1438,RL,2021.2.3,59.970302759202276,
