bandit,trials.thisRepN,trials.thisTrialN,trials.thisN,trials.thisIndex,instru_img1.started,instru_img1.stopped,instru_resp.keys,instru_resp.rt,instru_resp.started,instru_resp.stopped,instru_img2.started,instru_img2.stopped,instru_resp2.keys,instru_resp2.rt,instru_resp2.started,instru_resp2.stopped,fixbefore_2.started,fixbefore_2.stopped,rest_image.started,rest_image.stopped,rest_response.keys,rest_response.started,rest_response.stopped,red.started,red.stopped,green.started,green.stopped,yellow.started,yellow.stopped,blue.started,blue.stopped,choose_bandit.keys,choose_bandit.rt,choose_bandit.started,choose_bandit.stopped,Fixation.started,Fixation.stopped,black.started,black.stopped,red_2.started,red_2.stopped,green_2.started,green_2.stopped,yellow_2.started,yellow_2.stopped,blue_2.started,blue_2.stopped,fixation_2.started,fixation_2.stopped,docs.started,docs.stopped,image_2.started,image_2.stopped,black_com.started,black_com.stopped,reward_sub.started,reward_sub.stopped,palyerb.started,palyerb.stopped,reward__sub.started,reward__sub.stopped,compare.started,compare.stopped,red_compare.started,red_compare.stopped,green_com.started,green_com.stopped,yellow_com.started,yellow_com.stopped,blue_com.started,blue_com.stopped,rewardyellow,rewardred,rewardblue,rewardgreen,subchoose,playerb,image_3.started,image_3.stopped,slider.response,slider.rt,slider.started,slider.stopped,text.started,text.stopped,image_4.started,image_4.stopped,image_5.started,image_5.stopped,bigx.started,bigx.stopped,intertrialfix.started,intertrialfix.stopped,rest_response.rt,image.started,image.stopped,key_resp.keys,key_resp.started,key_resp.stopped,participant,Gender,Age,date,expName,psychopyVersion,frameRate,
,,,,,14.478527300059795,None,space,2.3471454000100493,14.478527300059795,None,,,,,,,,,,,,,,,,,,,,,,,,,,,,,,,,,,,,,,,,,,,,,,,,,,,,,,,,,,,,,,,,,,,,,,,,,,,,,,,,,,,,,,,,,,140,f,1,2022_Dec_13_1437,RL,2021.2.3,60.22122865147148,
,,,,,,,,,,,16.860636700410396,None,space,38.63125069998205,16.860636700410396,None,,,,,,,,,,,,,,,,,,,,,,,,,,,,,,,,,,,,,,,,,,,,,,,,,,,,,,,,,,,,,,,,,,,,,,,,,,,,,,,,,,,,140,f,1,2022_Dec_13_1437,RL,2021.2.3,60.22122865147148,
1,0,0,0,0,,,,,,,,,,,,,55.511247700080276,None,None,None,None,None,None,56.52765540033579,None,56.52765540033579,None,56.52765540033579,None,56.52765540033579,None,r,0.5266308002173901,56.52765540033579,None,56.52765540033579,None,57.09852990042418,None,57.09852990042418,None,57.09852990042418,None,57.09852990042418,None,57.09852990042418,None,57.09852990042418,None,57.388262800406665,58.318631700240076,57.388262800406665,58.318631700240076,58.35149240028113,None,58.35149240028113,None,58.35149240028113,None,58.35149240028113,None,58.35149240028113,None,58.35149240028113,None,58.35149240028113,None,58.35149240028113,None,58.35149240028113,None,66,45,38,52,66,54,60.87173250038177,None,4.0,2.5994702000170946,60.87173250038177,None,60.87173250038177,None,60.87173250038177,None,60.87173250038177,None,None,None,63.560584500432014,None,,,,,,,140,f,1,2022_Dec_13_1437,RL,2021.2.3,60.22122865147148,
1,1,0,1,0,,,,,,,,,,,,,,,None,None,None,None,None,65.36567210033536,None,65.36567210033536,None,65.36567210033536,None,65.36567210033536,None,i,0.8001879998482764,65.36567210033536,None,65.36567210033536,None,66.21049500023946,None,66.21049500023946,None,66.21049500023946,None,66.21049500023946,None,66.21049500023946,None,66.21049500023946,None,66.49668400036171,68.22488500038162,66.49668400036171,68.22488500038162,68.25149270007387,None,68.25149270007387,None,68.25149270007387,None,68.25149270007387,None,68.25149270007387,None,68.25149270007387,None,68.25149270007387,None,68.25149270007387,None,68.25149270007387,None,65,29,32,50,32,48,70.75645540002733,None,3.0,2.252044700086117,70.75645540002733,None,70.75645540002733,None,70.75645540002733,None,70.75645540002733,None,None,None,73.02744580013677,None,,,,,,,140,f,1,2022_Dec_13_1437,RL,2021.2.3,60.22122865147148,
1,2,0,2,0,,,,,,,,,,,,,,,None,None,None,None,None,74.85640050005168,None,74.85640050005168,None,74.85640050005168,None,74.85640050005168,None,r,0.5659810998477042,74.85640050005168,None,74.85640050005168,None,75.45217850012705,None,75.45217850012705,None,75.45217850012705,None,75.45217850012705,None,75.45217850012705,None,75.45217850012705,None,75.73795690014958,77.71567700011656,75.73795690014958,77.71567700011656,77.73983700014651,None,77.73983700014651,None,77.73983700014651,None,77.73983700014651,None,77.73983700014651,None,77.73983700014651,None,77.73983700014651,None,77.73983700014651,None,77.73983700014651,None,58,39,38,47,58,40,80.24837130028754,None,4.0,2.2344672000035644,80.24837130028754,None,80.24837130028754,None,80.24837130028754,None,80.24837130028754,None,None,None,82.50174280023202,None,,,,,,,140,f,1,2022_Dec_13_1437,RL,2021.2.3,60.22122865147148,
1,3,0,3,0,,,,,,,,,,,,,,,None,None,None,None,None,84.28105500014499,None,84.28105500014499,None,84.28105500014499,None,84.28105500014499,None,j,1.196471099741757,84.28105500014499,None,84.28105500014499,None,85.50923980027437,None,85.50923980027437,None,85.50923980027437,None,85.50923980027437,None,85.50923980027437,None,85.50923980027437,None,85.79427820025012,87.42286920035258,85.79427820025012,87.42286920035258,87.44869870040566,None,87.44869870040566,None,87.44869870040566,None,87.44869870040566,None,87.44869870040566,None,87.44869870040566,None,87.44869870040566,None,87.44869870040566,None,87.44869870040566,None,63,31,38,51,51,57,89.9581517004408,None,3.0,2.86409919988364,89.9581517004408,None,89.9581517004408,None,89.9581517004408,None,89.9581517004408,None,None,None,92.84037540014833,None,,,,,,,140,f,1,2022_Dec_13_1437,RL,2021.2.3,60.22122865147148,
1,4,0,4,0,,,,,,,,,,,,,,,None,None,None,None,None,94.61930440040305,None,94.61930440040305,None,94.61930440040305,None,94.61930440040305,None,f,1.1727505000308156,94.61930440040305,None,94.61930440040305,None,95.83262390037999,None,95.83262390037999,None,95.83262390037999,None,95.83262390037999,None,95.83262390037999,None,95.83262390037999,None,96.11570330010727,97.39562200009823,96.11570330010727,97.39562200009823,97.4195052003488,None,97.4195052003488,None,97.4195052003488,None,97.4195052003488,None,97.4195052003488,None,97.4195052003488,None,97.4195052003488,None,97.4195052003488,None,97.4195052003488,None,57,40,33,36,40,39,99.92764370003715,None,4.0,2.7835093000903726,99.92764370003715,None,99.92764370003715,None,99.92764370003715,None,99.92764370003715,None,None,None,102.7301072999835,None,,,,,,,140,f,1,2022_Dec_13_1437,RL,2021.2.3,60.22122865147148,
1,5,0,5,0,,,,,,,,,,,,,,,None,None,None,None,None,104.40934740006924,None,104.40934740006924,None,104.40934740006924,None,104.40934740006924,None,r,0.4245536997914314,104.40934740006924,None,104.40934740006924,None,104.869517700281,None,104.869517700281,None,104.869517700281,None,104.869517700281,None,104.869517700281,None,104.869517700281,None,105.15766580030322,105.97200210019946,105.15766580030322,105.97200210019946,105.9936139001511,None,105.9936139001511,None,105.9936139001511,None,105.9936139001511,None,105.9936139001511,None,105.9936139001511,None,105.9936139001511,None,105.9936139001511,None,105.9936139001511,None,54,38,41,45,54,65,108.50293990038335,None,3.0,2.1203089002519846,108.50293990038335,None,108.50293990038335,None,108.50293990038335,None,108.50293990038335,None,None,None,110.64181530009955,None,,,,,,,140,f,1,2022_Dec_13_1437,RL,2021.2.3,60.22122865147148,
1,6,0,6,0,,,,,,,,,,,,,,,None,None,None,None,None,112.17159380018711,None,112.17159380018711,None,112.17159380018711,None,112.17159380018711,None,j,0.5765367997810245,112.17159380018711,None,112.17159380018711,None,112.7840635003522,None,112.7840635003522,None,112.7840635003522,None,112.7840635003522,None,112.7840635003522,None,112.7840635003522,None,113.06957460008562,114.36569610005245,113.06957460008562,114.36569610005245,114.385897600092,None,114.385897600092,None,114.385897600092,None,114.385897600092,None,114.385897600092,None,114.385897600092,None,114.385897600092,None,114.385897600092,None,114.385897600092,None,57,40,40,43,43,42,116.89633120037615,None,4.0,2.352700899820775,116.89633120037615,None,116.89633120037615,None,116.89633120037615,None,116.89633120037615,None,None,None,119.26799500035122,None,,,,,,,140,f,1,2022_Dec_13_1437,RL,2021.2.3,60.22122865147148,
1,7,0,7,0,,,,,,,,,,,,,,,None,None,None,None,None,120.96424230001867,None,120.96424230001867,None,120.96424230001867,None,120.96424230001867,None,r,0.4664973998442292,120.96424230001867,None,120.96424230001867,None,121.4575527003035,None,121.4575527003035,None,121.4575527003035,None,121.4575527003035,None,121.4575527003035,None,121.4575527003035,None,121.74584020022303,None,121.74584020022303,None,122.69710240000859,None,122.69710240000859,None,122.69710240000859,None,122.69710240000859,None,122.69710240000859,None,122.69710240000859,None,122.69710240000859,None,122.69710240000859,None,122.69710240000859,None,53,29,35,45,53,43,125.2055620001629,None,5.0,2.9846178996376693,125.2055620001629,None,125.2055620001629,None,125.2055620001629,None,125.2055620001629,None,None,None,128.21060540014878,None,,,,,,,140,f,1,2022_Dec_13_1437,RL,2021.2.3,60.22122865147148,
1,8,0,8,0,,,,,,,,,,,,,,,None,None,None,None,None,129.84029760025442,None,129.84029760025442,None,129.84029760025442,None,129.84029760025442,None,r,0.8622292000800371,129.84029760025442,None,129.84029760025442,None,130.73362080007792,None,130.73362080007792,None,130.73362080007792,None,130.73362080007792,None,130.73362080007792,None,130.73362080007792,None,131.02077830024064,132.03420800017193,131.02077830024064,132.03420800017193,132.05534990038723,None,132.05534990038723,None,132.05534990038723,None,132.05534990038723,None,132.05534990038723,None,132.05534990038723,None,132.05534990038723,None,132.05534990038723,None,132.05534990038723,None,40,40,39,47,40,46,134.56849910039455,None,4.0,1.304081799928099,134.56849910039455,None,134.56849910039455,None,134.56849910039455,None,134.56849910039455,None,None,None,135.8895654003136,None,,,,,,,140,f,1,2022_Dec_13_1437,RL,2021.2.3,60.22122865147148,
1,9,0,9,0,,,,,,,,,,,,,,,None,None,None,None,None,137.7686729002744,None,137.7686729002744,None,137.7686729002744,None,137.7686729002744,None,r,0.8973898999392986,137.7686729002744,None,137.7686729002744,None,138.69475980009884,None,138.69475980009884,None,138.69475980009884,None,138.69475980009884,None,138.69475980009884,None,138.69475980009884,None,138.98238599998876,140.045587700326,138.98238599998876,140.045587700326,140.06661440012977,None,140.06661440012977,None,140.06661440012977,None,140.06661440012977,None,140.06661440012977,None,140.06661440012977,None,140.06661440012977,None,140.06661440012977,None,140.06661440012977,None,46,32,37,44,46,50,142.57484710030258,None,3.0,1.4394517000764608,142.57484710030258,None,142.57484710030258,None,142.57484710030258,None,142.57484710030258,None,None,None,144.0337819000706,None,,,,,,,140,f,1,2022_Dec_13_1437,RL,2021.2.3,60.22122865147148,
1,10,0,10,0,,,,,,,,,,,,,,,None,None,None,None,None,145.9958309000358,None,145.9958309000358,None,145.9958309000358,None,145.9958309000358,None,j,0.3792251995764673,145.9958309000358,None,145.9958309000358,None,146.4057078002952,None,146.4057078002952,None,146.4057078002952,None,146.4057078002952,None,146.4057078002952,None,146.4057078002952,None,146.69460780033842,148.04055080004036,146.69460780033842,148.04055080004036,148.06359680043533,None,148.06359680043533,None,148.06359680043533,None,148.06359680043533,None,148.06359680043533,None,148.06359680043533,None,148.06359680043533,None,148.06359680043533,None,148.06359680043533,None,47,36,33,45,45,49,150.5713957999833,None,3.0,1.5376426996663213,150.5713957999833,None,150.5713957999833,None,150.5713957999833,None,150.5713957999833,None,None,None,152.12833570037037,None,,,,,,,140,f,1,2022_Dec_13_1437,RL,2021.2.3,60.22122865147148,
1,11,0,11,0,,,,,,,,,,,,,,,None,None,None,None,None,153.7417492000386,None,153.7417492000386,None,153.7417492000386,None,153.7417492000386,None,i,0.7661093003116548,153.7417492000386,None,153.7417492000386,None,154.5344922002405,None,154.5344922002405,None,154.5344922002405,None,154.5344922002405,None,154.5344922002405,None,154.5344922002405,None,154.8224624004215,155.63653250038624,154.8224624004215,155.63653250038624,155.65863420022652,None,155.65863420022652,None,155.65863420022652,None,155.65863420022652,None,155.65863420022652,None,155.65863420022652,None,155.65863420022652,None,155.65863420022652,None,155.65863420022652,None,50,48,40,38,40,68,158.17160070035607,None,2.0,1.351202900055796,158.17160070035607,None,158.17160070035607,None,158.17160070035607,None,158.17160070035607,None,None,None,159.5415070001036,None,,,,,,,140,f,1,2022_Dec_13_1437,RL,2021.2.3,60.22122865147148,
1,12,0,12,0,,,,,,,,,,,,,,,None,None,None,None,None,161.35419120034203,None,161.35419120034203,None,161.35419120034203,None,161.35419120034203,None,f,0.5429169000126421,161.35419120034203,None,161.35419120034203,None,161.92951899999753,None,161.92951899999753,None,161.92951899999753,None,161.92951899999753,None,161.92951899999753,None,161.92951899999753,None,162.21879920037463,163.46553630009294,162.21879920037463,163.46553630009294,163.4862093999982,None,163.4862093999982,None,163.4862093999982,None,163.4862093999982,None,163.4862093999982,None,163.4862093999982,None,163.4862093999982,None,163.4862093999982,None,163.4862093999982,None,40,37,42,40,37,70,165.9965751003474,None,1.0,1.4706800999119878,165.9965751003474,None,165.9965751003474,None,165.9965751003474,None,165.9965751003474,None,None,None,167.486562800128,None,,,,,,,140,f,1,2022_Dec_13_1437,RL,2021.2.3,60.22122865147148,
1,13,0,13,0,,,,,,,,,,,,,,,None,None,None,None,None,169.13292350014672,None,169.13292350014672,None,169.13292350014672,None,169.13292350014672,None,r,0.5034050000831485,169.13292350014672,None,169.13292350014672,None,169.67752790031955,None,169.67752790031955,None,169.67752790031955,None,169.67752790031955,None,169.67752790031955,None,169.67752790031955,None,169.9644956002012,None,169.9644956002012,None,170.90072040027007,None,170.90072040027007,None,170.90072040027007,None,170.90072040027007,None,170.90072040027007,None,170.90072040027007,None,170.90072040027007,None,170.90072040027007,None,170.90072040027007,None,46,34,45,49,46,70,173.41172380000353,None,1.0,2.366871999576688,173.41172380000353,None,173.41172380000353,None,173.41172380000353,None,173.41172380000353,None,None,None,175.7976326001808,None,,,,,,,140,f,1,2022_Dec_13_1437,RL,2021.2.3,60.22122865147148,
1,14,0,14,0,,,,,,,,,,,,,,,None,None,None,None,None,177.3438477003947,None,177.3438477003947,None,177.3438477003947,None,177.3438477003947,None,r,0.43089079996570945,177.3438477003947,None,177.3438477003947,None,177.80489570042118,None,177.80489570042118,None,177.80489570042118,None,177.80489570042118,None,177.80489570042118,None,177.80489570042118,None,178.09241190040484,179.43818560009822,178.09241190040484,179.43818560009822,179.46125140041113,None,179.46125140041113,None,179.46125140041113,None,179.46125140041113,None,179.46125140041113,None,179.46125140041113,None,179.46125140041113,None,179.46125140041113,None,179.46125140041113,None,46,37,42,36,46,67,181.97016210015863,None,1.0,1.904963199980557,181.97016210015863,None,181.97016210015863,None,181.97016210015863,None,181.97016210015863,None,None,None,183.8918088003993,None,,,,,,,140,f,1,2022_Dec_13_1437,RL,2021.2.3,60.22122865147148,
1,15,0,15,0,,,,,,,,,,,,,,,None,None,None,None,None,185.88706210022792,None,185.88706210022792,None,185.88706210022792,None,185.88706210022792,None,j,0.6893682000227273,185.88706210022792,None,185.88706210022792,None,186.6131145004183,None,186.6131145004183,None,186.6131145004183,None,186.6131145004183,None,186.6131145004183,None,186.6131145004183,None,186.9015847002156,None,186.9015847002156,None,187.856062900275,None,187.856062900275,None,187.856062900275,None,187.856062900275,None,187.856062900275,None,187.856062900275,None,187.856062900275,None,187.856062900275,None,187.856062900275,None,41,45,42,49,49,47,190.36445660004392,None,2.0,1.6869093999266624,190.36445660004392,None,190.36445660004392,None,190.36445660004392,None,190.36445660004392,None,None,None,192.0694842003286,None,,,,,,,140,f,1,2022_Dec_13_1437,RL,2021.2.3,60.22122865147148,
1,16,0,16,0,,,,,,,,,,,,,,,None,None,None,None,None,193.73277000011876,None,193.73277000011876,None,193.73277000011876,None,193.73277000011876,None,i,0.7375767999328673,193.73277000011876,None,193.73277000011876,None,194.50884040025994,None,194.50884040025994,None,194.50884040025994,None,194.50884040025994,None,194.50884040025994,None,194.50884040025994,None,194.79662250028923,195.67722380021587,194.79662250028923,195.67722380021587,195.69927500002086,None,195.69927500002086,None,195.69927500002086,None,195.69927500002086,None,195.69927500002086,None,195.69927500002086,None,195.69927500002086,None,195.69927500002086,None,195.69927500002086,None,42,40,47,48,47,67,198.20913220010698,None,2.0,1.1211828999221325,198.20913220010698,None,198.20913220010698,None,198.20913220010698,None,198.20913220010698,None,None,None,199.34998719999567,None,,,,,,,140,f,1,2022_Dec_13_1437,RL,2021.2.3,60.22122865147148,
1,17,0,17,0,,,,,,,,,,,,,,,None,None,None,None,None,201.26240940019488,None,201.26240940019488,None,201.26240940019488,None,201.26240940019488,None,f,0.39293590001761913,201.26240940019488,None,201.26240940019488,None,201.6894276002422,None,201.6894276002422,None,201.6894276002422,None,201.6894276002422,None,201.6894276002422,None,201.6894276002422,None,201.9768901001662,203.57255920022726,201.9768901001662,203.57255920022726,203.5932494001463,None,203.5932494001463,None,203.5932494001463,None,203.5932494001463,None,203.5932494001463,None,203.5932494001463,None,203.5932494001463,None,203.5932494001463,None,203.5932494001463,None,48,35,42,50,35,49,206.10580330016091,None,2.0,0.9376193000935018,206.10580330016091,None,206.10580330016091,None,206.10580330016091,None,206.10580330016091,None,None,None,207.06187150022015,None,,,,,,,140,f,1,2022_Dec_13_1437,RL,2021.2.3,60.22122865147148,
1,18,0,18,0,,,,,,,,,,,,,,,None,None,None,None,None,208.89104480016977,None,208.89104480016977,None,208.89104480016977,None,208.89104480016977,None,i,0.4674955001100898,208.89104480016977,None,208.89104480016977,None,209.40317020006478,None,209.40317020006478,None,209.40317020006478,None,209.40317020006478,None,209.40317020006478,None,209.40317020006478,None,209.68922040006146,211.3677633004263,209.68922040006146,211.3677633004263,211.3889729999937,None,211.3889729999937,None,211.3889729999937,None,211.3889729999937,None,211.3889729999937,None,211.3889729999937,None,211.3889729999937,None,211.3889729999937,None,211.3889729999937,None,48,36,41,49,41,77,213.89905580040067,None,2.0,1.0560635002329946,213.89905580040067,None,213.89905580040067,None,213.89905580040067,None,213.89905580040067,None,None,None,214.97397950012237,None,,,,,,,140,f,1,2022_Dec_13_1437,RL,2021.2.3,60.22122865147148,
1,19,0,19,0,,,,,,,,,,,,,,,None,None,None,None,None,216.6868466003798,None,216.6868466003798,None,216.6868466003798,None,216.6868466003798,None,j,0.7500328999012709,216.6868466003798,None,216.6868466003798,None,217.47763480013236,None,217.47763480013236,None,217.47763480013236,None,217.47763480013236,None,217.47763480013236,None,217.47763480013236,None,217.76691240025684,218.8142962004058,217.76691240025684,218.8142962004058,218.8345619002357,None,218.8345619002357,None,218.8345619002357,None,218.8345619002357,None,218.8345619002357,None,218.8345619002357,None,218.8345619002357,None,218.8345619002357,None,218.8345619002357,None,54,39,39,43,43,34,221.34553340030834,None,3.0,1.3404113999567926,221.34553340030834,None,221.34553340030834,None,221.34553340030834,None,221.34553340030834,None,None,None,222.70321639999747,None,,,,,,,140,f,1,2022_Dec_13_1437,RL,2021.2.3,60.22122865147148,
1,20,0,20,0,,,,,,,,,,,,,,,None,None,None,None,None,224.61483640037477,None,224.61483640037477,None,224.61483640037477,None,224.61483640037477,None,i,0.5308635998517275,224.61483640037477,None,224.61483640037477,None,225.17551260022447,None,225.17551260022447,None,225.17551260022447,None,225.17551260022447,None,225.17551260022447,None,225.17551260022447,None,225.46319220028818,None,225.46319220028818,None,227.19827420031652,None,227.19827420031652,None,227.19827420031652,None,227.19827420031652,None,227.19827420031652,None,227.19827420031652,None,227.19827420031652,None,227.19827420031652,None,227.19827420031652,None,45,37,41,48,41,48,229.70735580008477,None,2.0,2.6507343999110162,229.70735580008477,None,229.70735580008477,None,229.70735580008477,None,229.70735580008477,None,None,None,232.3762225001119,None,,,,,,,140,f,1,2022_Dec_13_1437,RL,2021.2.3,60.22122865147148,
1,21,0,21,0,,,,,,,,,,,,,,,None,None,None,None,None,234.1387349003926,None,234.1387349003926,None,234.1387349003926,None,234.1387349003926,None,j,0.5287624998018146,234.1387349003926,None,234.1387349003926,None,234.69931280007586,None,234.69931280007586,None,234.69931280007586,None,234.69931280007586,None,234.69931280007586,None,234.69931280007586,None,234.98703570012003,None,234.98703570012003,None,236.43888360029086,None,236.43888360029086,None,236.43888360029086,None,236.43888360029086,None,236.43888360029086,None,236.43888360029086,None,236.43888360029086,None,236.43888360029086,None,236.43888360029086,None,51,35,48,56,56,81,238.9488069000654,None,1.0,1.8684379998594522,238.9488069000654,None,238.9488069000654,None,238.9488069000654,None,238.9488069000654,None,None,None,240.8364097001031,None,,,,,,,140,f,1,2022_Dec_13_1437,RL,2021.2.3,60.22122865147148,
1,22,0,22,0,,,,,,,,,,,,,,,None,None,None,None,None,242.83168120030314,None,242.83168120030314,None,242.83168120030314,None,242.83168120030314,None,f,0.7072819001041353,242.83168120030314,None,242.83168120030314,None,243.5753326001577,None,243.5753326001577,None,243.5753326001577,None,243.5753326001577,None,243.5753326001577,None,243.5753326001577,None,243.8630228000693,245.4747805004008,243.8630228000693,245.4747805004008,245.49538390012458,None,245.49538390012458,None,245.49538390012458,None,245.49538390012458,None,245.49538390012458,None,245.49538390012458,None,245.49538390012458,None,245.49538390012458,None,245.49538390012458,None,53,25,51,50,25,84,248.00614370033145,None,1.0,2.5350815998390317,248.00614370033145,None,248.00614370033145,None,248.00614370033145,None,248.00614370033145,None,None,None,250.5600279001519,None,,,,,,,140,f,1,2022_Dec_13_1437,RL,2021.2.3,60.22122865147148,
1,23,0,23,0,,,,,,,,,,,,,,,None,None,None,None,None,252.53847570018843,None,252.53847570018843,None,252.53847570018843,None,252.53847570018843,None,r,0.47813039971515536,252.53847570018843,None,252.53847570018843,None,253.05134990019724,None,253.05134990019724,None,253.05134990019724,None,253.05134990019724,None,253.05134990019724,None,253.05134990019724,None,253.33672170015052,254.78285550000146,253.33672170015052,254.78285550000146,254.8047401001677,None,254.8047401001677,None,254.8047401001677,None,254.8047401001677,None,254.8047401001677,None,254.8047401001677,None,254.8047401001677,None,254.8047401001677,None,254.8047401001677,None,53,33,46,43,53,52,257.31284969998524,None,4.0,2.1199710997752845,257.31284969998524,None,257.31284969998524,None,257.31284969998524,None,257.31284969998524,None,None,None,259.4522538003512,None,,,,,,,140,f,1,2022_Dec_13_1437,RL,2021.2.3,60.22122865147148,
1,24,0,24,0,,,,,,,,,,,,,,,None,None,None,None,None,261.2483339002356,None,261.2483339002356,None,261.2483339002356,None,261.2483339002356,None,r,0.3741673999466002,261.2483339002356,None,261.2483339002356,None,261.6577988001518,None,261.6577988001518,None,261.6577988001518,None,261.6577988001518,None,261.6577988001518,None,261.6577988001518,None,261.94657390005887,None,261.94657390005887,None,263.3969360999763,None,263.3969360999763,None,263.3969360999763,None,263.3969360999763,None,263.3969360999763,None,263.3969360999763,None,263.3969360999763,None,263.3969360999763,None,263.3969360999763,None,50,30,47,55,50,78,265.90762610035017,None,4.0,1.4394477000460029,265.90762610035017,None,265.90762610035017,None,265.90762610035017,None,265.90762610035017,None,None,None,267.3642749004066,None,,,,,,,140,f,1,2022_Dec_13_1437,RL,2021.2.3,60.22122865147148,
1,25,0,25,0,,,,,,,,,,,,,,,None,None,None,None,None,269.07669360004365,None,269.07669360004365,None,269.07669360004365,None,269.07669360004365,None,j,0.5743958000093699,269.07669360004365,None,269.07669360004365,None,269.6889622001909,None,269.6889622001909,None,269.6889622001909,None,269.6889622001909,None,269.6889622001909,None,269.6889622001909,None,269.9749831003137,271.470696200151,269.9749831003137,271.470696200151,271.4935997002758,None,271.4935997002758,None,271.4935997002758,None,271.4935997002758,None,271.4935997002758,None,271.4935997002758,None,271.4935997002758,None,271.4935997002758,None,271.4935997002758,None,50,29,55,61,61,87,274.0038821999915,None,4.0,0.8543475000187755,274.0038821999915,None,274.0038821999915,None,274.0038821999915,None,274.0038821999915,None,None,None,274.87679370027035,None,,,,,,,140,f,1,2022_Dec_13_1437,RL,2021.2.3,60.22122865147148,
1,26,0,26,0,,,,,,,,,,,,,,,None,None,None,None,None,276.48987310007215,None,276.48987310007215,None,276.48987310007215,None,276.48987310007215,None,r,0.38120789965614676,276.48987310007215,None,276.48987310007215,None,276.899582200218,None,276.899582200218,None,276.899582200218,None,276.899582200218,None,276.899582200218,None,276.899582200218,None,277.18855600012466,None,277.18855600012466,None,278.1252926001325,None,278.1252926001325,None,278.1252926001325,None,278.1252926001325,None,278.1252926001325,None,278.1252926001325,None,278.1252926001325,None,278.1252926001325,None,278.1252926001325,None,43,33,45,57,43,81,280.6346089001745,None,4.0,1.3208604999817908,280.6346089001745,None,280.6346089001745,None,280.6346089001745,None,280.6346089001745,None,None,None,281.97437080042437,None,,,,,,,140,f,1,2022_Dec_13_1437,RL,2021.2.3,60.22122865147148,
1,27,0,27,0,,,,,,,,,,,,,,,None,None,None,None,None,283.7368428003974,None,283.7368428003974,None,283.7368428003974,None,283.7368428003974,None,f,0.4332352001219988,283.7368428003974,None,283.7368428003974,None,284.1977191003971,None,284.1977191003971,None,284.1977191003971,None,284.1977191003971,None,284.1977191003971,None,284.1977191003971,None,284.4853254002519,285.79824690008536,284.4853254002519,285.79824690008536,285.81897450005636,None,285.81897450005636,None,285.81897450005636,None,285.81897450005636,None,285.81897450005636,None,285.81897450005636,None,285.81897450005636,None,285.81897450005636,None,285.81897450005636,None,48,28,46,56,28,78,288.3307307003997,None,4.0,1.1713463002815843,288.3307307003997,None,288.3307307003997,None,288.3307307003997,None,288.3307307003997,None,None,None,289.5202835001983,None,,,,,,,140,f,1,2022_Dec_13_1437,RL,2021.2.3,60.22122865147148,
1,28,0,28,0,,,,,,,,,,,,,,,None,None,None,None,None,291.3329398003407,None,291.3329398003407,None,291.3329398003407,None,291.3329398003407,None,f,0.3760198997333646,291.3329398003407,None,291.3329398003407,None,291.74367820005864,None,291.74367820005864,None,291.74367820005864,None,291.74367820005864,None,291.74367820005864,None,291.74367820005864,None,292.0314847002737,293.8594023003243,292.0314847002737,293.8594023003243,293.8803833001293,None,293.8803833001293,None,293.8803833001293,None,293.8803833001293,None,293.8803833001293,None,293.8803833001293,None,293.8803833001293,None,293.8803833001293,None,293.8803833001293,None,49,32,45,57,32,76,296.3906916002743,None,3.0,1.7028962997719646,296.3906916002743,None,296.3906916002743,None,296.3906916002743,None,296.3906916002743,None,None,None,298.1134089003317,None,,,,,,,140,f,1,2022_Dec_13_1437,RL,2021.2.3,60.22122865147148,
1,29,0,29,0,,,,,,,,,,,,,,,None,None,None,None,None,300.1086312001571,None,300.1086312001571,None,300.1086312001571,None,300.1086312001571,None,r,0.6629506000317633,300.1086312001571,None,300.1086312001571,None,300.7985876002349,None,300.7985876002349,None,300.7985876002349,None,300.7985876002349,None,300.7985876002349,None,300.7985876002349,None,301.0897699003108,302.33630460035056,301.0897699003108,302.33630460035056,302.3580838004127,None,302.3580838004127,None,302.3580838004127,None,302.3580838004127,None,302.3580838004127,None,302.3580838004127,None,302.3580838004127,None,302.3580838004127,None,302.3580838004127,None,43,32,41,53,43,45,304.8682170002721,None,5.0,1.9195751999504864,304.8682170002721,None,304.8682170002721,None,304.8682170002721,None,304.8682170002721,None,None,None,306.80669690016657,None,,,,,,,140,f,1,2022_Dec_13_1437,RL,2021.2.3,60.22122865147148,
1,30,0,30,0,,,,,,,,,,,,,,,None,None,None,None,None,308.51942720031366,None,308.51942720031366,None,308.51942720031366,None,308.51942720031366,None,r,0.9650120995938778,308.51942720031366,None,308.51942720031366,None,309.5125546003692,None,309.5125546003692,None,309.5125546003692,None,309.5125546003692,None,309.5125546003692,None,309.5125546003692,None,309.7996543003246,None,309.7996543003246,None,311.1327306004241,None,311.1327306004241,None,311.1327306004241,None,311.1327306004241,None,311.1327306004241,None,311.1327306004241,None,311.1327306004241,None,311.1327306004241,None,311.1327306004241,None,42,32,37,65,42,79,313.64328340021893,None,5.0,1.390788999851793,313.64328340021893,None,313.64328340021893,None,313.64328340021893,None,313.64328340021893,None,None,None,315.05062049999833,None,,,,,,,140,f,1,2022_Dec_13_1437,RL,2021.2.3,60.22122865147148,
1,31,0,31,0,,,,,,,,,,,,,,,None,None,None,None,None,316.8302062000148,None,316.8302062000148,None,316.8302062000148,None,316.8302062000148,None,j,1.0022485996596515,316.8302062000148,None,316.8302062000148,None,317.87209960026667,None,317.87209960026667,None,317.87209960026667,None,317.87209960026667,None,317.87209960026667,None,317.87209960026667,None,318.1601089001633,319.7386567001231,318.1601089001633,319.7386567001231,319.76179710030556,None,319.76179710030556,None,319.76179710030556,None,319.76179710030556,None,319.76179710030556,None,319.76179710030556,None,319.76179710030556,None,319.76179710030556,None,319.76179710030556,None,30,28,44,63,63,44,322.2708229003474,None,5.0,1.1377991000190377,322.2708229003474,None,322.2708229003474,None,322.2708229003474,None,322.2708229003474,None,None,None,323.4277159003541,None,,,,,,,140,f,1,2022_Dec_13_1437,RL,2021.2.3,60.22122865147148,
1,32,0,32,0,,,,,,,,,,,,,,,None,None,None,None,None,325.190188200213,None,325.190188200213,None,325.190188200213,None,325.190188200213,None,j,0.9099893001839519,325.190188200213,None,325.190188200213,None,326.1359610003419,None,326.1359610003419,None,326.1359610003419,None,326.1359610003419,None,326.1359610003419,None,326.1359610003419,None,326.42058160016313,328.1827419004403,326.42058160016313,328.1827419004403,328.20339120039716,None,328.20339120039716,None,328.20339120039716,None,328.20339120039716,None,328.20339120039716,None,328.20339120039716,None,328.20339120039716,None,328.20339120039716,None,328.20339120039716,None,29,30,47,60,60,80,330.7141439002007,None,5.0,0.8390403003431857,330.7141439002007,None,330.7141439002007,None,330.7141439002007,None,330.7141439002007,None,None,None,331.5718278000131,None,,,,,,,140,f,1,2022_Dec_13_1437,RL,2021.2.3,60.22122865147148,
1,33,0,33,0,,,,,,,,,,,,,,,None,None,None,None,None,333.3027811003849,None,333.3027811003849,None,333.3027811003849,None,333.3027811003849,None,j,0.7571531999856234,333.3027811003849,None,333.3027811003849,None,334.0976507002488,None,334.0976507002488,None,334.0976507002488,None,334.0976507002488,None,334.0976507002488,None,334.0976507002488,None,334.382828600239,336.27702879998833,334.382828600239,336.27702879998833,336.3001141003333,None,336.3001141003333,None,336.3001141003333,None,336.3001141003333,None,336.3001141003333,None,336.3001141003333,None,336.3001141003333,None,336.3001141003333,None,336.3001141003333,None,36,45,43,63,63,85,338.8090959000401,None,4.0,2.302331500221044,338.8090959000401,None,338.8090959000401,None,338.8090959000401,None,338.8090959000401,None,None,None,341.1295640002936,None,,,,,,,140,f,1,2022_Dec_13_1437,RL,2021.2.3,60.22122865147148,
1,34,0,34,0,,,,,,,,,,,,,,,None,None,None,None,None,342.80906670028344,None,342.80906670028344,None,342.80906670028344,None,342.80906670028344,None,i,0.503122600261122,342.80906670028344,None,342.80906670028344,None,343.35328200040385,None,343.35328200040385,None,343.35328200040385,None,343.35328200040385,None,343.35328200040385,None,343.35328200040385,None,343.64074970036745,345.11946940002963,343.64074970036745,345.11946940002963,345.1400094004348,None,345.1400094004348,None,345.1400094004348,None,345.1400094004348,None,345.1400094004348,None,345.1400094004348,None,345.1400094004348,None,345.1400094004348,None,345.1400094004348,None,39,34,38,62,38,79,347.6522445003502,None,5.0,1.7209443002939224,347.6522445003502,None,347.6522445003502,None,347.6522445003502,None,347.6522445003502,None,None,None,349.39037390006706,None,,,,,,,140,f,1,2022_Dec_13_1437,RL,2021.2.3,60.22122865147148,
1,35,0,35,0,,,,,,,,,,,,,,,None,None,None,None,None,350.970461900346,None,350.970461900346,None,350.970461900346,None,350.970461900346,None,j,0.9260780001059175,350.970461900346,None,350.970461900346,None,351.9289266001433,None,351.9289266001433,None,351.9289266001433,None,351.9289266001433,None,351.9289266001433,None,351.9289266001433,None,352.2168875001371,353.3141116001643,352.2168875001371,353.3141116001643,353.3348008003086,None,353.3348008003086,None,353.3348008003086,None,353.3348008003086,None,353.3348008003086,None,353.3348008003086,None,353.3348008003086,None,353.3348008003086,None,353.3348008003086,None,30,35,49,71,71,85,355.84693470038474,None,4.0,1.6018503000959754,355.84693470038474,None,355.84693470038474,None,355.84693470038474,None,355.84693470038474,None,None,None,357.46812020009384,None,,,,,,,140,f,1,2022_Dec_13_1437,RL,2021.2.3,60.22122865147148,
1,36,0,36,0,,,,,,,,,,,,,,,None,None,None,None,None,359.36419320013374,None,359.36419320013374,None,359.36419320013374,None,359.36419320013374,None,j,1.179010699968785,359.36419320013374,None,359.36419320013374,None,360.5711672003381,None,360.5711672003381,None,360.5711672003381,None,360.5711672003381,None,360.5711672003381,None,360.5711672003381,None,360.8603099002503,362.5054880003445,360.8603099002503,362.5054880003445,362.5267470004037,None,362.5267470004037,None,362.5267470004037,None,362.5267470004037,None,362.5267470004037,None,362.5267470004037,None,362.5267470004037,None,362.5267470004037,None,362.5267470004037,None,40,38,45,63,63,84,365.0370188001543,None,5.0,1.5540767000056803,365.0370188001543,None,365.0370188001543,None,365.0370188001543,None,365.0370188001543,None,None,None,366.61034290026873,None,,,,,,,140,f,1,2022_Dec_13_1437,RL,2021.2.3,60.22122865147148,
1,37,0,37,0,,,,,,,,,,,,,,,None,None,None,None,None,368.422820399981,None,368.422820399981,None,368.422820399981,None,368.422820399981,None,j,0.2890395997092128,368.422820399981,None,368.422820399981,None,368.7511409004219,None,368.7511409004219,None,368.7511409004219,None,368.7511409004219,None,368.7511409004219,None,368.7511409004219,None,369.0379012003541,370.6503007002175,369.0379012003541,370.6503007002175,370.671200199984,None,370.671200199984,None,370.671200199984,None,370.671200199984,None,370.671200199984,None,370.671200199984,None,370.671200199984,None,370.671200199984,None,370.671200199984,None,31,50,41,70,70,83,373.18140720017254,None,6.0,1.4716770998202264,373.18140720017254,None,373.18140720017254,None,373.18140720017254,None,373.18140720017254,None,None,None,374.6717509003356,None,,,,,,,140,f,1,2022_Dec_13_1437,RL,2021.2.3,60.22122865147148,
1,38,0,38,0,,,,,,,,,,,,,,,None,None,None,None,None,376.65024460013956,None,376.65024460013956,None,376.65024460013956,None,376.65024460013956,None,j,0.4744824003428221,376.65024460013956,None,376.65024460013956,None,377.15919760009274,None,377.15919760009274,None,377.15919760009274,None,377.15919760009274,None,377.15919760009274,None,377.15919760009274,None,377.4484296999872,378.32886890042573,377.4484296999872,378.32886890042573,378.3499502004124,None,378.3499502004124,None,378.3499502004124,None,378.3499502004124,None,378.3499502004124,None,378.3499502004124,None,378.3499502004124,None,378.3499502004124,None,378.3499502004124,None,28,50,36,69,69,82,380.86120580043644,None,6.0,0.9394890000112355,380.86120580043644,None,380.86120580043644,None,380.86120580043644,None,380.86120580043644,None,None,None,381.8188295001164,None,,,,,,,140,f,1,2022_Dec_13_1437,RL,2021.2.3,60.22122865147148,
1,39,0,39,0,,,,,,,,,,,,,,,None,None,None,None,None,383.6810492002405,None,383.6810492002405,None,383.6810492002405,None,383.6810492002405,None,i,0.3987803999334574,383.6810492002405,None,383.6810492002405,None,384.1081658001058,None,384.1081658001058,None,384.1081658001058,None,384.1081658001058,None,384.1081658001058,None,384.1081658001058,None,384.3957977001555,385.6256952001713,384.3957977001555,385.6256952001713,385.64613110013306,None,385.64613110013306,None,385.64613110013306,None,385.64613110013306,None,385.64613110013306,None,385.64613110013306,None,385.64613110013306,None,385.64613110013306,None,385.64613110013306,None,30,48,42,67,42,81,388.1558389002457,None,6.0,1.0744720003567636,388.1558389002457,None,388.1558389002457,None,388.1558389002457,None,388.1558389002457,None,None,None,389.2485298002139,None,,,,,,,140,f,1,2022_Dec_13_1437,RL,2021.2.3,60.22122865147148,
1,40,0,40,0,,,,,,,,,,,,,,,None,None,None,None,None,391.0607530004345,None,391.0607530004345,None,391.0607530004345,None,391.0607530004345,None,j,0.5977223999798298,391.0607530004345,None,391.0607530004345,None,391.68979850038886,None,391.68979850038886,None,391.68979850038886,None,391.68979850038886,None,391.68979850038886,None,391.68979850038886,None,391.9756742003374,393.6706595001742,391.9756742003374,393.6706595001742,393.69000310031697,None,393.69000310031697,None,393.69000310031697,None,393.69000310031697,None,393.69000310031697,None,393.69000310031697,None,393.69000310031697,None,393.69000310031697,None,393.69000310031697,None,31,43,43,68,68,63,396.1996512003243,None,5.0,1.9214393002912402,396.1996512003243,None,396.1996512003243,None,396.1996512003243,None,396.1996512003243,None,None,None,398.1406967001967,None,,,,,,,140,f,1,2022_Dec_13_1437,RL,2021.2.3,60.22122865147148,
1,41,0,41,0,,,,,,,,,,,,,,,None,None,None,None,None,399.6870812000707,None,399.6870812000707,None,399.6870812000707,None,399.6870812000707,None,j,0.3948754998855293,399.6870812000707,None,399.6870812000707,None,400.11455110041425,None,400.11455110041425,None,400.11455110041425,None,400.11455110041425,None,400.11455110041425,None,400.11455110041425,None,400.4022492002696,None,400.4022492002696,None,401.9687144001946,None,401.9687144001946,None,401.9687144001946,None,401.9687144001946,None,401.9687144001946,None,401.9687144001946,None,401.9687144001946,None,401.9687144001946,None,401.9687144001946,None,34,36,47,67,67,87,404.47808220004663,None,5.0,1.672078900039196,404.47808220004663,None,404.47808220004663,None,404.47808220004663,None,404.47808220004663,None,None,None,406.1697027999908,None,,,,,,,140,f,1,2022_Dec_13_1437,RL,2021.2.3,60.22122865147148,
1,42,0,42,0,,,,,,,,,,,,,,,None,None,None,None,None,407.7319505000487,None,407.7319505000487,None,407.7319505000487,None,407.7319505000487,None,j,0.5833593001589179,407.7319505000487,None,407.7319505000487,None,408.342609600164,None,408.342609600164,None,408.342609600164,None,408.342609600164,None,408.342609600164,None,408.342609600164,None,408.6300846002996,409.77641240041703,408.6300846002996,409.77641240041703,409.7980290004052,None,409.7980290004052,None,409.7980290004052,None,409.7980290004052,None,409.7980290004052,None,409.7980290004052,None,409.7980290004052,None,409.7980290004052,None,409.7980290004052,None,34,45,45,68,68,44,412.3063222002238,None,4.0,1.3896813997998834,412.3063222002238,None,412.3063222002238,None,412.3063222002238,None,412.3063222002238,None,None,None,413.71480150008574,None,,,,,,,140,f,1,2022_Dec_13_1437,RL,2021.2.3,60.22122865147148,
1,43,0,43,0,,,,,,,,,,,,,,,None,None,None,None,None,415.5937037002295,None,415.5937037002295,None,415.5937037002295,None,415.5937037002295,None,j,0.48567579966038465,415.5937037002295,None,415.5937037002295,None,416.1214574002661,None,416.1214574002661,None,416.1214574002661,None,416.1214574002661,None,416.1214574002661,None,416.1214574002661,None,416.4087887001224,None,416.4087887001224,None,418.3391602002084,None,418.3391602002084,None,418.3391602002084,None,418.3391602002084,None,418.3391602002084,None,418.3391602002084,None,418.3391602002084,None,418.3391602002084,None,418.3391602002084,None,33,50,36,70,70,82,420.85139740025625,None,6.0,2.6865348001010716,420.85139740025625,None,420.85139740025625,None,420.85139740025625,None,420.85139740025625,None,None,None,423.5554712000303,None,,,,,,,140,f,1,2022_Dec_13_1437,RL,2021.2.3,60.22122865147148,
1,44,0,44,0,,,,,,,,,,,,,,,None,None,None,None,None,425.3839636002667,None,425.3839636002667,None,425.3839636002667,None,425.3839636002667,None,j,0.4863030002452433,425.3839636002667,None,425.3839636002667,None,425.91190980002284,None,425.91190980002284,None,425.91190980002284,None,425.91190980002284,None,425.91190980002284,None,425.91190980002284,None,426.19860920030624,427.7112033003941,426.19860920030624,427.7112033003941,427.7363028000109,None,427.7363028000109,None,427.7363028000109,None,427.7363028000109,None,427.7363028000109,None,427.7363028000109,None,427.7363028000109,None,427.7363028000109,None,427.7363028000109,None,35,44,40,70,70,68,430.2439203001559,None,6.0,1.0534370001405478,430.2439203001559,None,430.2439203001559,None,430.2439203001559,None,430.2439203001559,None,None,None,431.31684140022844,None,,,,,,,140,f,1,2022_Dec_13_1437,RL,2021.2.3,60.22122865147148,
1,45,0,45,0,,,,,,,,,,,,,,,None,None,None,None,None,432.8804303002544,None,432.8804303002544,None,432.8804303002544,None,432.8804303002544,None,j,0.45931420009583235,432.8804303002544,None,432.8804303002544,None,433.3735150001012,None,433.3735150001012,None,433.3735150001012,None,433.3735150001012,None,433.3735150001012,None,433.3735150001012,None,433.6618909002282,435.29005310032517,433.6618909002282,435.29005310032517,435.3140124999918,None,435.3140124999918,None,435.3140124999918,None,435.3140124999918,None,435.3140124999918,None,435.3140124999918,None,435.3140124999918,None,435.3140124999918,None,435.3140124999918,None,43,37,33,74,74,58,437.82309150043875,None,6.0,2.2334192004054785,437.82309150043875,None,437.82309150043875,None,437.82309150043875,None,437.82309150043875,None,None,None,440.07624150021,None,,,,,,,140,f,1,2022_Dec_13_1437,RL,2021.2.3,60.22122865147148,
1,46,0,46,0,,,,,,,,,,,,,,,None,None,None,None,None,442.0720261000097,None,442.0720261000097,None,442.0720261000097,None,442.0720261000097,None,j,0.3743755999021232,442.0720261000097,None,442.0720261000097,None,442.48230670019984,None,442.48230670019984,None,442.48230670019984,None,442.48230670019984,None,442.48230670019984,None,442.48230670019984,None,442.77011380018666,None,442.77011380018666,None,444.2369660004042,None,444.2369660004042,None,444.2369660004042,None,444.2369660004042,None,444.2369660004042,None,444.2369660004042,None,444.2369660004042,None,444.2369660004042,None,444.2369660004042,None,41,46,50,73,73,60,446.74829910043627,None,6.0,0.9057370997034013,446.74829910043627,None,446.74829910043627,None,446.74829910043627,None,446.74829910043627,None,None,None,447.67223280016333,None,,,,,,,140,f,1,2022_Dec_13_1437,RL,2021.2.3,60.22122865147148,
1,47,0,47,0,,,,,,,,,,,,,,,None,None,None,None,None,449.5178691004403,None,449.5178691004403,None,449.5178691004403,None,449.5178691004403,None,j,0.5219525001011789,449.5178691004403,None,449.5178691004403,None,450.07831440027803,None,450.07831440027803,None,450.07831440027803,None,450.07831440027803,None,450.07831440027803,None,450.07831440027803,None,450.3658321001567,None,450.3658321001567,None,451.54794519999996,None,451.54794519999996,None,451.54794519999996,None,451.54794519999996,None,451.54794519999996,None,451.54794519999996,None,451.54794519999996,None,451.54794519999996,None,451.54794519999996,None,41,47,41,76,76,77,454.063007700257,None,7.0,1.436135500203818,454.063007700257,None,454.063007700257,None,454.063007700257,None,454.063007700257,None,None,None,455.51734180003405,None,,,,,,,140,f,1,2022_Dec_13_1437,RL,2021.2.3,60.22122865147148,
1,48,0,48,0,,,,,,,,,,,,,,,None,None,None,None,None,457.3464302001521,None,457.3464302001521,None,457.3464302001521,None,457.3464302001521,None,j,0.492293500341475,457.3464302001521,None,457.3464302001521,None,457.87370130000636,None,457.87370130000636,None,457.87370130000636,None,457.87370130000636,None,457.87370130000636,None,457.87370130000636,None,458.1615283000283,None,458.1615283000283,None,459.0449062003754,None,459.0449062003754,None,459.0449062003754,None,459.0449062003754,None,459.0449062003754,None,459.0449062003754,None,459.0449062003754,None,459.0449062003754,None,459.0449062003754,None,51,39,43,63,63,67,461.5546956001781,None,7.0,0.7421408002264798,461.5546956001781,None,461.5546956001781,None,461.5546956001781,None,461.5546956001781,None,None,None,462.3156007002108,None,,,,,,,140,f,1,2022_Dec_13_1437,RL,2021.2.3,60.22122865147148,
1,49,0,49,0,,,,,,,,,,,,,,,None,None,None,None,None,464.0946880001575,None,464.0946880001575,None,464.0946880001575,None,464.0946880001575,None,j,0.4592165998183191,464.0946880001575,None,464.0946880001575,None,464.5890635000542,None,464.5890635000542,None,464.5890635000542,None,464.5890635000542,None,464.5890635000542,None,464.5890635000542,None,464.87682130001485,None,464.87682130001485,None,466.40880160033703,None,466.40880160033703,None,466.40880160033703,None,466.40880160033703,None,466.40880160033703,None,466.40880160033703,None,466.40880160033703,None,466.40880160033703,None,466.40880160033703,None,51,37,44,81,81,70,468.92260460043326,None,7.0,0.786605800036341,468.92260460043326,None,468.92260460043326,None,468.92260460043326,None,468.92260460043326,None,None,None,469.72876730002463,None,,,,,,,140,f,1,2022_Dec_13_1437,RL,2021.2.3,60.22122865147148,
1,50,0,50,0,,,,,,,,,,,,,,,None,None,None,None,None,471.32514980016276,None,471.32514980016276,None,471.32514980016276,None,471.32514980016276,None,j,0.29865200025960803,471.32514980016276,None,471.32514980016276,None,471.6539752003737,None,471.6539752003737,None,471.6539752003737,None,471.6539752003737,None,471.6539752003737,None,471.6539752003737,None,471.94056160002947,473.336563100107,471.94056160002947,473.336563100107,473.3576279003173,None,473.3576279003173,None,473.3576279003173,None,473.3576279003173,None,473.3576279003173,None,473.3576279003173,None,473.3576279003173,None,473.3576279003173,None,473.3576279003173,None,47,48,33,72,72,54,475.86685630027205,None,5.0,1.3393594999797642,475.86685630027205,None,475.86685630027205,None,475.86685630027205,None,475.86685630027205,None,None,None,477.2248511002399,None,,,,,,,140,f,1,2022_Dec_13_1437,RL,2021.2.3,60.22122865147148,
1,51,0,51,0,,,,,,,,,,,,,,,None,None,None,None,None,478.87138810008764,None,478.87138810008764,None,478.87138810008764,None,478.87138810008764,None,j,0.46627500001341105,478.87138810008764,None,478.87138810008764,None,479.3646949999966,None,479.3646949999966,None,479.3646949999966,None,479.3646949999966,None,479.3646949999966,None,479.3646949999966,None,479.65316740004346,480.982662900351,479.65316740004346,480.982662900351,481.0044899000786,None,481.0044899000786,None,481.0044899000786,None,481.0044899000786,None,481.0044899000786,None,481.0044899000786,None,481.0044899000786,None,481.0044899000786,None,481.0044899000786,None,53,47,44,70,70,54,483.5131210000254,None,5.0,0.9392037000507116,483.5131210000254,None,483.5131210000254,None,483.5131210000254,None,483.5131210000254,None,None,None,484.4717681002803,None,,,,,,,140,f,1,2022_Dec_13_1437,RL,2021.2.3,60.22122865147148,
1,52,0,52,0,,,,,,,,,,,,,,,None,None,None,None,None,486.31791070010513,None,486.31791070010513,None,486.31791070010513,None,486.31791070010513,None,j,0.5189702999778092,486.31791070010513,None,486.31791070010513,None,486.8782317000441,None,486.8782317000441,None,486.8782317000441,None,486.8782317000441,None,486.8782317000441,None,486.8782317000441,None,487.16566290007904,488.02980160014704,487.16566290007904,488.02980160014704,488.04993520025164,None,488.04993520025164,None,488.04993520025164,None,488.04993520025164,None,488.04993520025164,None,488.04993520025164,None,488.04993520025164,None,488.04993520025164,None,488.04993520025164,None,49,45,46,75,75,56,490.5602347003296,None,5.0,2.9531214996241033,490.5602347003296,None,490.5602347003296,None,490.5602347003296,None,490.5602347003296,None,None,None,493.5303638000041,None,,,,,,,140,f,1,2022_Dec_13_1437,RL,2021.2.3,60.22122865147148,
1,53,0,53,0,,,,,,,,,,,,,,,None,None,None,None,None,495.1268238001503,None,495.1268238001503,None,495.1268238001503,None,495.1268238001503,None,j,0.6823456999845803,495.1268238001503,None,495.1268238001503,None,495.8367109000683,None,495.8367109000683,None,495.8367109000683,None,495.8367109000683,None,495.8367109000683,None,495.8367109000683,None,496.12464680010453,497.12173720030114,496.12464680010453,497.12173720030114,497.1430387003347,None,497.1430387003347,None,497.1430387003347,None,497.1430387003347,None,497.1430387003347,None,497.1430387003347,None,497.1430387003347,None,497.1430387003347,None,497.1430387003347,None,41,40,43,72,72,63,499.6508693001233,None,5.0,1.772288199979812,499.6508693001233,None,499.6508693001233,None,499.6508693001233,None,499.6508693001233,None,None,None,501.44227600004524,None,,,,,,,140,f,1,2022_Dec_13_1437,RL,2021.2.3,60.22122865147148,
1,54,0,54,0,,,,,,,,,,,,,,,None,None,None,None,None,503.3712054002099,None,503.3712054002099,None,503.3712054002099,None,503.3712054002099,None,j,0.3766577001661062,503.3712054002099,None,503.3712054002099,None,503.7820190000348,None,503.7820190000348,None,503.7820190000348,None,503.7820190000348,None,503.7820190000348,None,503.7820190000348,None,504.0695435004309,None,504.0695435004309,None,506.084962700028,None,506.084962700028,None,506.084962700028,None,506.084962700028,None,506.084962700028,None,506.084962700028,None,506.084962700028,None,506.084962700028,None,506.084962700028,None,44,44,43,74,74,62,508.59529320010915,None,5.0,1.0211149998940527,508.59529320010915,None,508.59529320010915,None,508.59529320010915,None,508.59529320010915,None,None,None,509.63656140025705,None,,,,,,,140,f,1,2022_Dec_13_1437,RL,2021.2.3,60.22122865147148,
1,55,0,55,0,,,,,,,,,,,,,,,None,None,None,None,None,511.3326295004226,None,511.3326295004226,None,511.3326295004226,None,511.3326295004226,None,j,0.658221899997443,511.3326295004226,None,511.3326295004226,None,512.0243044001982,None,512.0243044001982,None,512.0243044001982,None,512.0243044001982,None,512.0243044001982,None,512.0243044001982,None,512.3138824002817,None,512.3138824002817,None,513.7963860002346,None,513.7963860002346,None,513.7963860002346,None,513.7963860002346,None,513.7963860002346,None,513.7963860002346,None,513.7963860002346,None,513.7963860002346,None,513.7963860002346,None,46,48,54,70,70,60,516.3084846003912,None,4.0,1.7368644000962377,516.3084846003912,None,516.3084846003912,None,516.3084846003912,None,516.3084846003912,None,None,None,518.063903500326,None,,,,,,,140,f,1,2022_Dec_13_1437,RL,2021.2.3,60.22122865147148,
1,56,0,56,0,,,,,,,,,,,,,,,None,None,None,None,None,519.6932077002712,None,519.6932077002712,None,519.6932077002712,None,519.6932077002712,None,j,0.4051369000226259,519.6932077002712,None,519.6932077002712,None,520.1379590001889,None,520.1379590001889,None,520.1379590001889,None,520.1379590001889,None,520.1379590001889,None,520.1379590001889,None,520.4247384001501,522.1199688003398,520.4247384001501,522.1199688003398,522.1408846001141,None,522.1408846001141,None,522.1408846001141,None,522.1408846001141,None,522.1408846001141,None,522.1408846001141,None,522.1408846001141,None,522.1408846001141,None,522.1408846001141,None,50,43,46,77,77,59,524.6543216002174,None,4.0,1.3847985998727381,524.6543216002174,None,524.6543216002174,None,524.6543216002174,None,524.6543216002174,None,None,None,526.0584197002463,None,,,,,,,140,f,1,2022_Dec_13_1437,RL,2021.2.3,60.22122865147148,
1,57,0,57,0,,,,,,,,,,,,,,,None,None,None,None,None,527.9042025003582,None,527.9042025003582,None,527.9042025003582,None,527.9042025003582,None,j,0.4079538998194039,527.9042025003582,None,527.9042025003582,None,528.3476720000617,None,528.3476720000617,None,528.3476720000617,None,528.3476720000617,None,528.3476720000617,None,528.3476720000617,None,528.6357034002431,None,528.6357034002431,None,530.5010610003956,None,530.5010610003956,None,530.5010610003956,None,530.5010610003956,None,530.5010610003956,None,530.5010610003956,None,530.5010610003956,None,530.5010610003956,None,530.5010610003956,None,52,50,43,74,74,47,533.0132722002454,None,5.0,1.7351773004047573,533.0132722002454,None,533.0132722002454,None,533.0132722002454,None,533.0132722002454,None,None,None,534.7681464999914,None,,,,,,,140,f,1,2022_Dec_13_1437,RL,2021.2.3,60.22122865147148,
1,58,0,58,0,,,,,,,,,,,,,,,None,None,None,None,None,536.3645187001675,None,536.3645187001675,None,536.3645187001675,None,536.3645187001675,None,j,0.4652101001702249,536.3645187001675,None,536.3645187001675,None,536.8591652000323,None,536.8591652000323,None,536.8591652000323,None,536.8591652000323,None,536.8591652000323,None,536.8591652000323,None,537.1458515003324,539.0740204001777,537.1458515003324,539.0740204001777,539.0932444003411,None,539.0932444003411,None,539.0932444003411,None,539.0932444003411,None,539.0932444003411,None,539.0932444003411,None,539.0932444003411,None,539.0932444003411,None,539.0932444003411,None,43,39,57,77,77,60,541.6048860000446,None,5.0,0.8395107998512685,541.6048860000446,None,541.6048860000446,None,541.6048860000446,None,541.6048860000446,None,None,None,542.4636212000623,None,,,,,,,140,f,1,2022_Dec_13_1437,RL,2021.2.3,60.22122865147148,
1,59,0,59,0,,,,,,,,,,,,,,,None,None,None,None,None,544.209353600163,None,544.209353600163,None,544.209353600163,None,544.209353600163,None,j,0.3651139000430703,544.209353600163,None,544.209353600163,None,544.6035747001879,None,544.6035747001879,None,544.6035747001879,None,544.6035747001879,None,544.6035747001879,None,544.6035747001879,None,544.8914898000658,545.9219423001632,544.8914898000658,545.9219423001632,545.9421190000139,None,545.9421190000139,None,545.9421190000139,None,545.9421190000139,None,545.9421190000139,None,545.9421190000139,None,545.9421190000139,None,545.9421190000139,None,545.9421190000139,None,35,34,49,76,76,42,548.4514701003209,None,4.0,1.7222347999922931,548.4514701003209,None,548.4514701003209,None,548.4514701003209,None,548.4514701003209,None,None,None,550.1928150001913,None,,,,,,,140,f,1,2022_Dec_13_1437,RL,2021.2.3,60.22122865147148,
1,60,0,60,0,,,,,,,,,,,,,,,None,None,None,None,None,551.9051813003607,None,551.9051813003607,None,551.9051813003607,None,551.9051813003607,None,j,0.31710790004581213,551.9051813003607,None,551.9051813003607,None,552.2495381003246,None,552.2495381003246,None,552.2495381003246,None,552.2495381003246,None,552.2495381003246,None,552.2495381003246,None,552.537182,554.0830494002439,552.537182,554.0830494002439,554.1039936002344,None,554.1039936002344,None,554.1039936002344,None,554.1039936002344,None,554.1039936002344,None,554.1039936002344,None,554.1039936002344,None,554.1039936002344,None,554.1039936002344,None,41,45,63,72,72,49,556.6171707003377,None,4.0,1.6166097996756434,556.6171707003377,None,556.6171707003377,None,556.6171707003377,None,556.6171707003377,None,None,None,558.2539917002432,None,,,,,,,140,f,1,2022_Dec_13_1437,RL,2021.2.3,60.22122865147148,
1,61,0,61,0,,,,,,,,,,,,,,,None,None,None,None,None,560.2490130001679,None,560.2490130001679,None,560.2490130001679,None,560.2490130001679,None,j,0.5105356001295149,560.2490130001679,None,560.2490130001679,None,560.7947754003108,None,560.7947754003108,None,560.7947754003108,None,560.7947754003108,None,560.7947754003108,None,560.7947754003108,None,561.0810407004319,562.277208100073,561.0810407004319,562.277208100073,562.2980658002198,None,562.2980658002198,None,562.2980658002198,None,562.2980658002198,None,562.2980658002198,None,562.2980658002198,None,562.2980658002198,None,562.2980658002198,None,562.2980658002198,None,44,38,58,73,73,62,564.8095186999999,None,4.0,0.6889756000600755,564.8095186999999,None,564.8095186999999,None,564.8095186999999,None,564.8095186999999,None,None,None,565.5175280002877,None,,,,,,,140,f,1,2022_Dec_13_1437,RL,2021.2.3,60.22122865147148,
1,62,0,62,0,,,,,,,,,,,,,,,None,None,None,None,None,567.1139100003056,None,567.1139100003056,None,567.1139100003056,None,567.1139100003056,None,j,0.590149899944663,567.1139100003056,None,567.1139100003056,None,567.7399283000268,None,567.7399283000268,None,567.7399283000268,None,567.7399283000268,None,567.7399283000268,None,567.7399283000268,None,568.0281750001013,569.2249385002069,568.0281750001013,569.2249385002069,569.2483056001365,None,569.2483056001365,None,569.2483056001365,None,569.2483056001365,None,569.2483056001365,None,569.2483056001365,None,569.2483056001365,None,569.2483056001365,None,569.2483056001365,None,38,44,63,64,64,59,571.7588772000745,None,5.0,1.1855271002277732,571.7588772000745,None,571.7588772000745,None,571.7588772000745,None,571.7588772000745,None,None,None,572.9637869000435,None,,,,,,,140,f,1,2022_Dec_13_1437,RL,2021.2.3,60.22122865147148,
1,63,0,63,0,,,,,,,,,,,,,,,None,None,None,None,None,574.5764342001639,None,574.5764342001639,None,574.5764342001639,None,574.5764342001639,None,j,0.38211339991539717,574.5764342001639,None,574.5764342001639,None,574.9886877001263,None,574.9886877001263,None,574.9886877001263,None,574.9886877001263,None,574.9886877001263,None,574.9886877001263,None,575.2753441003151,576.3721704003401,575.2753441003151,576.3721704003401,576.3939670003019,None,576.3939670003019,None,576.3939670003019,None,576.3939670003019,None,576.3939670003019,None,576.3939670003019,None,576.3939670003019,None,576.3939670003019,None,576.3939670003019,None,49,40,59,69,69,66,578.903091700282,None,6.0,1.4221363998949528,578.903091700282,None,578.903091700282,None,578.903091700282,None,578.903091700282,None,None,None,580.3437305004336,None,,,,,,,140,f,1,2022_Dec_13_1437,RL,2021.2.3,60.22122865147148,
1,64,0,64,0,,,,,,,,,,,,,,,None,None,None,None,None,582.3387736002915,None,582.3387736002915,None,582.3387736002915,None,582.3387736002915,None,j,0.49841840006411076,582.3387736002915,None,582.3387736002915,None,582.8673792001791,None,582.8673792001791,None,582.8673792001791,None,582.8673792001791,None,582.8673792001791,None,582.8673792001791,None,583.1540094004013,None,583.1540094004013,None,584.3701751003973,None,584.3701751003973,None,584.3701751003973,None,584.3701751003973,None,584.3701751003973,None,584.3701751003973,None,584.3701751003973,None,584.3701751003973,None,584.3701751003973,None,58,45,58,69,69,62,586.8831661003642,None,5.0,1.9206858999095857,586.8831661003642,None,586.8831661003642,None,586.8831661003642,None,586.8831661003642,None,None,None,588.8207443002611,None,,,,,,,140,f,1,2022_Dec_13_1437,RL,2021.2.3,60.22122865147148,
1,65,0,65,0,,,,,,,,,,,,,,,None,None,None,None,None,590.7661736002192,None,590.7661736002192,None,590.7661736002192,None,590.7661736002192,None,j,0.4188884003087878,590.7661736002192,None,590.7661736002192,None,591.2246571001597,None,591.2246571001597,None,591.2246571001597,None,591.2246571001597,None,591.2246571001597,None,591.2246571001597,None,591.514483100269,592.3952122000046,591.514483100269,592.3952122000046,592.4169972003438,None,592.4169972003438,None,592.4169972003438,None,592.4169972003438,None,592.4169972003438,None,592.4169972003438,None,592.4169972003438,None,592.4169972003438,None,592.4169972003438,None,45,35,50,75,75,59,594.9285414000042,None,4.0,1.070096299983561,594.9285414000042,None,594.9285414000042,None,594.9285414000042,None,594.9285414000042,None,None,None,596.0175541001372,None,,,,,,,140,f,1,2022_Dec_13_1437,RL,2021.2.3,60.22122865147148,
1,66,0,66,0,,,,,,,,,,,,,,,None,None,None,None,None,597.7139022001065,None,597.7139022001065,None,597.7139022001065,None,597.7139022001065,None,j,0.39143830025568604,597.7139022001065,None,597.7139022001065,None,598.142038400285,None,598.142038400285,None,598.142038400285,None,598.142038400285,None,598.142038400285,None,598.142038400285,None,598.4291397002526,599.3594238003716,598.4291397002526,599.3594238003716,599.3803439000621,None,599.3803439000621,None,599.3803439000621,None,599.3803439000621,None,599.3803439000621,None,599.3803439000621,None,599.3803439000621,None,599.3803439000621,None,599.3803439000621,None,35,42,55,72,72,37,601.8931118003093,None,3.0,2.0177334998734295,601.8931118003093,None,601.8931118003093,None,601.8931118003093,None,601.8931118003093,None,None,None,603.929335700348,None,,,,,,,140,f,1,2022_Dec_13_1437,RL,2021.2.3,60.22122865147148,
1,67,0,67,0,,,,,,,,,,,,,,,None,None,None,None,None,605.8417295999825,None,605.8417295999825,None,605.8417295999825,None,605.8417295999825,None,j,0.4321107999421656,605.8417295999825,None,605.8417295999825,None,606.3019950003363,None,606.3019950003363,None,606.3019950003363,None,606.3019950003363,None,606.3019950003363,None,606.3019950003363,None,606.5899458001368,608.3346038004383,606.5899458001368,608.3346038004383,608.3559921002015,None,608.3559921002015,None,608.3559921002015,None,608.3559921002015,None,608.3559921002015,None,608.3559921002015,None,608.3559921002015,None,608.3559921002015,None,608.3559921002015,None,45,41,55,74,74,77,610.8677487000823,None,4.0,1.7355892998166382,610.8677487000823,None,610.8677487000823,None,610.8677487000823,None,610.8677487000823,None,None,None,612.6222198000178,None,,,,,,,140,f,1,2022_Dec_13_1437,RL,2021.2.3,60.22122865147148,
1,68,0,68,0,,,,,,,,,,,,,,,None,None,None,None,None,614.2021131999791,None,614.2021131999791,None,614.2021131999791,None,614.2021131999791,None,j,0.4105269000865519,614.2021131999791,None,614.2021131999791,None,614.6444292003289,None,614.6444292003289,None,614.6444292003289,None,614.6444292003289,None,614.6444292003289,None,614.6444292003289,None,614.934013500344,616.6127603002824,614.934013500344,616.6127603002824,616.6349613000639,None,616.6349613000639,None,616.6349613000639,None,616.6349613000639,None,616.6349613000639,None,616.6349613000639,None,616.6349613000639,None,616.6349613000639,None,616.6349613000639,None,46,34,52,75,75,60,619.1429066001438,None,4.0,1.8032829998992383,619.1429066001438,None,619.1429066001438,None,619.1429066001438,None,619.1429066001438,None,None,None,620.9660118003376,None,,,,,,,140,f,1,2022_Dec_13_1437,RL,2021.2.3,60.22122865147148,
1,69,0,69,0,,,,,,,,,,,,,,,None,None,None,None,None,622.5792735000141,None,622.5792735000141,None,622.5792735000141,None,622.5792735000141,None,j,0.455577100161463,622.5792735000141,None,622.5792735000141,None,623.0726650999859,None,623.0726650999859,None,623.0726650999859,None,623.0726650999859,None,623.0726650999859,None,623.0726650999859,None,623.360886100214,624.9398540002294,623.360886100214,624.9398540002294,624.9602009002119,None,624.9602009002119,None,624.9602009002119,None,624.9602009002119,None,624.9602009002119,None,624.9602009002119,None,624.9602009002119,None,624.9602009002119,None,624.9602009002119,None,51,35,38,66,66,76,627.4700636002235,None,4.0,1.1236168001778424,627.4700636002235,None,627.4700636002235,None,627.4700636002235,None,627.4700636002235,None,None,None,628.6118689002469,None,,,,,,,140,f,1,2022_Dec_13_1437,RL,2021.2.3,60.22122865147148,
1,70,0,70,0,,,,,,,,,,,,,,,None,None,None,None,None,630.6071006003767,None,630.6071006003767,None,630.6071006003767,None,630.6071006003767,None,j,0.3921970999799669,630.6071006003767,None,630.6071006003767,None,631.0344290002249,None,631.0344290002249,None,631.0344290002249,None,631.0344290002249,None,631.0344290002249,None,631.0344290002249,None,631.3226074003614,633.0510168001056,631.3226074003614,633.0510168001056,633.0712886000983,None,633.0712886000983,None,633.0712886000983,None,633.0712886000983,None,633.0712886000983,None,633.0712886000983,None,633.0712886000983,None,633.0712886000983,None,633.0712886000983,None,42,36,48,80,80,53,635.5802192999981,None,5.0,1.4723950996994972,635.5802192999981,None,635.5802192999981,None,635.5802192999981,None,635.5802192999981,None,None,None,637.0749150002375,None,,,,,,,140,f,1,2022_Dec_13_1437,RL,2021.2.3,60.22122865147148,
1,71,0,71,0,,,,,,,,,,,,,,,None,None,None,None,None,638.635308300145,None,638.635308300145,None,638.635308300145,None,638.635308300145,None,j,0.5120755000971258,638.635308300145,None,638.635308300145,None,639.1832430004142,None,639.1832430004142,None,639.1832430004142,None,639.1832430004142,None,639.1832430004142,None,639.1832430004142,None,639.4669365002774,641.3115702001378,639.4669365002774,641.3115702001378,641.3320439001545,None,641.3320439001545,None,641.3320439001545,None,641.3320439001545,None,641.3320439001545,None,641.3320439001545,None,641.3320439001545,None,641.3320439001545,None,641.3320439001545,None,52,43,46,70,70,55,643.8424899000674,None,4.0,1.8703602999448776,643.8424899000674,None,643.8424899000674,None,643.8424899000674,None,643.8424899000674,None,None,None,645.7317902003415,None,,,,,,,140,f,1,2022_Dec_13_1437,RL,2021.2.3,60.22122865147148,
1,72,0,72,0,,,,,,,,,,,,,,,None,None,None,None,None,647.311957300175,None,647.311957300175,None,647.311957300175,None,647.311957300175,None,j,0.4778041997924447,647.311957300175,None,647.311957300175,None,647.8210855000652,None,647.8210855000652,None,647.8210855000652,None,647.8210855000652,None,647.8210855000652,None,647.8210855000652,None,648.1098143002018,None,648.1098143002018,None,649.2774072000757,None,649.2774072000757,None,649.2774072000757,None,649.2774072000757,None,649.2774072000757,None,649.2774072000757,None,649.2774072000757,None,649.2774072000757,None,649.2774072000757,None,43,40,44,80,80,45,651.7867486001924,None,3.0,1.4902992001734674,651.7867486001924,None,651.7867486001924,None,651.7867486001924,None,651.7867486001924,None,None,None,653.2944937003776,None,,,,,,,140,f,1,2022_Dec_13_1437,RL,2021.2.3,60.22122865147148,
1,73,0,73,0,,,,,,,,,,,,,,,None,None,None,None,None,655.1738168001175,None,655.1738168001175,None,655.1738168001175,None,655.1738168001175,None,j,0.49035320011898875,655.1738168001175,None,655.1738168001175,None,655.7048524003476,None,655.7048524003476,None,655.7048524003476,None,655.7048524003476,None,655.7048524003476,None,655.7048524003476,None,655.9885969003662,657.2684126002714,655.9885969003662,657.2684126002714,657.2927729003131,None,657.2927729003131,None,657.2927729003131,None,657.2927729003131,None,657.2927729003131,None,657.2927729003131,None,657.2927729003131,None,657.2927729003131,None,657.2927729003131,None,55,38,48,70,70,72,659.8022424001247,None,5.0,1.4498189999721944,659.8022424001247,None,659.8022424001247,None,659.8022424001247,None,659.8022424001247,None,None,None,661.2727411002852,None,,,,,,,140,f,1,2022_Dec_13_1437,RL,2021.2.3,60.22122865147148,
1,74,0,74,0,,,,,,,,,,,,,,,None,None,None,None,None,663.0024934001267,None,663.0024934001267,None,663.0024934001267,None,663.0024934001267,None,j,0.46065529994666576,663.0024934001267,None,663.0024934001267,None,663.4948417004198,None,663.4948417004198,None,663.4948417004198,None,663.4948417004198,None,663.4948417004198,None,663.4948417004198,None,663.7839589002542,665.5120667000301,663.7839589002542,665.5120667000301,665.5329237002879,None,665.5329237002879,None,665.5329237002879,None,665.5329237002879,None,665.5329237002879,None,665.5329237002879,None,665.5329237002879,None,665.5329237002879,None,665.5329237002879,None,44,41,47,79,79,65,668.0462927999906,None,4.0,1.353037000168115,668.0462927999906,None,668.0462927999906,None,668.0462927999906,None,668.0462927999906,None,None,None,669.4173708003946,None,,,,,,,140,f,1,2022_Dec_13_1437,RL,2021.2.3,60.22122865147148,
1,75,0,75,0,,,,,,,,,,,,,,,671.1797930002213,None,q,671.1797930002213,None,711.7858551000245,None,711.7858551000245,None,711.7858551000245,None,711.7858551000245,None,j,0.6685597999021411,711.7858551000245,None,711.7858551000245,None,712.4995661000721,None,712.4995661000721,None,712.4995661000721,None,712.4995661000721,None,712.4995661000721,None,712.4995661000721,None,712.8003397001885,None,712.8003397001885,None,714.3705500001088,None,714.3705500001088,None,714.3705500001088,None,714.3705500001088,None,714.3705500001088,None,714.3705500001088,None,714.3705500001088,None,714.3705500001088,None,714.3705500001088,None,42,35,48,78,78,71,716.8774368003942,None,5.0,1.5039960001595318,716.8774368003942,None,716.8774368003942,None,716.8774368003942,None,716.8774368003942,None,None,None,718.4003790002316,None,40.58068550005555,,,,,,140,f,1,2022_Dec_13_1437,RL,2021.2.3,60.22122865147148,
1,76,0,76,0,,,,,,,,,,,,,,,None,None,None,None,None,720.279700900428,None,720.279700900428,None,720.279700900428,None,720.279700900428,None,i,0.4232282997108996,720.279700900428,None,720.279700900428,None,720.7387215001509,None,720.7387215001509,None,720.7387215001509,None,720.7387215001509,None,720.7387215001509,None,720.7387215001509,None,721.0274051004089,None,721.0274051004089,None,722.8592492002062,None,722.8592492002062,None,722.8592492002062,None,722.8592492002062,None,722.8592492002062,None,722.8592492002062,None,722.8592492002062,None,722.8592492002062,None,722.8592492002062,None,39,25,46,74,46,43,725.3690777001902,None,4.0,2.037267900072038,725.3690777001902,None,725.3690777001902,None,725.3690777001902,None,725.3690777001902,None,None,None,727.4256047001109,None,,,,,,,140,f,1,2022_Dec_13_1437,RL,2021.2.3,60.22122865147148,
1,77,0,77,0,,,,,,,,,,,,,,,None,None,None,None,None,729.2714706002735,None,729.2714706002735,None,729.2714706002735,None,729.2714706002735,None,j,0.37857129983603954,729.2714706002735,None,729.2714706002735,None,729.6821720004082,None,729.6821720004082,None,729.6821720004082,None,729.6821720004082,None,729.6821720004082,None,729.6821720004082,None,729.970167200081,None,729.970167200081,None,730.9036495001055,None,730.9036495001055,None,730.9036495001055,None,730.9036495001055,None,730.9036495001055,None,730.9036495001055,None,730.9036495001055,None,730.9036495001055,None,730.9036495001055,None,26,37,38,80,80,47,733.413008000236,None,3.0,1.1910794000141323,733.413008000236,None,733.413008000236,None,733.413008000236,None,733.413008000236,None,None,None,734.6226682001725,None,,,,,,,140,f,1,2022_Dec_13_1437,RL,2021.2.3,60.22122865147148,
1,78,0,78,0,,,,,,,,,,,,,,,None,None,None,None,None,736.3024314003997,None,736.3024314003997,None,736.3024314003997,None,736.3024314003997,None,j,0.36755660036578774,736.3024314003997,None,736.3024314003997,None,736.7131207003258,None,736.7131207003258,None,736.7131207003258,None,736.7131207003258,None,736.7131207003258,None,736.7131207003258,None,737.0010752002709,None,737.0010752002709,None,738.9325149003416,None,738.9325149003416,None,738.9325149003416,None,738.9325149003416,None,738.9325149003416,None,738.9325149003416,None,738.9325149003416,None,738.9325149003416,None,738.9325149003416,None,47,31,40,73,73,80,741.4436829001643,None,5.0,1.137764099985361,741.4436829001643,None,741.4436829001643,None,741.4436829001643,None,741.4436829001643,None,None,None,742.6008246000856,None,,,,,,,140,f,1,2022_Dec_13_1437,RL,2021.2.3,60.22122865147148,
1,79,0,79,0,,,,,,,,,,,,,,,None,None,None,None,None,744.5630516000092,None,744.5630516000092,None,744.5630516000092,None,744.5630516000092,None,j,0.41568459989503026,744.5630516000092,None,744.5630516000092,None,745.0103979003616,None,745.0103979003616,None,745.0103979003616,None,745.0103979003616,None,745.0103979003616,None,745.0103979003616,None,745.2948513003066,747.205889200326,745.2948513003066,747.205889200326,747.2269680001773,None,747.2269680001773,None,747.2269680001773,None,747.2269680001773,None,747.2269680001773,None,747.2269680001773,None,747.2269680001773,None,747.2269680001773,None,747.2269680001773,None,50,38,47,82,82,46,749.7418352002278,None,5.0,0.8673499999567866,749.7418352002278,None,749.7418352002278,None,749.7418352002278,None,749.7418352002278,None,None,None,750.6289182002656,None,,,,,,,140,f,1,2022_Dec_13_1437,RL,2021.2.3,60.22122865147148,
1,80,0,80,0,,,,,,,,,,,,,,,None,None,None,None,None,752.292116700206,None,752.292116700206,None,752.292116700206,None,752.292116700206,None,j,0.5245376001112163,752.292116700206,None,752.292116700206,None,752.8498747004196,None,752.8498747004196,None,752.8498747004196,None,752.8498747004196,None,752.8498747004196,None,752.8498747004196,None,753.1402750001289,754.1041767001152,753.1402750001289,754.1041767001152,754.1255998001434,None,754.1255998001434,None,754.1255998001434,None,754.1255998001434,None,754.1255998001434,None,754.1255998001434,None,754.1255998001434,None,754.1255998001434,None,754.1255998001434,None,36,40,50,75,75,61,756.6379174999893,None,4.0,1.4532286999747157,756.6379174999893,None,756.6379174999893,None,756.6379174999893,None,756.6379174999893,None,None,None,758.1088924002834,None,,,,,,,140,f,1,2022_Dec_13_1437,RL,2021.2.3,60.22122865147148,
1,81,0,81,0,,,,,,,,,,,,,,,None,None,None,None,None,759.8546196003444,None,759.8546196003444,None,759.8546196003444,None,759.8546196003444,None,j,0.31752240005880594,759.8546196003444,None,759.8546196003444,None,760.2193713001907,None,760.2193713001907,None,760.2193713001907,None,760.2193713001907,None,760.2193713001907,None,760.2193713001907,None,760.5197648000903,None,760.5197648000903,None,762.2852358003147,None,762.2852358003147,None,762.2852358003147,None,762.2852358003147,None,762.2852358003147,None,762.2852358003147,None,762.2852358003147,None,762.2852358003147,None,762.2852358003147,None,40,29,53,89,89,51,764.796959000174,None,4.0,1.3417059001512825,764.796959000174,None,764.796959000174,None,764.796959000174,None,764.796959000174,None,None,None,766.153525700327,None,,,,,,,140,f,1,2022_Dec_13_1437,RL,2021.2.3,60.22122865147148,
1,82,0,82,0,,,,,,,,,,,,,,,None,None,None,None,None,767.9662290001288,None,767.9662290001288,None,767.9662290001288,None,767.9662290001288,None,j,0.3105059997178614,767.9662290001288,None,767.9662290001288,None,768.3096239003353,None,768.3096239003353,None,768.3096239003353,None,768.3096239003353,None,768.3096239003353,None,768.3096239003353,None,768.5979449003935,769.8443304002285,768.5979449003935,769.8443304002285,769.865235700272,None,769.865235700272,None,769.865235700272,None,769.865235700272,None,769.865235700272,None,769.865235700272,None,769.865235700272,None,769.865235700272,None,769.865235700272,None,42,35,50,92,92,58,772.3787244004197,None,3.0,0.6536183999851346,772.3787244004197,None,772.3787244004197,None,772.3787244004197,None,772.3787244004197,None,None,None,773.0513297002763,None,,,,,,,140,f,1,2022_Dec_13_1437,RL,2021.2.3,60.22122865147148,
1,83,0,83,0,,,,,,,,,,,,,,,None,None,None,None,None,774.7471197000705,None,774.7471197000705,None,774.7471197000705,None,774.7471197000705,None,j,0.3342703999951482,774.7471197000705,None,774.7471197000705,None,775.1263570003211,None,775.1263570003211,None,775.1263570003211,None,775.1263570003211,None,775.1263570003211,None,775.1263570003211,None,775.4127131002024,776.5761795002036,775.4127131002024,776.5761795002036,776.5984743000008,None,776.5984743000008,None,776.5984743000008,None,776.5984743000008,None,776.5984743000008,None,776.5984743000008,None,776.5984743000008,None,776.5984743000008,None,776.5984743000008,None,42,41,49,87,87,56,779.108396100346,None,3.0,0.6382893999107182,779.108396100346,None,779.108396100346,None,779.108396100346,None,779.108396100346,None,None,None,779.7661090004258,None,,,,,,,140,f,1,2022_Dec_13_1437,RL,2021.2.3,60.22122865147148,
1,84,0,84,0,,,,,,,,,,,,,,,None,None,None,None,None,781.6786658000201,None,781.6786658000201,None,781.6786658000201,None,781.6786658000201,None,j,0.33357719983905554,781.6786658000201,None,781.6786658000201,None,782.0386235001497,None,782.0386235001497,None,782.0386235001497,None,782.0386235001497,None,782.0386235001497,None,782.0386235001497,None,782.3269740003161,None,782.3269740003161,None,783.2788535002619,None,783.2788535002619,None,783.2788535002619,None,783.2788535002619,None,783.2788535002619,None,783.2788535002619,None,783.2788535002619,None,783.2788535002619,None,783.2788535002619,None,36,55,50,81,81,64,785.7877446003258,None,3.0,0.8570773000828922,785.7877446003258,None,785.7877446003258,None,785.7877446003258,None,785.7877446003258,None,None,None,786.6642673001625,None,,,,,,,140,f,1,2022_Dec_13_1437,RL,2021.2.3,60.22122865147148,
1,85,0,85,0,,,,,,,,,,,,,,,None,None,None,None,None,788.393784200307,None,788.393784200307,None,788.393784200307,None,788.393784200307,None,j,0.30323660001158714,788.393784200307,None,788.393784200307,None,788.7357944003306,None,788.7357944003306,None,788.7357944003306,None,788.7357944003306,None,788.7357944003306,None,788.7357944003306,None,789.025622300338,790.055436800234,789.025622300338,790.055436800234,790.0773310000077,None,790.0773310000077,None,790.0773310000077,None,790.0773310000077,None,790.0773310000077,None,790.0773310000077,None,790.0773310000077,None,790.0773310000077,None,790.0773310000077,None,29,45,44,94,94,69,792.5894570001401,None,3.0,0.7044632998295128,792.5894570001401,None,792.5894570001401,None,792.5894570001401,None,792.5894570001401,None,None,None,793.312576000113,None,,,,,,,140,f,1,2022_Dec_13_1437,RL,2021.2.3,60.22122865147148,
1,86,0,86,0,,,,,,,,,,,,,,,None,None,None,None,None,794.9089417001233,None,794.9089417001233,None,794.9089417001233,None,794.9089417001233,None,j,0.2634556000120938,794.9089417001233,None,794.9089417001233,None,795.2025506002828,None,795.2025506002828,None,795.2025506002828,None,795.2025506002828,None,795.2025506002828,None,795.2025506002828,None,795.4913630001247,796.6045637000352,795.4913630001247,796.6045637000352,796.6250650002621,None,796.6250650002621,None,796.6250650002621,None,796.6250650002621,None,796.6250650002621,None,796.6250650002621,None,796.6250650002621,None,796.6250650002621,None,796.6250650002621,None,48,40,49,83,83,68,799.1368563002907,None,3.0,0.7711936999112368,799.1368563002907,None,799.1368563002907,None,799.1368563002907,None,799.1368563002907,None,None,None,799.9280046001077,None,,,,,,,140,f,1,2022_Dec_13_1437,RL,2021.2.3,60.22122865147148,
1,87,0,87,0,,,,,,,,,,,,,,,None,None,None,None,None,801.7402010001242,None,801.7402010001242,None,801.7402010001242,None,801.7402010001242,None,j,0.3526947000063956,801.7402010001242,None,801.7402010001242,None,802.1338022002019,None,802.1338022002019,None,802.1338022002019,None,802.1338022002019,None,802.1338022002019,None,802.1338022002019,None,802.4220587001182,804.1508465004154,802.4220587001182,804.1508465004154,804.1719547002576,None,804.1719547002576,None,804.1719547002576,None,804.1719547002576,None,804.1719547002576,None,804.1719547002576,None,804.1719547002576,None,804.1719547002576,None,804.1719547002576,None,43,44,49,91,91,40,806.6821093000472,None,3.0,1.0729184001684189,806.6821093000472,None,806.6821093000472,None,806.6821093000472,None,806.6821093000472,None,None,None,807.773279200308,None,,,,,,,140,f,1,2022_Dec_13_1437,RL,2021.2.3,60.22122865147148,
1,88,0,88,0,,,,,,,,,,,,,,,None,None,None,None,None,809.7519601001404,None,809.7519601001404,None,809.7519601001404,None,809.7519601001404,None,j,0.28967580012977123,809.7519601001404,None,809.7519601001404,None,810.0792065002024,None,810.0792065002024,None,810.0792065002024,None,810.0792065002024,None,810.0792065002024,None,810.0792065002024,None,810.3672562004067,None,810.3672562004067,None,812.3157811001875,None,812.3157811001875,None,812.3157811001875,None,812.3157811001875,None,812.3157811001875,None,812.3157811001875,None,812.3157811001875,None,812.3157811001875,None,812.3157811001875,None,49,36,53,89,89,74,814.8300879001617,None,4.0,1.2849106001667678,814.8300879001617,None,814.8300879001617,None,814.8300879001617,None,814.8300879001617,None,None,None,816.1337143001147,None,,,,,,,140,f,1,2022_Dec_13_1437,RL,2021.2.3,60.22122865147148,
1,89,0,89,0,,,,,,,,,,,,,,,None,None,None,None,None,817.9131338000298,None,817.9131338000298,None,817.9131338000298,None,817.9131338000298,None,j,0.3582081999629736,817.9131338000298,None,817.9131338000298,None,818.3055686000735,None,818.3055686000735,None,818.3055686000735,None,818.3055686000735,None,818.3055686000735,None,818.3055686000735,None,818.5945585002191,820.2403722000308,818.5945585002191,820.2403722000308,820.26042170031,None,820.26042170031,None,820.26042170031,None,820.26042170031,None,820.26042170031,None,820.26042170031,None,820.26042170031,None,820.26042170031,None,820.26042170031,None,52,39,54,92,92,76,822.76997890044,None,4.0,0.727225000038743,822.76997890044,None,822.76997890044,None,822.76997890044,None,822.76997890044,None,None,None,823.5135075002909,None,,,,,,,140,f,1,2022_Dec_13_1437,RL,2021.2.3,60.22122865147148,
1,90,0,90,0,,,,,,,,,,,,,,,None,None,None,None,None,825.2100762003101,None,825.2100762003101,None,825.2100762003101,None,825.2100762003101,None,j,0.434644200373441,825.2100762003101,None,825.2100762003101,None,825.6856292001903,None,825.6856292001903,None,825.6856292001903,None,825.6856292001903,None,825.6856292001903,None,825.6856292001903,None,825.974524400197,827.6864239000715,825.974524400197,827.6864239000715,827.7077599000186,None,827.7077599000186,None,827.7077599000186,None,827.7077599000186,None,827.7077599000186,None,827.7077599000186,None,827.7077599000186,None,827.7077599000186,None,827.7077599000186,None,53,37,54,80,80,80,830.2191494000144,None,7.0,1.3387930998578668,830.2191494000144,None,830.2191494000144,None,830.2191494000144,None,830.2191494000144,None,None,None,831.5747466003522,None,,,,,,,140,f,1,2022_Dec_13_1437,RL,2021.2.3,60.22122865147148,
1,91,0,91,0,,,,,,,,,,,,,,,None,None,None,None,None,833.0881778001785,None,833.0881778001785,None,833.0881778001785,None,833.0881778001785,None,j,0.35540830017998815,833.0881778001785,None,833.0881778001785,None,833.4807553002611,None,833.4807553002611,None,833.4807553002611,None,833.4807553002611,None,833.4807553002611,None,833.4807553002611,None,833.7697181003168,None,833.7697181003168,None,834.9386124000885,None,834.9386124000885,None,834.9386124000885,None,834.9386124000885,None,834.9386124000885,None,834.9386124000885,None,834.9386124000885,None,834.9386124000885,None,834.9386124000885,None,40,31,47,84,84,61,837.452157900203,None,3.0,1.7336321999318898,837.452157900203,None,837.452157900203,None,837.452157900203,None,837.452157900203,None,None,None,839.2042797002941,None,,,,,,,140,f,1,2022_Dec_13_1437,RL,2021.2.3,60.22122865147148,
1,92,0,92,0,,,,,,,,,,,,,,,None,None,None,None,None,841.1829252000898,None,841.1829252000898,None,841.1829252000898,None,841.1829252000898,None,j,0.41428649984300137,841.1829252000898,None,841.1829252000898,None,841.6301196003333,None,841.6301196003333,None,841.6301196003333,None,841.6301196003333,None,841.6301196003333,None,841.6301196003333,None,841.9145886003971,843.5099774003029,841.9145886003971,843.5099774003029,843.5314087001607,None,843.5314087001607,None,843.5314087001607,None,843.5314087001607,None,843.5314087001607,None,843.5314087001607,None,843.5314087001607,None,843.5314087001607,None,843.5314087001607,None,48,31,51,80,80,76,846.0419666999951,None,6.0,1.4869590997695923,846.0419666999951,None,846.0419666999951,None,846.0419666999951,None,846.0419666999951,None,None,None,847.5479479003698,None,,,,,,,140,f,1,2022_Dec_13_1437,RL,2021.2.3,60.22122865147148,
1,93,0,93,0,,,,,,,,,,,,,,,None,None,None,None,None,849.4267068002373,None,849.4267068002373,None,849.4267068002373,None,849.4267068002373,None,j,0.6431428999640048,849.4267068002373,None,849.4267068002373,None,850.103632400278,None,850.103632400278,None,850.103632400278,None,850.103632400278,None,850.103632400278,None,850.103632400278,None,850.3910276000388,None,850.3910276000388,None,852.0432250001468,None,852.0432250001468,None,852.0432250001468,None,852.0432250001468,None,852.0432250001468,None,852.0432250001468,None,852.0432250001468,None,852.0432250001468,None,852.0432250001468,None,43,33,52,85,85,69,854.5527453999966,None,4.0,1.6534208999946713,854.5527453999966,None,854.5527453999966,None,854.5527453999966,None,854.5527453999966,None,None,None,856.2246288000606,None,,,,,,,140,f,1,2022_Dec_13_1437,RL,2021.2.3,60.22122865147148,
1,94,0,94,0,,,,,,,,,,,,,,,None,None,None,None,None,858.0701431999914,None,858.0701431999914,None,858.0701431999914,None,858.0701431999914,None,j,0.36358470004051924,858.0701431999914,None,858.0701431999914,None,858.4658209001645,None,858.4658209001645,None,858.4658209001645,None,858.4658209001645,None,858.4658209001645,None,858.4658209001645,None,858.7517628003843,860.3642438002862,858.7517628003843,860.3642438002862,860.3884623004124,None,860.3884623004124,None,860.3884623004124,None,860.3884623004124,None,860.3884623004124,None,860.3884623004124,None,860.3884623004124,None,860.3884623004124,None,860.3884623004124,None,56,28,49,90,90,67,862.8947951002046,None,3.0,0.889716099947691,862.8947951002046,None,862.8947951002046,None,862.8947951002046,None,862.8947951002046,None,None,None,863.8036064002663,None,,,,,,,140,f,1,2022_Dec_13_1437,RL,2021.2.3,60.22122865147148,
1,95,0,95,0,,,,,,,,,,,,,,,None,None,None,None,None,865.7336969003081,None,865.7336969003081,None,865.7336969003081,None,865.7336969003081,None,j,0.33391090016812086,865.7336969003081,None,865.7336969003081,None,866.1112949000672,None,866.1112949000672,None,866.1112949000672,None,866.1112949000672,None,866.1112949000672,None,866.1112949000672,None,866.3975899000652,868.2091304999776,866.3975899000652,868.2091304999776,868.229674000293,None,868.229674000293,None,868.229674000293,None,868.229674000293,None,868.229674000293,None,868.229674000293,None,868.229674000293,None,868.229674000293,None,868.229674000293,None,47,31,47,90,90,82,870.7395938001573,None,7.0,1.1887393002398312,870.7395938001573,None,870.7395938001573,None,870.7395938001573,None,870.7395938001573,None,None,None,871.9479521000758,None,,,,,,,140,f,1,2022_Dec_13_1437,RL,2021.2.3,60.22122865147148,
1,96,0,96,0,,,,,,,,,,,,,,,None,None,None,None,None,873.6942060003057,None,873.6942060003057,None,873.6942060003057,None,873.6942060003057,None,j,0.2922046002931893,873.6942060003057,None,873.6942060003057,None,874.0223477003165,None,874.0223477003165,None,874.0223477003165,None,874.0223477003165,None,874.0223477003165,None,874.0223477003165,None,874.309275700245,None,874.309275700245,None,875.645039900206,None,875.645039900206,None,875.645039900206,None,875.645039900206,None,875.645039900206,None,875.645039900206,None,875.645039900206,None,875.645039900206,None,875.645039900206,None,48,34,48,86,86,75,878.1539736003615,None,5.0,1.453687199857086,878.1539736003615,None,878.1539736003615,None,878.1539736003615,None,878.1539736003615,None,None,None,879.6271767001599,None,,,,,,,140,f,1,2022_Dec_13_1437,RL,2021.2.3,60.22122865147148,
1,97,0,97,0,,,,,,,,,,,,,,,None,None,None,None,None,881.605811800342,None,881.605811800342,None,881.605811800342,None,881.605811800342,None,j,0.3887757998891175,881.605811800342,None,881.605811800342,None,882.0322878002189,None,882.0322878002189,None,882.0322878002189,None,882.0322878002189,None,882.0322878002189,None,882.0322878002189,None,882.3208744004369,883.334497100208,882.3208744004369,883.334497100208,883.3585569001734,None,883.3585569001734,None,883.3585569001734,None,883.3585569001734,None,883.3585569001734,None,883.3585569001734,None,883.3585569001734,None,883.3585569001734,None,883.3585569001734,None,50,36,48,86,86,47,885.8674548002891,None,3.0,0.9366572997532785,885.8674548002891,None,885.8674548002891,None,885.8674548002891,None,885.8674548002891,None,None,None,886.8243103004061,None,,,,,,,140,f,1,2022_Dec_13_1437,RL,2021.2.3,60.22122865147148,
1,98,0,98,0,,,,,,,,,,,,,,,None,None,None,None,None,888.7866603001021,None,888.7866603001021,None,888.7866603001021,None,888.7866603001021,None,j,0.2630810998380184,888.7866603001021,None,888.7866603001021,None,889.0784971001558,None,889.0784971001558,None,889.0784971001558,None,889.0784971001558,None,889.0784971001558,None,889.0784971001558,None,889.3683482999913,890.3154254001565,889.3683482999913,890.3154254001565,890.336090600118,None,890.336090600118,None,890.336090600118,None,890.336090600118,None,890.336090600118,None,890.336090600118,None,890.336090600118,None,890.336090600118,None,890.336090600118,None,52,36,39,91,91,77,892.8478839001618,None,4.0,1.1542147998698056,892.8478839001618,None,892.8478839001618,None,892.8478839001618,None,892.8478839001618,None,None,None,894.0210717003793,None,,,,,,,140,f,1,2022_Dec_13_1437,RL,2021.2.3,60.22122865147148,
1,99,0,99,0,,,,,,,,,,,,,,,None,None,None,None,None,895.9500135001726,None,895.9500135001726,None,895.9500135001726,None,895.9500135001726,None,j,0.3544904999434948,895.9500135001726,None,895.9500135001726,None,896.3433383000083,None,896.3433383000083,None,896.3433383000083,None,896.3433383000083,None,896.3433383000083,None,896.3433383000083,None,896.6320654000156,None,896.6320654000156,None,897.6179176000878,None,897.6179176000878,None,897.6179176000878,None,897.6179176000878,None,897.6179176000878,None,897.6179176000878,None,897.6179176000878,None,897.6179176000878,None,897.6179176000878,None,42,39,57,87,87,45,900.1275493004359,None,3.0,0.6272061998024583,900.1275493004359,None,900.1275493004359,None,900.1275493004359,None,900.1275493004359,None,None,None,900.7693965001963,None,,,,,,,140,f,1,2022_Dec_13_1437,RL,2021.2.3,60.22122865147148,
1,100,0,100,0,,,,,,,,,,,,,,,None,None,None,None,None,902.5484050000086,None,902.5484050000086,None,902.5484050000086,None,902.5484050000086,None,j,0.30561659997329116,902.5484050000086,None,902.5484050000086,None,902.889606400393,None,902.889606400393,None,902.889606400393,None,902.889606400393,None,902.889606400393,None,902.889606400393,None,903.1806197999977,904.2775084003806,903.1806197999977,904.2775084003806,904.2984951003455,None,904.2984951003455,None,904.2984951003455,None,904.2984951003455,None,904.2984951003455,None,904.2984951003455,None,904.2984951003455,None,904.2984951003455,None,904.2984951003455,None,37,28,52,88,88,80,906.8107456001453,None,6.0,2.6153132002800703,906.8107456001453,None,906.8107456001453,None,906.8107456001453,None,906.8107456001453,None,None,None,909.4457487002946,None,,,,,,,140,f,1,2022_Dec_13_1437,RL,2021.2.3,60.22122865147148,
1,101,0,101,0,,,,,,,,,,,,,,,None,None,None,None,None,911.3914177003317,None,911.3914177003317,None,911.3914177003317,None,911.3914177003317,None,None,,911.3914177003317,None,911.3914177003317,None,None,None,None,None,None,None,None,None,None,None,None,None,None,None,None,None,None,None,None,None,None,None,None,None,None,None,None,None,None,None,None,None,None,None,46,27,53,85,0,**,None,None,None,None,None,None,None,None,None,None,None,None,912.9390428001061,None,917.4407677003182,None,,,,,,,140,f,1,2022_Dec_13_1437,RL,2021.2.3,60.22122865147148,
1,102,0,102,0,,,,,,,,,,,,,,,None,None,None,None,None,919.419328500051,None,919.419328500051,None,919.419328500051,None,919.419328500051,None,j,0.5462497002445161,919.419328500051,None,919.419328500051,None,919.9951325003058,None,919.9951325003058,None,919.9951325003058,None,919.9951325003058,None,919.9951325003058,None,919.9951325003058,None,920.284372900147,921.5140616004355,920.284372900147,921.5140616004355,921.5360866002738,None,921.5360866002738,None,921.5360866002738,None,921.5360866002738,None,921.5360866002738,None,921.5360866002738,None,921.5360866002738,None,921.5360866002738,None,921.5360866002738,None,38,33,54,87,87,81,924.0490774000064,None,6.0,1.0351402997039258,924.0490774000064,None,924.0490774000064,None,924.0490774000064,None,924.0490774000064,None,None,None,925.1030539004132,None,,,,,,,140,f,1,2022_Dec_13_1437,RL,2021.2.3,60.22122865147148,
1,103,0,103,0,,,,,,,,,,,,,,,None,None,None,None,None,926.7162366001867,None,926.7162366001867,None,926.7162366001867,None,926.7162366001867,None,j,0.3398150000721216,926.7162366001867,None,926.7162366001867,None,927.0928107001819,None,927.0928107001819,None,927.0928107001819,None,927.0928107001819,None,927.0928107001819,None,927.0928107001819,None,927.3815457001328,928.627753100358,927.3815457001328,928.627753100358,928.6514148004353,None,928.6514148004353,None,928.6514148004353,None,928.6514148004353,None,928.6514148004353,None,928.6514148004353,None,928.6514148004353,None,928.6514148004353,None,928.6514148004353,None,40,26,58,83,83,70,931.1578718000092,None,6.0,0.75673389993608,931.1578718000092,None,931.1578718000092,None,931.1578718000092,None,931.1578718000092,None,None,None,931.934519500006,None,,,,,,,140,f,1,2022_Dec_13_1437,RL,2021.2.3,60.22122865147148,
1,104,0,104,0,,,,,,,,,,,,,,,None,None,None,None,None,933.9130681003444,None,933.9130681003444,None,933.9130681003444,None,933.9130681003444,None,j,0.306844100356102,933.9130681003444,None,933.9130681003444,None,934.2535675000399,None,934.2535675000399,None,934.2535675000399,None,934.2535675000399,None,934.2535675000399,None,934.2535675000399,None,934.5450846999884,936.0742165003903,934.5450846999884,936.0742165003903,936.0939525002614,None,936.0939525002614,None,936.0939525002614,None,936.0939525002614,None,936.0939525002614,None,936.0939525002614,None,936.0939525002614,None,936.0939525002614,None,936.0939525002614,None,38,40,47,88,88,60,938.604740400333,None,4.0,1.0564891998656094,938.604740400333,None,938.604740400333,None,938.604740400333,None,938.604740400333,None,None,None,939.6798964003101,None,,,,,,,140,f,1,2022_Dec_13_1437,RL,2021.2.3,60.22122865147148,
1,105,0,105,0,,,,,,,,,,,,,,,None,None,None,None,None,941.3597757001407,None,941.3597757001407,None,941.3597757001407,None,941.3597757001407,None,j,0.32431939989328384,941.3597757001407,None,941.3597757001407,None,941.7191378003918,None,941.7191378003918,None,941.7191378003918,None,941.7191378003918,None,941.7191378003918,None,941.7191378003918,None,942.0079473000951,None,942.0079473000951,None,943.2921718000434,None,943.2921718000434,None,943.2921718000434,None,943.2921718000434,None,943.2921718000434,None,943.2921718000434,None,943.2921718000434,None,943.2921718000434,None,943.2921718000434,None,42,32,54,82,82,65,945.8053890001029,None,4.0,1.7704368000850081,945.8053890001029,None,945.8053890001029,None,945.8053890001029,None,945.8053890001029,None,None,None,947.5918885003775,None,,,,,,,140,f,1,2022_Dec_13_1437,RL,2021.2.3,60.22122865147148,
1,106,0,106,0,,,,,,,,,,,,,,,None,None,None,None,None,949.5540467002429,None,949.5540467002429,None,949.5540467002429,None,949.5540467002429,None,j,0.3029926000162959,949.5540467002429,None,949.5540467002429,None,949.8974129999988,None,949.8974129999988,None,949.8974129999988,None,949.8974129999988,None,949.8974129999988,None,949.8974129999988,None,950.1857270002365,951.8472388000228,950.1857270002365,951.8472388000228,951.8680102000944,None,951.8680102000944,None,951.8680102000944,None,951.8680102000944,None,951.8680102000944,None,951.8680102000944,None,951.8680102000944,None,951.8680102000944,None,951.8680102000944,None,43,32,48,88,88,73,954.3789090001956,None,3.0,1.2247983999550343,954.3789090001956,None,954.3789090001956,None,954.3789090001956,None,954.3789090001956,None,None,None,955.6199622000568,None,,,,,,,140,f,1,2022_Dec_13_1437,RL,2021.2.3,60.22122865147148,
1,107,0,107,0,,,,,,,,,,,,,,,None,None,None,None,None,957.4489062000066,None,957.4489062000066,None,957.4489062000066,None,957.4489062000066,None,j,0.32701099989935756,957.4489062000066,None,957.4489062000066,None,957.8090220000595,None,957.8090220000595,None,957.8090220000595,None,957.8090220000595,None,957.8090220000595,None,957.8090220000595,None,958.0976081001572,959.5266033001244,958.0976081001572,959.5266033001244,959.5481487000361,None,959.5481487000361,None,959.5481487000361,None,959.5481487000361,None,959.5481487000361,None,959.5481487000361,None,959.5481487000361,None,959.5481487000361,None,959.5481487000361,None,45,42,43,80,80,65,962.0582199003547,None,3.0,0.7560175000689924,962.0582199003547,None,962.0582199003547,None,962.0582199003547,None,962.0582199003547,None,None,None,962.8335323003121,None,,,,,,,140,f,1,2022_Dec_13_1437,RL,2021.2.3,60.22122865147148,
1,108,0,108,0,,,,,,,,,,,,,,,None,None,None,None,None,964.6626230003312,None,964.6626230003312,None,964.6626230003312,None,964.6626230003312,None,j,0.31906119966879487,964.6626230003312,None,964.6626230003312,None,965.0241672000848,None,965.0241672000848,None,965.0241672000848,None,965.0241672000848,None,965.0241672000848,None,965.0241672000848,None,965.3112914003432,966.8067148001865,965.3112914003432,966.8067148001865,966.8296795003116,None,966.8296795003116,None,966.8296795003116,None,966.8296795003116,None,966.8296795003116,None,966.8296795003116,None,966.8296795003116,None,966.8296795003116,None,966.8296795003116,None,44,32,49,79,79,26,969.3385819001123,None,2.0,2.4674158999696374,969.3385819001123,None,969.3385819001123,None,969.3385819001123,None,969.3385819001123,None,None,None,971.8256497001275,None,,,,,,,140,f,1,2022_Dec_13_1437,RL,2021.2.3,60.22122865147148,
1,109,0,109,0,,,,,,,,,,,,,,,None,None,None,None,None,973.8041969002225,None,973.8041969002225,None,973.8041969002225,None,973.8041969002225,None,j,0.45857510017231107,973.8041969002225,None,973.8041969002225,None,974.302194100339,None,974.302194100339,None,974.302194100339,None,974.302194100339,None,974.302194100339,None,974.302194100339,None,974.5858772001229,976.0984642002732,974.5858772001229,976.0984642002732,976.1190741001628,None,976.1190741001628,None,976.1190741001628,None,976.1190741001628,None,976.1190741001628,None,976.1190741001628,None,976.1190741001628,None,976.1190741001628,None,976.1190741001628,None,48,31,49,90,90,65,978.6293998002075,None,3.0,1.3385567995719612,978.6293998002075,None,978.6293998002075,None,978.6293998002075,None,978.6293998002075,None,None,None,979.9868646003306,None,,,,,,,140,f,1,2022_Dec_13_1437,RL,2021.2.3,60.22122865147148,
1,110,0,110,0,,,,,,,,,,,,,,,None,None,None,None,None,981.8822089000605,None,981.8822089000605,None,981.8822089000605,None,981.8822089000605,None,j,0.2486811000853777,981.8822089000605,None,981.8822089000605,None,982.1589271002449,None,982.1589271002449,None,982.1589271002449,None,982.1589271002449,None,982.1589271002449,None,982.1589271002449,None,982.4476932003163,983.3283530999906,982.4476932003163,983.3283530999906,983.3492867001332,None,983.3492867001332,None,983.3492867001332,None,983.3492867001332,None,983.3492867001332,None,983.3492867001332,None,983.3492867001332,None,983.3492867001332,None,983.3492867001332,None,48,31,41,81,81,64,985.8582880999893,None,3.0,2.751974099781364,985.8582880999893,None,985.8582880999893,None,985.8582880999893,None,985.8582880999893,None,None,None,988.6299461000599,None,,,,,,,140,f,1,2022_Dec_13_1437,RL,2021.2.3,60.22122865147148,
1,111,0,111,0,,,,,,,,,,,,,,,None,None,None,None,None,990.6085802000016,None,990.6085802000016,None,990.6085802000016,None,990.6085802000016,None,j,0.5494869998656213,990.6085802000016,None,990.6085802000016,None,991.1881563002244,None,991.1881563002244,None,991.1881563002244,None,991.1881563002244,None,991.1881563002244,None,991.1881563002244,None,991.4733518003486,992.38697590027,991.4733518003486,992.38697590027,992.4071029000916,None,992.4071029000916,None,992.4071029000916,None,992.4071029000916,None,992.4071029000916,None,992.4071029000916,None,992.4071029000916,None,992.4071029000916,None,992.4071029000916,None,42,33,53,75,75,77,994.9167941003107,None,6.0,1.572262399829924,994.9167941003107,None,994.9167941003107,None,994.9167941003107,None,994.9167941003107,None,None,None,996.5083012999967,None,,,,,,,140,f,1,2022_Dec_13_1437,RL,2021.2.3,60.22122865147148,
