bandit,trials.thisRepN,trials.thisTrialN,trials.thisN,trials.thisIndex,instru_img1.started,instru_img1.stopped,instru_resp.keys,instru_resp.rt,instru_resp.started,instru_resp.stopped,instru_img2.started,instru_img2.stopped,instru_resp2.keys,instru_resp2.rt,instru_resp2.started,instru_resp2.stopped,fixbefore_2.started,fixbefore_2.stopped,rest_image.started,rest_image.stopped,rest_response.keys,rest_response.started,rest_response.stopped,red.started,red.stopped,green.started,green.stopped,yellow.started,yellow.stopped,blue.started,blue.stopped,choose_bandit.keys,choose_bandit.rt,choose_bandit.started,choose_bandit.stopped,Fixation.started,Fixation.stopped,black.started,black.stopped,red_2.started,red_2.stopped,green_2.started,green_2.stopped,yellow_2.started,yellow_2.stopped,blue_2.started,blue_2.stopped,fixation_2.started,fixation_2.stopped,docs.started,docs.stopped,image_2.started,image_2.stopped,black_com.started,black_com.stopped,reward_sub.started,reward_sub.stopped,palyerb.started,palyerb.stopped,reward__sub.started,reward__sub.stopped,compare.started,compare.stopped,red_compare.started,red_compare.stopped,green_com.started,green_com.stopped,yellow_com.started,yellow_com.stopped,blue_com.started,blue_com.stopped,rewardyellow,rewardred,rewardblue,rewardgreen,subchoose,playerb,image_3.started,image_3.stopped,slider.response,slider.rt,slider.started,slider.stopped,text.started,text.stopped,image_4.started,image_4.stopped,image_5.started,image_5.stopped,bigx.started,bigx.stopped,intertrialfix.started,intertrialfix.stopped,rest_response.rt,image.started,image.stopped,key_resp.keys,key_resp.started,key_resp.stopped,participant,Gender,Age,date,expName,psychopyVersion,frameRate,
,,,,,737.5127872000448,None,space,30.639659999869764,737.5127872000448,None,,,,,,,,,,,,,,,,,,,,,,,,,,,,,,,,,,,,,,,,,,,,,,,,,,,,,,,,,,,,,,,,,,,,,,,,,,,,,,,,,,,,,,,,,,141,f,1,2022_Dec_13_1541,RL,2021.2.3,59.913461035414265,
,,,,,,,,,,,768.1760662000161,None,space,50.829944600118324,768.1760662000161,None,,,,,,,,,,,,,,,,,,,,,,,,,,,,,,,,,,,,,,,,,,,,,,,,,,,,,,,,,,,,,,,,,,,,,,,,,,,,,,,,,,,,141,f,1,2022_Dec_13_1541,RL,2021.2.3,59.913461035414265,
1,0,0,0,0,,,,,,,,,,,,,819.0347551999148,None,None,None,None,None,None,820.0683232999872,None,820.0683232999872,None,820.0683232999872,None,820.0683232999872,None,r,0.3547622000332922,820.0683232999872,None,820.0683232999872,None,820.4754886000883,None,820.4754886000883,None,820.4754886000883,None,820.4754886000883,None,820.4754886000883,None,820.4754886000883,None,820.760406400077,822.6282876001205,820.760406400077,822.6282876001205,822.6750084999949,None,822.6750084999949,None,822.6750084999949,None,822.6750084999949,None,822.6750084999949,None,822.6750084999949,None,822.6750084999949,None,822.6750084999949,None,822.6750084999949,None,60,53,32,55,60,56,825.2056001999881,None,5.0,4.987106600077823,825.2056001999881,None,825.2056001999881,None,825.2056001999881,None,825.2056001999881,None,None,None,830.2314635999501,None,,,,,,,141,f,1,2022_Dec_13_1541,RL,2021.2.3,59.913461035414265,
1,1,0,1,0,,,,,,,,,,,,,,,None,None,None,None,None,832.0050135999918,None,832.0050135999918,None,832.0050135999918,None,832.0050135999918,None,i,0.6280734001193196,832.0050135999918,None,832.0050135999918,None,832.6741987999994,None,832.6741987999994,None,832.6741987999994,None,832.6741987999994,None,832.6741987999994,None,832.6741987999994,None,832.9688623000402,None,832.9688623000402,None,834.1871334000025,None,834.1871334000025,None,834.1871334000025,None,834.1871334000025,None,834.1871334000025,None,834.1871334000025,None,834.1871334000025,None,834.1871334000025,None,834.1871334000025,None,68,53,20,63,20,60,836.702454800019,None,3.0,4.341982900165021,836.702454800019,None,836.702454800019,None,836.702454800019,None,836.702454800019,None,None,None,841.0612343000248,None,,,,,,,141,f,1,2022_Dec_13_1541,RL,2021.2.3,59.913461035414265,
1,2,0,2,0,,,,,,,,,,,,,,,None,None,None,None,None,842.6787008000538,None,842.6787008000538,None,842.6787008000538,None,842.6787008000538,None,i,0.4242372999433428,842.6787008000538,None,842.6787008000538,None,843.1473842000123,None,843.1473842000123,None,843.1473842000123,None,843.1473842000123,None,843.1473842000123,None,843.1473842000123,None,843.4428383000195,844.5103064000141,843.4428383000195,844.5103064000141,844.5380929999519,None,844.5380929999519,None,844.5380929999519,None,844.5380929999519,None,844.5380929999519,None,844.5380929999519,None,844.5380929999519,None,844.5380929999519,None,844.5380929999519,None,57,50,26,65,26,66,847.057087100111,None,3.0,3.0906241999473423,847.057087100111,None,847.057087100111,None,847.057087100111,None,847.057087100111,None,None,None,850.1636624000967,None,,,,,,,141,f,1,2022_Dec_13_1541,RL,2021.2.3,59.913461035414265,
1,3,0,3,0,,,,,,,,,,,,,,,None,None,None,None,None,852.1520124000963,None,852.1520124000963,None,852.1520124000963,None,852.1520124000963,None,f,0.3612776999361813,852.1520124000963,None,852.1520124000963,None,852.5528118999209,None,852.5528118999209,None,852.5528118999209,None,852.5528118999209,None,852.5528118999209,None,852.5528118999209,None,852.8493997000623,None,852.8493997000623,None,853.7170744000468,None,853.7170744000468,None,853.7170744000468,None,853.7170744000468,None,853.7170744000468,None,853.7170744000468,None,853.7170744000468,None,853.7170744000468,None,853.7170744000468,None,70,54,21,71,54,56,856.2357093999162,None,3.0,2.952757100109011,856.2357093999162,None,856.2357093999162,None,856.2357093999162,None,856.2357093999162,None,None,None,859.2031590999104,None,,,,,,,141,f,1,2022_Dec_13_1541,RL,2021.2.3,59.913461035414265,
1,4,0,4,0,,,,,,,,,,,,,,,None,None,None,None,None,860.8745138000231,None,860.8745138000231,None,860.8745138000231,None,860.8745138000231,None,r,0.3187249000184238,860.8745138000231,None,860.8745138000231,None,861.2461254999507,None,861.2461254999507,None,861.2461254999507,None,861.2461254999507,None,861.2461254999507,None,861.2461254999507,None,861.522034100024,863.0396688999608,861.522034100024,863.0396688999608,863.0751414999831,None,863.0751414999831,None,863.0751414999831,None,863.0751414999831,None,863.0751414999831,None,863.0751414999831,None,863.0751414999831,None,863.0751414999831,None,863.0751414999831,None,59,51,29,66,59,51,865.5887519000098,None,5.0,5.48724739998579,865.5887519000098,None,865.5887519000098,None,865.5887519000098,None,865.5887519000098,None,None,None,871.0951082000975,None,,,,,,,141,f,1,2022_Dec_13_1541,RL,2021.2.3,59.913461035414265,
1,5,0,5,0,,,,,,,,,,,,,,,None,None,None,None,None,873.0632193998899,None,873.0632193998899,None,873.0632193998899,None,873.0632193998899,None,r,0.4199906999710947,873.0632193998899,None,873.0632193998899,None,873.5329577999655,None,873.5329577999655,None,873.5329577999655,None,873.5329577999655,None,873.5329577999655,None,873.5329577999655,None,873.8306706000585,None,873.8306706000585,None,874.744180599926,None,874.744180599926,None,874.744180599926,None,874.744180599926,None,874.744180599926,None,874.744180599926,None,874.744180599926,None,874.744180599926,None,874.744180599926,None,69,57,31,54,69,54,877.2645513999742,None,5.0,4.858068800065666,877.2645513999742,None,877.2645513999742,None,877.2645513999742,None,877.2645513999742,None,None,None,882.1359375999309,None,,,,,,,141,f,1,2022_Dec_13_1541,RL,2021.2.3,59.913461035414265,
1,6,0,6,0,,,,,,,,,,,,,,,None,None,None,None,None,884.0067378999665,None,884.0067378999665,None,884.0067378999665,None,884.0067378999665,None,j,0.3568070000037551,884.0067378999665,None,884.0067378999665,None,884.4092520000413,None,884.4092520000413,None,884.4092520000413,None,884.4092520000413,None,884.4092520000413,None,884.4092520000413,None,884.7048663999885,885.9055180000141,884.7048663999885,885.9055180000141,885.9360935001168,None,885.9360935001168,None,885.9360935001168,None,885.9360935001168,None,885.9360935001168,None,885.9360935001168,None,885.9360935001168,None,885.9360935001168,None,885.9360935001168,None,57,61,36,52,52,49,888.4545346999075,None,5.0,2.520754200173542,888.4545346999075,None,888.4545346999075,None,888.4545346999075,None,888.4545346999075,None,None,None,890.9918669001199,None,,,,,,,141,f,1,2022_Dec_13_1541,RL,2021.2.3,59.913461035414265,
1,7,0,7,0,,,,,,,,,,,,,,,None,None,None,None,None,892.8801003999542,None,892.8801003999542,None,892.8801003999542,None,892.8801003999542,None,r,0.38334190007299185,892.8801003999542,None,892.8801003999542,None,893.3157462999225,None,893.3157462999225,None,893.3157462999225,None,893.3157462999225,None,893.3157462999225,None,893.3157462999225,None,893.6109839000273,895.3955089000519,893.6109839000273,895.3955089000519,895.4305225000717,None,895.4305225000717,None,895.4305225000717,None,895.4305225000717,None,895.4305225000717,None,895.4305225000717,None,895.4305225000717,None,895.4305225000717,None,895.4305225000717,None,44,57,30,54,44,56,897.9432246000506,None,5.0,2.788690800080076,897.9432246000506,None,897.9432246000506,None,897.9432246000506,None,897.9432246000506,None,None,None,900.7487524000462,None,,,,,,,141,f,1,2022_Dec_13_1541,RL,2021.2.3,59.913461035414265,
1,8,0,8,0,,,,,,,,,,,,,,,None,None,None,None,None,902.4368809000589,None,902.4368809000589,None,902.4368809000589,None,902.4368809000589,None,j,0.7578361998312175,902.4368809000589,None,902.4368809000589,None,903.2394238999113,None,903.2394238999113,None,903.2394238999113,None,903.2394238999113,None,903.2394238999113,None,903.2394238999113,None,903.5344471998978,None,903.5344471998978,None,905.4105698999483,None,905.4105698999483,None,905.4105698999483,None,905.4105698999483,None,905.4105698999483,None,905.4105698999483,None,905.4105698999483,None,905.4105698999483,None,905.4105698999483,None,55,56,33,63,63,56,907.9330897000618,None,6.0,2.5569696000311524,907.9330897000618,None,907.9330897000618,None,907.9330897000618,None,907.9330897000618,None,None,None,910.5055670000147,None,,,,,,,141,f,1,2022_Dec_13_1541,RL,2021.2.3,59.913461035414265,
1,9,0,9,0,,,,,,,,,,,,,,,None,None,None,None,None,912.4100530000869,None,912.4100530000869,None,912.4100530000869,None,912.4100530000869,None,i,0.36468790005892515,912.4100530000869,None,912.4100530000869,None,912.8155594998971,None,912.8155594998971,None,912.8155594998971,None,912.8155594998971,None,912.8155594998971,None,912.8155594998971,None,913.1077608000487,914.6590382999275,913.1077608000487,914.6590382999275,914.6933577000163,None,914.6933577000163,None,914.6933577000163,None,914.6933577000163,None,914.6933577000163,None,914.6933577000163,None,914.6933577000163,None,914.6933577000163,None,914.6933577000163,None,53,51,33,53,33,58,917.2081156000495,None,2.0,2.506202599965036,917.2081156000495,None,917.2081156000495,None,917.2081156000495,None,917.2081156000495,None,None,None,919.7288248999976,None,,,,,,,141,f,1,2022_Dec_13_1541,RL,2021.2.3,59.913461035414265,
1,10,0,10,0,,,,,,,,,,,,,,,None,None,None,None,None,921.5499052999076,None,921.5499052999076,None,921.5499052999076,None,921.5499052999076,None,f,0.5046428998466581,921.5499052999076,None,921.5499052999076,None,922.1024869000539,None,922.1024869000539,None,922.1024869000539,None,922.1024869000539,None,922.1024869000539,None,922.1024869000539,None,922.3974858999718,None,922.3974858999718,None,923.5557013999205,None,923.5557013999205,None,923.5557013999205,None,923.5557013999205,None,923.5557013999205,None,923.5557013999205,None,923.5557013999205,None,923.5557013999205,None,923.5557013999205,None,46,54,31,69,54,47,926.0622441999149,None,5.0,3.441353099886328,926.0622441999149,None,926.0622441999149,None,926.0622441999149,None,926.0622441999149,None,None,None,929.5189980000723,None,,,,,,,141,f,1,2022_Dec_13_1541,RL,2021.2.3,59.913461035414265,
1,11,0,11,0,,,,,,,,,,,,,,,None,None,None,None,None,931.2234956999309,None,931.2234956999309,None,931.2234956999309,None,931.2234956999309,None,f,0.481086399871856,931.2234956999309,None,931.2234956999309,None,931.7431558999233,None,931.7431558999233,None,931.7431558999233,None,931.7431558999233,None,931.7431558999233,None,931.7431558999233,None,932.0378813000862,933.5719236999284,932.0378813000862,933.5719236999284,933.60387849994,None,933.60387849994,None,933.60387849994,None,933.60387849994,None,933.60387849994,None,933.60387849994,None,933.60387849994,None,933.60387849994,None,933.60387849994,None,40,54,43,61,54,59,936.122809200082,None,4.0,1.6388148001860827,936.122809200082,None,936.122809200082,None,936.122809200082,None,936.122809200082,None,None,None,937.774695900036,None,,,,,,,141,f,1,2022_Dec_13_1541,RL,2021.2.3,59.913461035414265,
1,12,0,12,0,,,,,,,,,,,,,,,None,None,None,None,None,939.66271100007,None,939.66271100007,None,939.66271100007,None,939.66271100007,None,r,0.7117530000396073,939.66271100007,None,939.66271100007,None,940.4156987001188,None,940.4156987001188,None,940.4156987001188,None,940.4156987001188,None,940.4156987001188,None,940.4156987001188,None,940.7106558000669,None,940.7106558000669,None,942.5926000000909,None,942.5926000000909,None,942.5926000000909,None,942.5926000000909,None,942.5926000000909,None,942.5926000000909,None,942.5926000000909,None,942.5926000000909,None,942.5926000000909,None,50,56,40,59,50,53,945.1113173000049,None,3.0,2.471788600087166,945.1113173000049,None,945.1113173000049,None,945.1113173000049,None,945.1113173000049,None,None,None,947.598477399908,None,,,,,,,141,f,1,2022_Dec_13_1541,RL,2021.2.3,59.913461035414265,
1,13,0,13,0,,,,,,,,,,,,,,,None,None,None,None,None,949.1522254999727,None,949.1522254999727,None,949.1522254999727,None,949.1522254999727,None,i,0.5325132000725716,949.1522254999727,None,949.1522254999727,None,949.7372912000865,None,949.7372912000865,None,949.7372912000865,None,949.7372912000865,None,949.7372912000865,None,949.7372912000865,None,950.0334411999211,None,950.0334411999211,None,951.9133804999292,None,951.9133804999292,None,951.9133804999292,None,951.9133804999292,None,951.9133804999292,None,951.9133804999292,None,951.9133804999292,None,951.9133804999292,None,951.9133804999292,None,42,50,35,59,35,41,954.4312662000302,None,2.0,2.0753441001288593,954.4312662000302,None,954.4312662000302,None,954.4312662000302,None,954.4312662000302,None,None,None,956.5235107000917,None,,,,,,,141,f,1,2022_Dec_13_1541,RL,2021.2.3,59.913461035414265,
1,14,0,14,0,,,,,,,,,,,,,,,None,None,None,None,None,958.4089047999587,None,958.4089047999587,None,958.4089047999587,None,958.4089047999587,None,i,0.4159202999435365,958.4089047999587,None,958.4089047999587,None,958.8786679999903,None,958.8786679999903,None,958.8786679999903,None,958.8786679999903,None,958.8786679999903,None,958.8786679999903,None,959.1732300999574,None,959.1732300999574,None,960.5881304999348,None,960.5881304999348,None,960.5881304999348,None,960.5881304999348,None,960.5881304999348,None,960.5881304999348,None,960.5881304999348,None,960.5881304999348,None,960.5881304999348,None,48,52,40,57,40,48,963.1044213001151,None,1.0,1.49113480001688,963.1044213001151,None,963.1044213001151,None,963.1044213001151,None,963.1044213001151,None,None,None,964.6147978000809,None,,,,,,,141,f,1,2022_Dec_13_1541,RL,2021.2.3,59.913461035414265,
1,15,0,15,0,,,,,,,,,,,,,,,None,None,None,None,None,966.4647146000061,None,966.4647146000061,None,966.4647146000061,None,966.4647146000061,None,f,0.42006599996238947,966.4647146000061,None,966.4647146000061,None,966.932259599911,None,966.932259599911,None,966.932259599911,None,966.932259599911,None,966.932259599911,None,966.932259599911,None,967.2290576000232,968.2291027000174,967.2290576000232,968.2291027000174,968.2664282000624,None,968.2664282000624,None,968.2664282000624,None,968.2664282000624,None,968.2664282000624,None,968.2664282000624,None,968.2664282000624,None,968.2664282000624,None,968.2664282000624,None,40,57,33,62,57,43,970.7950267998967,None,5.0,1.8874341000337154,970.7950267998967,None,970.7950267998967,None,970.7950267998967,None,970.7950267998967,None,None,None,972.6988393000793,None,,,,,,,141,f,1,2022_Dec_13_1541,RL,2021.2.3,59.913461035414265,
1,16,0,16,0,,,,,,,,,,,,,,,None,None,None,None,None,974.4865105999634,None,974.4865105999634,None,974.4865105999634,None,974.4865105999634,None,f,0.4183997998479754,974.4865105999634,None,974.4865105999634,None,974.9592422998976,None,974.9592422998976,None,974.9592422998976,None,974.9592422998976,None,974.9592422998976,None,974.9592422998976,None,975.2508733000141,None,975.2508733000141,None,976.6318838000298,None,976.6318838000298,None,976.6318838000298,None,976.6318838000298,None,976.6318838000298,None,976.6318838000298,None,976.6318838000298,None,976.6318838000298,None,976.6318838000298,None,44,55,41,57,55,54,979.1576185000595,None,5.0,5.4679243001155555,979.1576185000595,None,979.1576185000595,None,979.1576185000595,None,979.1576185000595,None,None,None,984.6402843999676,None,,,,,,,141,f,1,2022_Dec_13_1541,RL,2021.2.3,59.913461035414265,
1,17,0,17,0,,,,,,,,,,,,,,,None,None,None,None,None,986.4794733999297,None,986.4794733999297,None,986.4794733999297,None,986.4794733999297,None,r,0.9854385999497026,986.4794733999297,None,986.4794733999297,None,987.5130457000341,None,987.5130457000341,None,987.5130457000341,None,987.5130457000341,None,987.5130457000341,None,987.5130457000341,None,987.8095418000594,None,987.8095418000594,None,988.7894472999033,None,988.7894472999033,None,988.7894472999033,None,988.7894472999033,None,988.7894472999033,None,988.7894472999033,None,988.7894472999033,None,988.7894472999033,None,988.7894472999033,None,39,50,34,56,39,48,991.3071330001112,None,3.0,1.7399863998871297,991.3071330001112,None,991.3071330001112,None,991.3071330001112,None,991.3071330001112,None,None,None,993.0626020000782,None,,,,,,,141,f,1,2022_Dec_13_1541,RL,2021.2.3,59.913461035414265,
1,18,0,18,0,,,,,,,,,,,,,,,None,None,None,None,None,994.6001768999267,None,994.6001768999267,None,994.6001768999267,None,994.6001768999267,None,f,0.4548058998771012,994.6001768999267,None,994.6001768999267,None,995.1077368000988,None,995.1077368000988,None,995.1077368000988,None,995.1077368000988,None,995.1077368000988,None,995.1077368000988,None,995.3980421999004,996.382410600083,995.3980421999004,996.382410600083,996.4121105000377,None,996.4121105000377,None,996.4121105000377,None,996.4121105000377,None,996.4121105000377,None,996.4121105000377,None,996.4121105000377,None,996.4121105000377,None,996.4121105000377,None,35,52,43,57,52,51,998.9318411001004,None,5.0,2.171900700079277,998.9318411001004,None,998.9318411001004,None,998.9318411001004,None,998.9318411001004,None,None,None,1001.118499299977,None,,,,,,,141,f,1,2022_Dec_13_1541,RL,2021.2.3,59.913461035414265,
1,19,0,19,0,,,,,,,,,,,,,,,None,None,None,None,None,1003.022973400075,None,1003.022973400075,None,1003.022973400075,None,1003.022973400075,None,f,0.6020752999465913,1003.022973400075,None,1003.022973400075,None,1003.6766554999631,None,1003.6766554999631,None,1003.6766554999631,None,1003.6766554999631,None,1003.6766554999631,None,1003.6766554999631,None,1003.9710381000768,None,1003.9710381000768,None,1005.342389700003,None,1005.342389700003,None,1005.342389700003,None,1005.342389700003,None,1005.342389700003,None,1005.342389700003,None,1005.342389700003,None,1005.342389700003,None,1005.342389700003,None,47,41,24,60,41,52,1007.8552526999265,None,3.0,3.2228512999136,1007.8552526999265,None,1007.8552526999265,None,1007.8552526999265,None,1007.8552526999265,None,None,None,1011.0937902000733,None,,,,,,,141,f,1,2022_Dec_13_1541,RL,2021.2.3,59.913461035414265,
1,20,0,20,0,,,,,,,,,,,,,,,None,None,None,None,None,1012.8801293999422,None,1012.8801293999422,None,1012.8801293999422,None,1012.8801293999422,None,i,0.5750080000143498,1012.8801293999422,None,1012.8801293999422,None,1013.5009574000724,None,1013.5009574000724,None,1013.5009574000724,None,1013.5009574000724,None,1013.5009574000724,None,1013.5009574000724,None,1013.7943172000814,None,1013.7943172000814,None,1014.945766299963,None,1014.945766299963,None,1014.945766299963,None,1014.945766299963,None,1014.945766299963,None,1014.945766299963,None,1014.945766299963,None,1014.945766299963,None,1014.945766299963,None,42,53,21,58,21,55,1017.4599746000022,None,2.0,3.1740574999712408,1017.4599746000022,None,1017.4599746000022,None,1017.4599746000022,None,1017.4599746000022,None,None,None,1020.6487356999423,None,,,,,,,141,f,1,2022_Dec_13_1541,RL,2021.2.3,59.913461035414265,
1,21,0,21,0,,,,,,,,,,,,,,,None,None,None,None,None,1022.5201356001198,None,1022.5201356001198,None,1022.5201356001198,None,1022.5201356001198,None,i,0.6249971000943333,1022.5201356001198,None,1022.5201356001198,None,1023.1909044999629,None,1023.1909044999629,None,1023.1909044999629,None,1023.1909044999629,None,1023.1909044999629,None,1023.1909044999629,None,1023.4676922999788,1024.5348974000663,1023.4676922999788,1024.5348974000663,1024.573249900015,None,1024.573249900015,None,1024.573249900015,None,1024.573249900015,None,1024.573249900015,None,1024.573249900015,None,1024.573249900015,None,1024.573249900015,None,1024.573249900015,None,40,52,23,63,23,56,1027.0884082000703,None,1.0,1.9010038999840617,1027.0884082000703,None,1027.0884082000703,None,1027.0884082000703,None,1027.0884082000703,None,None,None,1029.004570200108,None,,,,,,,141,f,1,2022_Dec_13_1541,RL,2021.2.3,59.913461035414265,
1,22,0,22,0,,,,,,,,,,,,,,,None,None,None,None,None,1030.9585361001082,None,1030.9585361001082,None,1030.9585361001082,None,1030.9585361001082,None,f,0.7969615999609232,1030.9585361001082,None,1030.9585361001082,None,1031.7958885999396,None,1031.7958885999396,None,1031.7958885999396,None,1031.7958885999396,None,1031.7958885999396,None,1031.7958885999396,None,1032.0903898000252,None,1032.0903898000252,None,1033.4736250001006,None,1033.4736250001006,None,1033.4736250001006,None,1033.4736250001006,None,1033.4736250001006,None,1033.4736250001006,None,1033.4736250001006,None,1033.4736250001006,None,1033.4736250001006,None,42,50,24,54,50,52,1035.9908372999635,None,2.0,2.7561532999388874,1035.9908372999635,None,1035.9908372999635,None,1035.9908372999635,None,1035.9908372999635,None,None,None,1038.7704161999281,None,,,,,,,141,f,1,2022_Dec_13_1541,RL,2021.2.3,59.913461035414265,
1,23,0,23,0,,,,,,,,,,,,,,,None,None,None,None,None,1040.282103100093,None,1040.282103100093,None,1040.282103100093,None,1040.282103100093,None,r,0.6832508998923004,1040.282103100093,None,1040.282103100093,None,1041.0167869001161,None,1041.0167869001161,None,1041.0167869001161,None,1041.0167869001161,None,1041.0167869001161,None,1041.0167869001161,None,1041.3133356999606,1043.2980045999866,1041.3133356999606,1043.2980045999866,1043.3354140999727,None,1043.3354140999727,None,1043.3354140999727,None,1043.3354140999727,None,1043.3354140999727,None,1043.3354140999727,None,1043.3354140999727,None,1043.3354140999727,None,1043.3354140999727,None,43,46,21,67,43,50,1045.8479361000936,None,2.0,1.3205494999419898,1045.8479361000936,None,1045.8479361000936,None,1045.8479361000936,None,1045.8479361000936,None,None,None,1047.1877460998949,None,,,,,,,141,f,1,2022_Dec_13_1541,RL,2021.2.3,59.913461035414265,
1,24,0,24,0,,,,,,,,,,,,,,,None,None,None,None,None,1048.9381456000265,None,1048.9381456000265,None,1048.9381456000265,None,1048.9381456000265,None,f,0.5371409999206662,1048.9381456000265,None,1048.9381456000265,None,1049.5267922000494,None,1049.5267922000494,None,1049.5267922000494,None,1049.5267922000494,None,1049.5267922000494,None,1049.5267922000494,None,1049.8192390000913,None,1049.8192390000913,None,1051.0998072999064,None,1051.0998072999064,None,1051.0998072999064,None,1051.0998072999064,None,1051.0998072999064,None,1051.0998072999064,None,1051.0998072999064,None,1051.0998072999064,None,1051.0998072999064,None,47,42,19,69,42,59,1053.6223772000521,None,2.0,2.0192692999262363,1053.6223772000521,None,1053.6223772000521,None,1053.6223772000521,None,1053.6223772000521,None,None,None,1055.6561805000529,None,,,,,,,141,f,1,2022_Dec_13_1541,RL,2021.2.3,59.913461035414265,
1,25,0,25,0,,,,,,,,,,,,,,,None,None,None,None,None,1057.2272558999248,None,1057.2272558999248,None,1057.2272558999248,None,1057.2272558999248,None,None,,1057.2272558999248,None,1057.2272558999248,None,None,None,None,None,None,None,None,None,None,None,None,None,None,None,None,None,None,None,None,None,None,None,None,None,None,None,None,None,None,None,None,None,None,None,36,55,22,60,0,**,None,None,None,None,None,None,None,None,None,None,None,None,1058.7920454000123,None,1063.2951269999612,None,,,,,,,141,f,1,2022_Dec_13_1541,RL,2021.2.3,59.913461035414265,
1,26,0,26,0,,,,,,,,,,,,,,,None,None,None,None,None,1064.8661231999286,None,1064.8661231999286,None,1064.8661231999286,None,1064.8661231999286,None,r,0.4493633001111448,1064.8661231999286,None,1064.8661231999286,None,1065.3684841999784,None,1065.3684841999784,None,1065.3684841999784,None,1065.3684841999784,None,1065.3684841999784,None,1065.3684841999784,None,1065.6636349000037,1066.8476458999794,1065.6636349000037,1066.8476458999794,1066.8832626000512,None,1066.8832626000512,None,1066.8832626000512,None,1066.8832626000512,None,1066.8832626000512,None,1066.8832626000512,None,1066.8832626000512,None,1066.8832626000512,None,1066.8832626000512,None,49,48,25,66,49,39,1069.3957517999224,None,3.0,1.1560100000351667,1069.3957517999224,None,1069.3957517999224,None,1069.3957517999224,None,1069.3957517999224,None,None,None,1070.5667055998929,None,,,,,,,141,f,1,2022_Dec_13_1541,RL,2021.2.3,59.913461035414265,
1,27,0,27,0,,,,,,,,,,,,,,,None,None,None,None,None,1072.1202567999717,None,1072.1202567999717,None,1072.1202567999717,None,1072.1202567999717,None,r,0.40505599998869,1072.1202567999717,None,1072.1202567999717,None,1072.5752878000494,None,1072.5752878000494,None,1072.5752878000494,None,1072.5752878000494,None,1072.5752878000494,None,1072.5752878000494,None,1072.8519192999229,1073.8191519000102,1072.8519192999229,1073.8191519000102,1073.849117900012,None,1073.849117900012,None,1073.849117900012,None,1073.849117900012,None,1073.849117900012,None,1073.849117900012,None,1073.849117900012,None,1073.849117900012,None,1073.849117900012,None,46,48,19,72,46,58,1076.371276800055,None,3.0,1.5016969998832792,1076.371276800055,None,1076.371276800055,None,1076.371276800055,None,1076.371276800055,None,None,None,1077.8882371000946,None,,,,,,,141,f,1,2022_Dec_13_1541,RL,2021.2.3,59.913461035414265,
1,28,0,28,0,,,,,,,,,,,,,,,None,None,None,None,None,1079.426196699962,None,1079.426196699962,None,1079.426196699962,None,1079.426196699962,None,f,0.310308099957183,1079.426196699962,None,1079.426196699962,None,1079.778245399939,None,1079.778245399939,None,1079.778245399939,None,1079.778245399939,None,1079.778245399939,None,1079.778245399939,None,1080.0735792999621,None,1080.0735792999621,None,1081.0269897000398,None,1081.0269897000398,None,1081.0269897000398,None,1081.0269897000398,None,1081.0269897000398,None,1081.0269897000398,None,1081.0269897000398,None,1081.0269897000398,None,1081.0269897000398,None,41,43,23,71,43,43,1083.538704900071,None,3.0,1.0544638999272138,1083.538704900071,None,1083.538704900071,None,1083.538704900071,None,1083.538704900071,None,None,None,1084.6096594999544,None,,,,,,,141,f,1,2022_Dec_13_1541,RL,2021.2.3,59.913461035414265,
1,29,0,29,0,,,,,,,,,,,,,,,None,None,None,None,None,1086.5477400999516,None,1086.5477400999516,None,1086.5477400999516,None,1086.5477400999516,None,f,0.35892280004918575,1086.5477400999516,None,1086.5477400999516,None,1086.9486877999734,None,1086.9486877999734,None,1086.9486877999734,None,1086.9486877999734,None,1086.9486877999734,None,1086.9486877999734,None,1087.2451780999545,1089.1798096999992,1087.2451780999545,1089.1798096999992,1089.21285120002,None,1089.21285120002,None,1089.21285120002,None,1089.21285120002,None,1089.21285120002,None,1089.21285120002,None,1089.21285120002,None,1089.21285120002,None,1089.21285120002,None,40,36,32,78,36,48,1091.7275684000924,None,3.0,1.5046275998465717,1091.7275684000924,None,1091.7275684000924,None,1091.7275684000924,None,1091.7275684000924,None,None,None,1093.248930200003,None,,,,,,,141,f,1,2022_Dec_13_1541,RL,2021.2.3,59.913461035414265,
1,30,0,30,0,,,,,,,,,,,,,,,None,None,None,None,None,1095.1534132999368,None,1095.1534132999368,None,1095.1534132999368,None,1095.1534132999368,None,i,0.3731806001160294,1095.1534132999368,None,1095.1534132999368,None,1095.5748600000516,None,1095.5748600000516,None,1095.5748600000516,None,1095.5748600000516,None,1095.5748600000516,None,1095.5748600000516,None,1095.851186600048,1096.8684588000178,1095.851186600048,1096.8684588000178,1096.9181973999366,None,1096.9181973999366,None,1096.9181973999366,None,1096.9181973999366,None,1096.9181973999366,None,1096.9181973999366,None,1096.9181973999366,None,1096.9181973999366,None,1096.9181973999366,None,38,35,24,75,24,48,1099.4375348999165,None,1.0,1.38481909991242,1099.4375348999165,None,1099.4375348999165,None,1099.4375348999165,None,1099.4375348999165,None,None,None,1100.8374377000146,None,,,,,,,141,f,1,2022_Dec_13_1541,RL,2021.2.3,59.913461035414265,
1,31,0,31,0,,,,,,,,,,,,,,,None,None,None,None,None,1102.6084215000737,None,1102.6084215000737,None,1102.6084215000737,None,1102.6084215000737,None,j,0.448399499990046,1102.6084215000737,None,1102.6084215000737,None,1103.0967306001112,None,1103.0967306001112,None,1103.0967306001112,None,1103.0967306001112,None,1103.0967306001112,None,1103.0967306001112,None,1103.3730842000805,1104.957322299946,1103.3730842000805,1104.957322299946,1104.992284799926,None,1104.992284799926,None,1104.992284799926,None,1104.992284799926,None,1104.992284799926,None,1104.992284799926,None,1104.992284799926,None,1104.992284799926,None,1104.992284799926,None,43,42,31,74,74,51,1107.5042628000956,None,5.0,1.740789399947971,1107.5042628000956,None,1107.5042628000956,None,1107.5042628000956,None,1107.5042628000956,None,None,None,1109.2637134999968,None,,,,,,,141,f,1,2022_Dec_13_1541,RL,2021.2.3,59.913461035414265,
1,32,0,32,0,,,,,,,,,,,,,,,None,None,None,None,None,1110.9979918999597,None,1110.9979918999597,None,1110.9979918999597,None,1110.9979918999597,None,j,0.4986128001473844,1110.9979918999597,None,1110.9979918999597,None,1111.5527759001125,None,1111.5527759001125,None,1111.5527759001125,None,1111.5527759001125,None,1111.5527759001125,None,1111.5527759001125,None,1111.845587800024,1112.946222800063,1111.845587800024,1112.946222800063,1112.9758421999868,None,1112.9758421999868,None,1112.9758421999868,None,1112.9758421999868,None,1112.9758421999868,None,1112.9758421999868,None,1112.9758421999868,None,1112.9758421999868,None,1112.9758421999868,None,46,41,34,76,76,47,1115.4951122000348,None,6.0,2.189344699960202,1115.4951122000348,None,1115.4951122000348,None,1115.4951122000348,None,1115.4951122000348,None,None,None,1117.6991393999197,None,,,,,,,141,f,1,2022_Dec_13_1541,RL,2021.2.3,59.913461035414265,
1,33,0,33,0,,,,,,,,,,,,,,,None,None,None,None,None,1119.3870214999188,None,1119.3870214999188,None,1119.3870214999188,None,1119.3870214999188,None,j,0.24955320009030402,1119.3870214999188,None,1119.3870214999188,None,1119.6926631999668,None,1119.6926631999668,None,1119.6926631999668,None,1119.6926631999668,None,1119.6926631999668,None,1119.6926631999668,None,1119.9845634000376,None,1119.9845634000376,None,1121.7675640999805,None,1121.7675640999805,None,1121.7675640999805,None,1121.7675640999805,None,1121.7675640999805,None,1121.7675640999805,None,1121.7675640999805,None,1121.7675640999805,None,1121.7675640999805,None,49,43,28,88,88,50,1124.284926299937,None,7.0,1.086133300093934,1124.284926299937,None,1124.284926299937,None,1124.284926299937,None,1124.284926299937,None,None,None,1125.3880016000476,None,,,,,,,141,f,1,2022_Dec_13_1541,RL,2021.2.3,59.913461035414265,
1,34,0,34,0,,,,,,,,,,,,,,,None,None,None,None,None,1127.2588982000016,None,1127.2588982000016,None,1127.2588982000016,None,1127.2588982000016,None,j,0.5379647999070585,1127.2588982000016,None,1127.2588982000016,None,1127.845747299958,None,1127.845747299958,None,1127.845747299958,None,1127.845747299958,None,1127.845747299958,None,1127.845747299958,None,1128.1401488000993,None,1128.1401488000993,None,1129.0051025000867,None,1129.0051025000867,None,1129.0051025000867,None,1129.0051025000867,None,1129.0051025000867,None,1129.0051025000867,None,1129.0051025000867,None,1129.0051025000867,None,1129.0051025000867,None,53,37,32,74,74,44,1131.531254600035,None,7.0,2.2841642000712454,1131.531254600035,None,1131.531254600035,None,1131.531254600035,None,1131.531254600035,None,None,None,1133.8270103000104,None,,,,,,,141,f,1,2022_Dec_13_1541,RL,2021.2.3,59.913461035414265,
1,35,0,35,0,,,,,,,,,,,,,,,None,None,None,None,None,1135.4646854000166,None,1135.4646854000166,None,1135.4646854000166,None,1135.4646854000166,None,j,0.24215289996936917,1135.4646854000166,None,1135.4646854000166,None,1135.7555931999814,None,1135.7555931999814,None,1135.7555931999814,None,1135.7555931999814,None,1135.7555931999814,None,1135.7555931999814,None,1136.045685699908,1137.363132199971,1136.045685699908,1137.363132199971,1137.3953197998926,None,1137.3953197998926,None,1137.3953197998926,None,1137.3953197998926,None,1137.3953197998926,None,1137.3953197998926,None,1137.3953197998926,None,1137.3953197998926,None,1137.3953197998926,None,42,45,29,73,73,37,1139.911467100028,None,7.0,0.8882755001541227,1139.911467100028,None,1139.911467100028,None,1139.911467100028,None,1139.911467100028,None,None,None,1140.8150824999902,None,,,,,,,141,f,1,2022_Dec_13_1541,RL,2021.2.3,59.913461035414265,
1,36,0,36,0,,,,,,,,,,,,,,,None,None,None,None,None,1142.5197827001102,None,1142.5197827001102,None,1142.5197827001102,None,1142.5197827001102,None,j,0.507158099906519,1142.5197827001102,None,1142.5197827001102,None,1143.0736636999063,None,1143.0736636999063,None,1143.0736636999063,None,1143.0736636999063,None,1143.0736636999063,None,1143.0736636999063,None,1143.3673268998973,None,1143.3673268998973,None,1144.5452725000214,None,1144.5452725000214,None,1144.5452725000214,None,1144.5452725000214,None,1144.5452725000214,None,1144.5452725000214,None,1144.5452725000214,None,1144.5452725000214,None,1144.5452725000214,None,42,39,35,78,78,41,1147.0656049998943,None,7.0,1.7060041001532227,1147.0656049998943,None,1147.0656049998943,None,1147.0656049998943,None,1147.0656049998943,None,None,None,1148.7875743000768,None,,,,,,,141,f,1,2022_Dec_13_1541,RL,2021.2.3,59.913461035414265,
1,37,0,37,0,,,,,,,,,,,,,,,None,None,None,None,None,1150.4747526999563,None,1150.4747526999563,None,1150.4747526999563,None,1150.4747526999563,None,j,0.7721206999849528,1150.4747526999563,None,1150.4747526999563,None,1151.29466470005,None,1151.29466470005,None,1151.29466470005,None,1151.29466470005,None,1151.29466470005,None,1151.29466470005,None,1151.5898955999874,None,1151.5898955999874,None,1152.4370502999518,None,1152.4370502999518,None,1152.4370502999518,None,1152.4370502999518,None,1152.4370502999518,None,1152.4370502999518,None,1152.4370502999518,None,1152.4370502999518,None,1152.4370502999518,None,41,40,24,65,65,36,1154.943774699932,None,7.0,1.01575249992311,1154.943774699932,None,1154.943774699932,None,1154.943774699932,None,1154.943774699932,None,None,None,1155.9757974001113,None,,,,,,,141,f,1,2022_Dec_13_1541,RL,2021.2.3,59.913461035414265,
1,38,0,38,0,,,,,,,,,,,,,,,None,None,None,None,None,1157.8969352999702,None,1157.8969352999702,None,1157.8969352999702,None,1157.8969352999702,None,j,0.4800732999574393,1157.8969352999702,None,1157.8969352999702,None,1158.416634599911,None,1158.416634599911,None,1158.416634599911,None,1158.416634599911,None,1158.416634599911,None,1158.416634599911,None,1158.7113659000024,None,1158.7113659000024,None,1160.249209600035,None,1160.249209600035,None,1160.249209600035,None,1160.249209600035,None,1160.249209600035,None,1160.249209600035,None,1160.249209600035,None,1160.249209600035,None,1160.249209600035,None,42,37,29,68,68,34,1162.7622167998925,None,6.0,3.6055338999722153,1162.7622167998925,None,1162.7622167998925,None,1162.7622167998925,None,1162.7622167998925,None,None,None,1166.383228499908,None,,,,,,,141,f,1,2022_Dec_13_1541,RL,2021.2.3,59.913461035414265,
1,39,0,39,0,,,,,,,,,,,,,,,None,None,None,None,None,1167.9374257999007,None,1167.9374257999007,None,1167.9374257999007,None,1167.9374257999007,None,j,0.2997793999966234,1167.9374257999007,None,1167.9374257999007,None,1168.299156599911,None,1168.299156599911,None,1168.299156599911,None,1168.299156599911,None,1168.299156599911,None,1168.299156599911,None,1168.584745200118,1170.4526887000538,1168.584745200118,1170.4526887000538,1170.4847629999276,None,1170.4847629999276,None,1170.4847629999276,None,1170.4847629999276,None,1170.4847629999276,None,1170.4847629999276,None,1170.4847629999276,None,1170.4847629999276,None,1170.4847629999276,None,43,43,15,78,78,49,1173.0001385998912,None,6.0,2.9059549998492002,1173.0001385998912,None,1173.0001385998912,None,1173.0001385998912,None,1173.0001385998912,None,None,None,1175.9232308999635,None,,,,,,,141,f,1,2022_Dec_13_1541,RL,2021.2.3,59.913461035414265,
1,40,0,40,0,,,,,,,,,,,,,,,None,None,None,None,None,1177.6278341999277,None,1177.6278341999277,None,1177.6278341999277,None,1177.6278341999277,None,j,0.26907129981555045,1177.6278341999277,None,1177.6278341999277,None,1177.9510041999165,None,1177.9510041999165,None,1177.9510041999165,None,1177.9510041999165,None,1177.9510041999165,None,1177.9510041999165,None,1178.2415781999007,None,1178.2415781999007,None,1180.1397643999662,None,1180.1397643999662,None,1180.1397643999662,None,1180.1397643999662,None,1180.1397643999662,None,1180.1397643999662,None,1180.1397643999662,None,1180.1397643999662,None,1180.1397643999662,None,46,45,21,74,74,46,1182.6626009000465,None,7.0,1.9677310001570731,1182.6626009000465,None,1182.6626009000465,None,1182.6626009000465,None,1182.6626009000465,None,None,None,1184.6454900000244,None,,,,,,,141,f,1,2022_Dec_13_1541,RL,2021.2.3,59.913461035414265,
1,41,0,41,0,,,,,,,,,,,,,,,None,None,None,None,None,1186.1654960000888,None,1186.1654960000888,None,1186.1654960000888,None,1186.1654960000888,None,j,0.3413414000533521,1186.1654960000888,None,1186.1654960000888,None,1186.556729099946,None,1186.556729099946,None,1186.556729099946,None,1186.556729099946,None,1186.556729099946,None,1186.556729099946,None,1186.8476287000813,1187.6814133001026,1186.8476287000813,1187.6814133001026,1187.7137909999583,None,1187.7137909999583,None,1187.7137909999583,None,1187.7137909999583,None,1187.7137909999583,None,1187.7137909999583,None,1187.7137909999583,None,1187.7137909999583,None,1187.7137909999583,None,33,44,23,72,72,37,1190.2365031000227,None,7.0,1.017875700024888,1190.2365031000227,None,1190.2365031000227,None,1190.2365031000227,None,1190.2365031000227,None,None,None,1191.2709739999846,None,,,,,,,141,f,1,2022_Dec_13_1541,RL,2021.2.3,59.913461035414265,
1,42,0,42,0,,,,,,,,,,,,,,,None,None,None,None,None,1193.1550505000632,None,1193.1550505000632,None,1193.1550505000632,None,1193.1550505000632,None,j,0.2719779000617564,1193.1550505000632,None,1193.1550505000632,None,1193.4735499001108,None,1193.4735499001108,None,1193.4735499001108,None,1193.4735499001108,None,1193.4735499001108,None,1193.4735499001108,None,1193.769060099963,1195.120166100096,1193.769060099963,1195.120166100096,1195.1552448999137,None,1195.1552448999137,None,1195.1552448999137,None,1195.1552448999137,None,1195.1552448999137,None,1195.1552448999137,None,1195.1552448999137,None,1195.1552448999137,None,1195.1552448999137,None,48,36,30,70,70,50,1197.671927700052,None,7.0,1.2344173998571932,1197.671927700052,None,1197.671927700052,None,1197.671927700052,None,1197.671927700052,None,None,None,1198.9289178000763,None,,,,,,,141,f,1,2022_Dec_13_1541,RL,2021.2.3,59.913461035414265,
1,43,0,43,0,,,,,,,,,,,,,,,None,None,None,None,None,1200.8435537000187,None,1200.8435537000187,None,1200.8435537000187,None,1200.8435537000187,None,r,0.46389400004409254,1200.8435537000187,None,1200.8435537000187,None,1201.3462269001175,None,1201.3462269001175,None,1201.3462269001175,None,1201.3462269001175,None,1201.3462269001175,None,1201.3462269001175,None,1201.6411790999118,None,1201.6411790999118,None,1202.9042034000158,None,1202.9042034000158,None,1202.9042034000158,None,1202.9042034000158,None,1202.9042034000158,None,1202.9042034000158,None,1202.9042034000158,None,1202.9042034000158,None,1202.9042034000158,None,40,48,34,66,40,57,1205.4309757999144,None,2.0,1.1820258998777717,1205.4309757999144,None,1205.4309757999144,None,1205.4309757999144,None,1205.4309757999144,None,None,None,1206.6274031000212,None,,,,,,,141,f,1,2022_Dec_13_1541,RL,2021.2.3,59.913461035414265,
1,44,0,44,0,,,,,,,,,,,,,,,None,None,None,None,None,1208.548834899906,None,1208.548834899906,None,1208.548834899906,None,1208.548834899906,None,j,0.33839279995299876,1208.548834899906,None,1208.548834899906,None,1208.9383553999942,None,1208.9383553999942,None,1208.9383553999942,None,1208.9383553999942,None,1208.9383553999942,None,1208.9383553999942,None,1209.230033100117,None,1209.230033100117,None,1210.3603648999706,None,1210.3603648999706,None,1210.3603648999706,None,1210.3603648999706,None,1210.3603648999706,None,1210.3603648999706,None,1210.3603648999706,None,1210.3603648999706,None,1210.3603648999706,None,49,39,24,59,59,61,1212.8789246000815,None,2.0,3.8073813999071717,1212.8789246000815,None,1212.8789246000815,None,1212.8789246000815,None,1212.8789246000815,None,None,None,1216.7097110000905,None,,,,,,,141,f,1,2022_Dec_13_1541,RL,2021.2.3,59.913461035414265,
1,45,0,45,0,,,,,,,,,,,,,,,None,None,None,None,None,1218.489356199978,None,1218.489356199978,None,1218.489356199978,None,1218.489356199978,None,j,0.42795610008761287,1218.489356199978,None,1218.489356199978,None,1218.9580596000887,None,1218.9580596000887,None,1218.9580596000887,None,1218.9580596000887,None,1218.9580596000887,None,1218.9580596000887,None,1219.25332899997,None,1219.25332899997,None,1221.0296865999699,None,1221.0296865999699,None,1221.0296865999699,None,1221.0296865999699,None,1221.0296865999699,None,1221.0296865999699,None,1221.0296865999699,None,1221.0296865999699,None,1221.0296865999699,None,40,38,35,59,59,56,1223.5540316998959,None,4.0,1.653619799995795,1223.5540316998959,None,1223.5540316998959,None,1223.5540316998959,None,1223.5540316998959,None,None,None,1225.2307998999022,None,,,,,,,141,f,1,2022_Dec_13_1541,RL,2021.2.3,59.913461035414265,
1,46,0,46,0,,,,,,,,,,,,,,,None,None,None,None,None,1227.062529799994,None,1227.062529799994,None,1227.062529799994,None,1227.062529799994,None,j,0.5845401000697166,1227.062529799994,None,1227.062529799994,None,1227.697969000088,None,1227.697969000088,None,1227.697969000088,None,1227.697969000088,None,1227.697969000088,None,1227.697969000088,None,1227.9927191000897,None,1227.9927191000897,None,1229.210464600008,None,1229.210464600008,None,1229.210464600008,None,1229.210464600008,None,1229.210464600008,None,1229.210464600008,None,1229.210464600008,None,1229.210464600008,None,1229.210464600008,None,44,37,31,75,75,53,1231.729888800066,None,6.0,2.2693437999114394,1231.729888800066,None,1231.729888800066,None,1231.729888800066,None,1231.729888800066,None,None,None,1234.0234272999223,None,,,,,,,141,f,1,2022_Dec_13_1541,RL,2021.2.3,59.913461035414265,
1,47,0,47,0,,,,,,,,,,,,,,,None,None,None,None,None,1235.7357167000882,None,1235.7357167000882,None,1235.7357167000882,None,1235.7357167000882,None,j,0.2716055999044329,1235.7357167000882,None,1235.7357167000882,None,1236.0566914998926,None,1236.0566914998926,None,1236.0566914998926,None,1236.0566914998926,None,1236.0566914998926,None,1236.0566914998926,None,1236.3485711999238,1237.832802799996,1236.3485711999238,1237.832802799996,1237.8646764999721,None,1237.8646764999721,None,1237.8646764999721,None,1237.8646764999721,None,1237.8646764999721,None,1237.8646764999721,None,1237.8646764999721,None,1237.8646764999721,None,1237.8646764999721,None,42,38,33,69,69,43,1240.3913459999021,None,6.0,1.2152759002055973,1240.3913459999021,None,1240.3913459999021,None,1240.3913459999021,None,1240.3913459999021,None,None,None,1241.6187231000513,None,,,,,,,141,f,1,2022_Dec_13_1541,RL,2021.2.3,59.913461035414265,
1,48,0,48,0,,,,,,,,,,,,,,,None,None,None,None,None,1243.5401351000182,None,1243.5401351000182,None,1243.5401351000182,None,1243.5401351000182,None,j,0.27833110000938177,1243.5401351000182,None,1243.5401351000182,None,1243.8605102000292,None,1243.8605102000292,None,1243.8605102000292,None,1243.8605102000292,None,1243.8605102000292,None,1243.8605102000292,None,1244.1540234000422,None,1244.1540234000422,None,1245.6239992999472,None,1245.6239992999472,None,1245.6239992999472,None,1245.6239992999472,None,1245.6239992999472,None,1245.6239992999472,None,1245.6239992999472,None,1245.6239992999472,None,1245.6239992999472,None,41,29,31,68,68,55,1248.135488400003,None,7.0,1.3048908999189734,1248.135488400003,None,1248.135488400003,None,1248.135488400003,None,1248.135488400003,None,None,None,1249.457008199999,None,,,,,,,141,f,1,2022_Dec_13_1541,RL,2021.2.3,59.913461035414265,
1,49,0,49,0,,,,,,,,,,,,,,,None,None,None,None,None,1251.011400300078,None,1251.011400300078,None,1251.011400300078,None,1251.011400300078,None,j,0.4070447999984026,1251.011400300078,None,1251.011400300078,None,1251.470236599911,None,1251.470236599911,None,1251.470236599911,None,1251.470236599911,None,1251.470236599911,None,1251.470236599911,None,1251.7594856000505,None,1251.7594856000505,None,1252.6240048001055,None,1252.6240048001055,None,1252.6240048001055,None,1252.6240048001055,None,1252.6240048001055,None,1252.6240048001055,None,1252.6240048001055,None,1252.6240048001055,None,1252.6240048001055,None,49,35,33,65,65,63,1255.1433699000627,None,6.0,1.3197357000317425,1255.1433699000627,None,1255.1433699000627,None,1255.1433699000627,None,1255.1433699000627,None,None,None,1256.478588399943,None,,,,,,,141,f,1,2022_Dec_13_1541,RL,2021.2.3,59.913461035414265,
1,50,0,50,0,,,,,,,,,,,,,,,None,None,None,None,None,1257.9997415000107,None,1257.9997415000107,None,1257.9997415000107,None,1257.9997415000107,None,j,0.4086508001200855,1257.9997415000107,None,1257.9997415000107,None,1258.4523954000324,None,1258.4523954000324,None,1258.4523954000324,None,1258.4523954000324,None,1258.4523954000324,None,1258.4523954000324,None,1258.7474487998988,None,1258.7474487998988,None,1259.7124673000071,None,1259.7124673000071,None,1259.7124673000071,None,1259.7124673000071,None,1259.7124673000071,None,1259.7124673000071,None,1259.7124673000071,None,1259.7124673000071,None,1259.7124673000071,None,44,32,37,70,70,58,1262.2288095001131,None,7.0,1.1724799999501556,1262.2288095001131,None,1262.2288095001131,None,1262.2288095001131,None,1262.2288095001131,None,None,None,1263.4171053001191,None,,,,,,,141,f,1,2022_Dec_13_1541,RL,2021.2.3,59.913461035414265,
1,51,0,51,0,,,,,,,,,,,,,,,None,None,None,None,None,1265.0882216999307,None,1265.0882216999307,None,1265.0882216999307,None,1265.0882216999307,None,j,0.430582000175491,1265.0882216999307,None,1265.0882216999307,None,1265.5574030000716,None,1265.5574030000716,None,1265.5574030000716,None,1265.5574030000716,None,1265.5574030000716,None,1265.5574030000716,None,1265.8524412000552,None,1265.8524412000552,None,1267.723939599935,None,1267.723939599935,None,1267.723939599935,None,1267.723939599935,None,1267.723939599935,None,1267.723939599935,None,1267.723939599935,None,1267.723939599935,None,1267.723939599935,None,34,37,32,65,65,62,1270.2352316000033,None,7.0,2.18977260007523,1270.2352316000033,None,1270.2352316000033,None,1270.2352316000033,None,1270.2352316000033,None,None,None,1272.439665199956,None,,,,,,,141,f,1,2022_Dec_13_1541,RL,2021.2.3,59.913461035414265,
1,52,0,52,0,,,,,,,,,,,,,,,None,None,None,None,None,1274.32733869995,None,1274.32733869995,None,1274.32733869995,None,1274.32733869995,None,j,0.3414350999519229,1274.32733869995,None,1274.32733869995,None,1274.7141909999773,None,1274.7141909999773,None,1274.7141909999773,None,1274.7141909999773,None,1274.7141909999773,None,1274.7141909999773,None,1275.008658299921,None,1275.008658299921,None,1276.644034900004,None,1276.644034900004,None,1276.644034900004,None,1276.644034900004,None,1276.644034900004,None,1276.644034900004,None,1276.644034900004,None,1276.644034900004,None,1276.644034900004,None,30,29,28,73,73,66,1279.1587787000462,None,5.0,0.9881714000366628,1279.1587787000462,None,1279.1587787000462,None,1279.1587787000462,None,1279.1587787000462,None,None,None,1280.1705191999208,None,,,,,,,141,f,1,2022_Dec_13_1541,RL,2021.2.3,59.913461035414265,
1,53,0,53,0,,,,,,,,,,,,,,,None,None,None,None,None,1282.0491808999795,None,1282.0491808999795,None,1282.0491808999795,None,1282.0491808999795,None,j,0.2892116999719292,1282.0491808999795,None,1282.0491808999795,None,1282.3870540999342,None,1282.3870540999342,None,1282.3870540999342,None,1282.3870540999342,None,1282.3870540999342,None,1282.3870540999342,None,1282.6643026999664,1283.8812665001024,1282.6643026999664,1283.8812665001024,1283.9616368999705,None,1283.9616368999705,None,1283.9616368999705,None,1283.9616368999705,None,1283.9616368999705,None,1283.9616368999705,None,1283.9616368999705,None,1283.9616368999705,None,1283.9616368999705,None,34,33,35,65,65,39,1286.4367023999803,None,6.0,1.448076399974525,1286.4367023999803,None,1286.4367023999803,None,1286.4367023999803,None,1286.4367023999803,None,None,None,1287.9005162999965,None,,,,,,,141,f,1,2022_Dec_13_1541,RL,2021.2.3,59.913461035414265,
1,54,0,54,0,,,,,,,,,,,,,,,None,None,None,None,None,1289.6215395000763,None,1289.6215395000763,None,1289.6215395000763,None,1289.6215395000763,None,j,0.2870400999672711,1289.6215395000763,None,1289.6215395000763,None,1289.9586191000417,None,1289.9586191000417,None,1289.9586191000417,None,1289.9586191000417,None,1289.9586191000417,None,1289.9586191000417,None,1290.2526561999694,None,1290.2526561999694,None,1291.8183136000298,None,1291.8183136000298,None,1291.8183136000298,None,1291.8183136000298,None,1291.8183136000298,None,1291.8183136000298,None,1291.8183136000298,None,1291.8183136000298,None,1291.8183136000298,None,35,18,22,58,58,65,1294.3351712001022,None,4.0,0.8566523999907076,1294.3351712001022,None,1294.3351712001022,None,1294.3351712001022,None,1294.3351712001022,None,None,None,1295.2056364999153,None,,,,,,,141,f,1,2022_Dec_13_1541,RL,2021.2.3,59.913461035414265,
1,55,0,55,0,,,,,,,,,,,,,,,None,None,None,None,None,1296.7754538001027,None,1296.7754538001027,None,1296.7754538001027,None,1296.7754538001027,None,j,0.33313469984568655,1296.7754538001027,None,1296.7754538001027,None,1297.1673894000705,None,1297.1673894000705,None,1297.1673894000705,None,1297.1673894000705,None,1297.1673894000705,None,1297.1673894000705,None,1297.4576244000345,1298.841811500024,1297.4576244000345,1298.841811500024,1298.8723305000458,None,1298.8723305000458,None,1298.8723305000458,None,1298.8723305000458,None,1298.8723305000458,None,1298.8723305000458,None,1298.8723305000458,None,1298.8723305000458,None,1298.8723305000458,None,42,18,35,60,60,52,1301.3898002998903,None,5.0,0.5203547000419348,1301.3898002998903,None,1301.3898002998903,None,1301.3898002998903,None,1301.3898002998903,None,None,None,1301.9266949999146,None,,,,,,,141,f,1,2022_Dec_13_1541,RL,2021.2.3,59.913461035414265,
1,56,0,56,0,,,,,,,,,,,,,,,None,None,None,None,None,1303.6983572000172,None,1303.6983572000172,None,1303.6983572000172,None,1303.6983572000172,None,j,0.3604499001521617,1303.6983572000172,None,1303.6983572000172,None,1304.1007654001005,None,1304.1007654001005,None,1304.1007654001005,None,1304.1007654001005,None,1304.1007654001005,None,1304.1007654001005,None,1304.3957535000518,None,1304.3957535000518,None,1305.4788893999066,None,1305.4788893999066,None,1305.4788893999066,None,1305.4788893999066,None,1305.4788893999066,None,1305.4788893999066,None,1305.4788893999066,None,1305.4788893999066,None,1305.4788893999066,None,44,18,33,62,62,54,1307.9939480000176,None,6.0,0.7881522001698613,1307.9939480000176,None,1307.9939480000176,None,1307.9939480000176,None,1307.9939480000176,None,None,None,1308.7983256001025,None,,,,,,,141,f,1,2022_Dec_13_1541,RL,2021.2.3,59.913461035414265,
1,57,0,57,0,,,,,,,,,,,,,,,None,None,None,None,None,1310.635848700069,None,1310.635848700069,None,1310.635848700069,None,1310.635848700069,None,j,0.37321570003405213,1310.635848700069,None,1310.635848700069,None,1311.0568168999162,None,1311.0568168999162,None,1311.0568168999162,None,1311.0568168999162,None,1311.0568168999162,None,1311.0568168999162,None,1311.350471700076,None,1311.350471700076,None,1313.1308649999555,None,1313.1308649999555,None,1313.1308649999555,None,1313.1308649999555,None,1313.1308649999555,None,1313.1308649999555,None,1313.1308649999555,None,1313.1308649999555,None,1313.1308649999555,None,33,20,35,67,67,65,1315.649647400016,None,6.0,0.6362103999126703,1315.649647400016,None,1315.649647400016,None,1315.649647400016,None,1315.649647400016,None,None,None,1316.3034073999152,None,,,,,,,141,f,1,2022_Dec_13_1541,RL,2021.2.3,59.913461035414265,
1,58,0,58,0,,,,,,,,,,,,,,,None,None,None,None,None,1318.2249046999495,None,1318.2249046999495,None,1318.2249046999495,None,1318.2249046999495,None,j,0.3339403001591563,1318.2249046999495,None,1318.2249046999495,None,1318.6097234000918,None,1318.6097234000918,None,1318.6097234000918,None,1318.6097234000918,None,1318.6097234000918,None,1318.6097234000918,None,1318.9057589001022,None,1318.9057589001022,None,1320.1513849000912,None,1320.1513849000912,None,1320.1513849000912,None,1320.1513849000912,None,1320.1513849000912,None,1320.1513849000912,None,1320.1513849000912,None,1320.1513849000912,None,1320.1513849000912,None,42,28,29,61,61,59,1322.6708070999011,None,7.0,1.3079524000640959,1322.6708070999011,None,1322.6708070999011,None,1322.6708070999011,None,1322.6708070999011,None,None,None,1324.0048189000227,None,,,,,,,141,f,1,2022_Dec_13_1541,RL,2021.2.3,59.913461035414265,
1,59,0,59,0,,,,,,,,,,,,,,,None,None,None,None,None,1325.5295180999674,None,1325.5295180999674,None,1325.5295180999674,None,1325.5295180999674,None,j,0.4094895999878645,1325.5295180999674,None,1325.5295180999674,None,1325.9808898000047,None,1325.9808898000047,None,1325.9808898000047,None,1325.9808898000047,None,1325.9808898000047,None,1325.9808898000047,None,1326.2777054999024,1327.5282322000712,1326.2777054999024,1327.5282322000712,1327.560372600099,None,1327.560372600099,None,1327.560372600099,None,1327.560372600099,None,1327.560372600099,None,1327.560372600099,None,1327.560372600099,None,1327.560372600099,None,1327.560372600099,None,36,25,26,63,63,69,1330.0755664000753,None,5.0,0.640643100021407,1330.0755664000753,None,1330.0755664000753,None,1330.0755664000753,None,1330.0755664000753,None,None,None,1330.731965099927,None,,,,,,,141,f,1,2022_Dec_13_1541,RL,2021.2.3,59.913461035414265,
1,60,0,60,0,,,,,,,,,,,,,,,None,None,None,None,None,1332.7314689001068,None,1332.7314689001068,None,1332.7314689001068,None,1332.7314689001068,None,j,0.297378399875015,1332.7314689001068,None,1332.7314689001068,None,1333.0629422001075,None,1333.0629422001075,None,1333.0629422001075,None,1333.0629422001075,None,1333.0629422001075,None,1333.0629422001075,None,1333.3492022999562,None,1333.3492022999562,None,1334.2636059999932,None,1334.2636059999932,None,1334.2636059999932,None,1334.2636059999932,None,1334.2636059999932,None,1334.2636059999932,None,1334.2636059999932,None,1334.2636059999932,None,1334.2636059999932,None,41,27,25,70,70,75,1336.7821758000646,None,4.0,0.621068200096488,1336.7821758000646,None,1336.7821758000646,None,1336.7821758000646,None,1336.7821758000646,None,None,None,1337.4216318998951,None,,,,,,,141,f,1,2022_Dec_13_1541,RL,2021.2.3,59.913461035414265,
1,61,0,61,0,,,,,,,,,,,,,,,None,None,None,None,None,1339.2228649999015,None,1339.2228649999015,None,1339.2228649999015,None,1339.2228649999015,None,j,0.3660859002266079,1339.2228649999015,None,1339.2228649999015,None,1339.6410862000193,None,1339.6410862000193,None,1339.6410862000193,None,1339.6410862000193,None,1339.6410862000193,None,1339.6410862000193,None,1339.9371867999434,None,1339.9371867999434,None,1340.9697006000206,None,1340.9697006000206,None,1340.9697006000206,None,1340.9697006000206,None,1340.9697006000206,None,1340.9697006000206,None,1340.9697006000206,None,1340.9697006000206,None,1340.9697006000206,None,43,29,33,68,68,42,1343.4858202999458,None,5.0,0.870789400069043,1343.4858202999458,None,1343.4858202999458,None,1343.4858202999458,None,1343.4858202999458,None,None,None,1344.373378700111,None,,,,,,,141,f,1,2022_Dec_13_1541,RL,2021.2.3,59.913461035414265,
1,62,0,62,0,,,,,,,,,,,,,,,None,None,None,None,None,1346.3604763001204,None,1346.3604763001204,None,1346.3604763001204,None,1346.3604763001204,None,f,0.3486603000201285,1346.3604763001204,None,1346.3604763001204,None,1346.7474998999387,None,1346.7474998999387,None,1346.7474998999387,None,1346.7474998999387,None,1346.7474998999387,None,1346.7474998999387,None,1347.0418912000023,1347.9926926000044,1347.0418912000023,1347.9926926000044,1348.0239707999863,None,1348.0239707999863,None,1348.0239707999863,None,1348.0239707999863,None,1348.0239707999863,None,1348.0239707999863,None,1348.0239707999863,None,1348.0239707999863,None,1348.0239707999863,None,52,21,26,74,21,68,1350.5419010999613,None,5.0,1.0037176997866482,1350.5419010999613,None,1350.5419010999613,None,1350.5419010999613,None,1350.5419010999613,None,None,None,1351.5617001000792,None,,,,,,,141,f,1,2022_Dec_13_1541,RL,2021.2.3,59.913461035414265,
1,63,0,63,0,,,,,,,,,,,,,,,None,None,None,None,None,1353.1828771000728,None,1353.1828771000728,None,1353.1828771000728,None,1353.1828771000728,None,j,0.3862232998944819,1353.1828771000728,None,1353.1828771000728,None,1353.6227263000328,None,1353.6227263000328,None,1353.6227263000328,None,1353.6227263000328,None,1353.6227263000328,None,1353.6227263000328,None,1353.9133921999019,None,1353.9133921999019,None,1355.262209400069,None,1355.262209400069,None,1355.262209400069,None,1355.262209400069,None,1355.262209400069,None,1355.262209400069,None,1355.262209400069,None,1355.262209400069,None,1355.262209400069,None,53,25,26,69,69,46,1357.7784265999217,None,7.0,0.672410300001502,1357.7784265999217,None,1357.7784265999217,None,1357.7784265999217,None,1357.7784265999217,None,None,None,1358.4659792000894,None,,,,,,,141,f,1,2022_Dec_13_1541,RL,2021.2.3,59.913461035414265,
1,64,0,64,0,,,,,,,,,,,,,,,None,None,None,None,None,1360.1703182999045,None,1360.1703182999045,None,1360.1703182999045,None,1360.1703182999045,None,i,0.3688524002209306,1360.1703182999045,None,1360.1703182999045,None,1360.5992531001102,None,1360.5992531001102,None,1360.5992531001102,None,1360.5992531001102,None,1360.5992531001102,None,1360.5992531001102,None,1360.884900700068,None,1360.884900700068,None,1361.7805687999353,None,1361.7805687999353,None,1361.7805687999353,None,1361.7805687999353,None,1361.7805687999353,None,1361.7805687999353,None,1361.7805687999353,None,1361.7805687999353,None,1361.7805687999353,None,46,27,37,74,37,68,1364.3010140999686,None,2.0,1.3727275000419468,1364.3010140999686,None,1364.3010140999686,None,1364.3010140999686,None,1364.3010140999686,None,None,None,1365.6878623000812,None,,,,,,,141,f,1,2022_Dec_13_1541,RL,2021.2.3,59.913461035414265,
1,65,0,65,0,,,,,,,,,,,,,,,None,None,None,None,None,1367.6089103999548,None,1367.6089103999548,None,1367.6089103999548,None,1367.6089103999548,None,j,0.3002516000997275,1367.6089103999548,None,1367.6089103999548,None,1367.9625850000884,None,1367.9625850000884,None,1367.9625850000884,None,1367.9625850000884,None,1367.9625850000884,None,1367.9625850000884,None,1368.2566470000893,None,1368.2566470000893,None,1369.1687284999061,None,1369.1687284999061,None,1369.1687284999061,None,1369.1687284999061,None,1369.1687284999061,None,1369.1687284999061,None,1369.1687284999061,None,1369.1687284999061,None,1369.1687284999061,None,55,33,43,71,71,70,1371.6885683999863,None,4.0,1.2566986000165343,1371.6885683999863,None,1371.6885683999863,None,1371.6885683999863,None,1371.6885683999863,None,None,None,1372.9595331999008,None,,,,,,,141,f,1,2022_Dec_13_1541,RL,2021.2.3,59.913461035414265,
1,66,0,66,0,,,,,,,,,,,,,,,None,None,None,None,None,1374.6467949999496,None,1374.6467949999496,None,1374.6467949999496,None,1374.6467949999496,None,j,0.332289099926129,1374.6467949999496,None,1374.6467949999496,None,1375.01709139999,None,1375.01709139999,None,1375.01709139999,None,1375.01709139999,None,1375.01709139999,None,1375.01709139999,None,1375.3115962999873,1376.3788153999485,1375.3115962999873,1376.3788153999485,1376.413987699896,None,1376.413987699896,None,1376.413987699896,None,1376.413987699896,None,1376.413987699896,None,1376.413987699896,None,1376.413987699896,None,1376.413987699896,None,1376.413987699896,None,57,37,43,64,64,39,1378.9310349998996,None,5.0,1.3037913001608104,1378.9310349998996,None,1378.9310349998996,None,1378.9310349998996,None,1378.9310349998996,None,None,None,1380.2480550999753,None,,,,,,,141,f,1,2022_Dec_13_1541,RL,2021.2.3,59.913461035414265,
1,67,0,67,0,,,,,,,,,,,,,,,None,None,None,None,None,1381.9861546000466,None,1381.9861546000466,None,1381.9861546000466,None,1381.9861546000466,None,j,0.3133370999712497,1381.9861546000466,None,1381.9861546000466,None,1382.3417668999173,None,1382.3417668999173,None,1382.3417668999173,None,1382.3417668999173,None,1382.3417668999173,None,1382.3417668999173,None,1382.633394900011,1383.8840948001016,1382.633394900011,1383.8840948001016,1383.9140031998977,None,1383.9140031998977,None,1383.9140031998977,None,1383.9140031998977,None,1383.9140031998977,None,1383.9140031998977,None,1383.9140031998977,None,1383.9140031998977,None,1383.9140031998977,None,52,24,44,74,74,41,1386.4395582999568,None,7.0,1.5992111000232399,1386.4395582999568,None,1386.4395582999568,None,1386.4395582999568,None,1386.4395582999568,None,None,None,1388.0530574999284,None,,,,,,,141,f,1,2022_Dec_13_1541,RL,2021.2.3,59.913461035414265,
1,68,0,68,0,,,,,,,,,,,,,,,None,None,None,None,None,1389.6909354999661,None,1389.6909354999661,None,1389.6909354999661,None,1389.6909354999661,None,j,0.5983296001795679,1389.6909354999661,None,1389.6909354999661,None,1390.3258179000113,None,1390.3258179000113,None,1390.3258179000113,None,1390.3258179000113,None,1390.3258179000113,None,1390.3258179000113,None,1390.6221131999046,1392.6067087999545,1390.6221131999046,1392.6067087999545,1392.6370333000086,None,1392.6370333000086,None,1392.6370333000086,None,1392.6370333000086,None,1392.6370333000086,None,1392.6370333000086,None,1392.6370333000086,None,1392.6370333000086,None,1392.6370333000086,None,49,25,49,72,72,65,1395.1537671000697,None,5.0,2.2557710998225957,1395.1537671000697,None,1395.1537671000697,None,1395.1537671000697,None,1395.1537671000697,None,None,None,1397.4269125999417,None,,,,,,,141,f,1,2022_Dec_13_1541,RL,2021.2.3,59.913461035414265,
1,69,0,69,0,,,,,,,,,,,,,,,None,None,None,None,None,1399.1618747001048,None,1399.1618747001048,None,1399.1618747001048,None,1399.1618747001048,None,j,0.4374400000087917,1399.1618747001048,None,1399.1618747001048,None,1399.651504599955,None,1399.651504599955,None,1399.651504599955,None,1399.651504599955,None,1399.651504599955,None,1399.651504599955,None,1399.9452853000257,1400.7625343999825,1399.9452853000257,1400.7625343999825,1400.7930431999266,None,1400.7930431999266,None,1400.7930431999266,None,1400.7930431999266,None,1400.7930431999266,None,1400.7930431999266,None,1400.7930431999266,None,1400.7930431999266,None,1400.7930431999266,None,59,31,50,79,79,64,1403.310952699976,None,6.0,0.6723471998702735,1403.310952699976,None,1403.310952699976,None,1403.310952699976,None,1403.310952699976,None,None,None,1404.0010949000716,None,,,,,,,141,f,1,2022_Dec_13_1541,RL,2021.2.3,59.913461035414265,
1,70,0,70,0,,,,,,,,,,,,,,,None,None,None,None,None,1405.9525580999907,None,1405.9525580999907,None,1405.9525580999907,None,1405.9525580999907,None,j,0.3479706000071019,1405.9525580999907,None,1405.9525580999907,None,1406.337846999988,None,1406.337846999988,None,1406.337846999988,None,1406.337846999988,None,1406.337846999988,None,1406.337846999988,None,1406.6334096998908,None,1406.6334096998908,None,1408.4306487001013,None,1408.4306487001013,None,1408.4306487001013,None,1408.4306487001013,None,1408.4306487001013,None,1408.4306487001013,None,1408.4306487001013,None,1408.4306487001013,None,1408.4306487001013,None,49,33,51,70,70,69,1410.948363600066,None,6.0,1.4877740000374615,1410.948363600066,None,1410.948363600066,None,1410.948363600066,None,1410.948363600066,None,None,None,1412.4535010999534,None,,,,,,,141,f,1,2022_Dec_13_1541,RL,2021.2.3,59.913461035414265,
1,71,0,71,0,,,,,,,,,,,,,,,None,None,None,None,None,1414.4414617000148,None,1414.4414617000148,None,1414.4414617000148,None,1414.4414617000148,None,j,0.4190515000373125,1414.4414617000148,None,1414.4414617000148,None,1414.9122516000643,None,1414.9122516000643,None,1414.9122516000643,None,1414.9122516000643,None,1414.9122516000643,None,1414.9122516000643,None,1415.2058977999259,None,1415.2058977999259,None,1416.3031713000964,None,1416.3031713000964,None,1416.3031713000964,None,1416.3031713000964,None,1416.3031713000964,None,1416.3031713000964,None,1416.3031713000964,None,1416.3031713000964,None,1416.3031713000964,None,54,38,47,82,82,58,1418.8092590000015,None,7.0,2.618462699931115,1418.8092590000015,None,1418.8092590000015,None,1418.8092590000015,None,1418.8092590000015,None,None,None,1421.4440190999303,None,,,,,,,141,f,1,2022_Dec_13_1541,RL,2021.2.3,59.913461035414265,
1,72,0,72,0,,,,,,,,,,,,,,,None,None,None,None,None,1423.4311542001087,None,1423.4311542001087,None,1423.4311542001087,None,1423.4311542001087,None,j,0.4194714000914246,1423.4311542001087,None,1423.4311542001087,None,1423.902286699973,None,1423.902286699973,None,1423.902286699973,None,1423.902286699973,None,1423.902286699973,None,1423.902286699973,None,1424.17882260005,1425.1959456000477,1424.17882260005,1425.1959456000477,1425.2267585999798,None,1425.2267585999798,None,1425.2267585999798,None,1425.2267585999798,None,1425.2267585999798,None,1425.2267585999798,None,1425.2267585999798,None,1425.2267585999798,None,1425.2267585999798,None,44,30,50,86,86,24,1427.7429120000452,None,7.0,0.854854199802503,1427.7429120000452,None,1427.7429120000452,None,1427.7429120000452,None,1427.7429120000452,None,None,None,1428.6150402999483,None,,,,,,,141,f,1,2022_Dec_13_1541,RL,2021.2.3,59.913461035414265,
1,73,0,73,0,,,,,,,,,,,,,,,None,None,None,None,None,1430.2528144998942,None,1430.2528144998942,None,1430.2528144998942,None,1430.2528144998942,None,j,0.38742069993168116,1430.2528144998942,None,1430.2528144998942,None,1430.6882539999206,None,1430.6882539999206,None,1430.6882539999206,None,1430.6882539999206,None,1430.6882539999206,None,1430.6882539999206,None,1430.98353759991,None,1430.98353759991,None,1432.351349500008,None,1432.351349500008,None,1432.351349500008,None,1432.351349500008,None,1432.351349500008,None,1432.351349500008,None,1432.351349500008,None,1432.351349500008,None,1432.351349500008,None,54,31,46,81,81,61,1434.8677238998935,None,7.0,1.8717969998251647,1434.8677238998935,None,1434.8677238998935,None,1434.8677238998935,None,1434.8677238998935,None,None,None,1436.7537211000454,None,,,,,,,141,f,1,2022_Dec_13_1541,RL,2021.2.3,59.913461035414265,
1,74,0,74,0,,,,,,,,,,,,,,,None,None,None,None,None,1438.5914761000313,None,1438.5914761000313,None,1438.5914761000313,None,1438.5914761000313,None,j,0.46888429997488856,1438.5914761000313,None,1438.5914761000313,None,1439.1117487999145,None,1439.1117487999145,None,1439.1117487999145,None,1439.1117487999145,None,1439.1117487999145,None,1439.1117487999145,None,1439.4060126999393,None,1439.4060126999393,None,1440.5400590999052,None,1440.5400590999052,None,1440.5400590999052,None,1440.5400590999052,None,1440.5400590999052,None,1440.5400590999052,None,1440.5400590999052,None,1440.5400590999052,None,1440.5400590999052,None,49,33,41,90,90,51,1443.053388300119,None,7.0,1.6074202999006957,1443.053388300119,None,1443.053388300119,None,1443.053388300119,None,1443.053388300119,None,None,None,1444.6758151999675,None,,,,,,,141,f,1,2022_Dec_13_1541,RL,2021.2.3,59.913461035414265,
1,75,0,75,0,,,,,,,,,,,,,,,1446.6441261,None,q,1446.6441261,None,1473.3317815999035,None,1473.3317815999035,None,1473.3317815999035,None,1473.3317815999035,None,j,1.4791600999888033,1473.3317815999035,None,1473.3317815999035,None,1474.8505317000672,None,1474.8505317000672,None,1474.8505317000672,None,1474.8505317000672,None,1474.8505317000672,None,1474.8505317000672,None,1475.1474037000444,None,1475.1474037000444,None,1476.9631769000553,None,1476.9631769000553,None,1476.9631769000553,None,1476.9631769000553,None,1476.9631769000553,None,1476.9631769000553,None,1476.9631769000553,None,1476.9631769000553,None,1476.9631769000553,None,51,27,39,77,77,55,1479.4809059998952,None,6.0,5.1070022999774665,1479.4809059998952,None,1479.4809059998952,None,1479.4809059998952,None,1479.4809059998952,None,None,None,1484.6037053000182,None,26.659531000070274,,,,,,141,f,1,2022_Dec_13_1541,RL,2021.2.3,59.913461035414265,
1,76,0,76,0,,,,,,,,,,,,,,,None,None,None,None,None,1486.4413459000643,None,1486.4413459000643,None,1486.4413459000643,None,1486.4413459000643,None,j,0.4393589999526739,1486.4413459000643,None,1486.4413459000643,None,1486.9246847000904,None,1486.9246847000904,None,1486.9246847000904,None,1486.9246847000904,None,1486.9246847000904,None,1486.9246847000904,None,1487.2224475999828,1488.539892599918,1487.2224475999828,1488.539892599918,1488.5719153000973,None,1488.5719153000973,None,1488.5719153000973,None,1488.5719153000973,None,1488.5719153000973,None,1488.5719153000973,None,1488.5719153000973,None,1488.5719153000973,None,1488.5719153000973,None,45,34,52,72,72,56,1491.087465000106,None,6.0,1.5556073999032378,1491.087465000106,None,1491.087465000106,None,1491.087465000106,None,1491.087465000106,None,None,None,1492.65896479995,None,,,,,,,141,f,1,2022_Dec_13_1541,RL,2021.2.3,59.913461035414265,
1,77,0,77,0,,,,,,,,,,,,,,,None,None,None,None,None,1494.2971383999102,None,1494.2971383999102,None,1494.2971383999102,None,1494.2971383999102,None,j,0.6937598001677543,1494.2971383999102,None,1494.2971383999102,None,1495.034340400016,None,1495.034340400016,None,1495.034340400016,None,1495.034340400016,None,1495.034340400016,None,1495.034340400016,None,1495.3116315999068,1497.0123133000452,1495.3116315999068,1497.0123133000452,1497.0432366000023,None,1497.0432366000023,None,1497.0432366000023,None,1497.0432366000023,None,1497.0432366000023,None,1497.0432366000023,None,1497.0432366000023,None,1497.0432366000023,None,1497.0432366000023,None,49,37,48,79,79,54,1499.5615735999309,None,5.0,0.6878893999382854,1499.5615735999309,None,1499.5615735999309,None,1499.5615735999309,None,1499.5615735999309,None,None,None,1500.27338030003,None,,,,,,,141,f,1,2022_Dec_13_1541,RL,2021.2.3,59.913461035414265,
1,78,0,78,0,,,,,,,,,,,,,,,None,None,None,None,None,1501.969216400059,None,1501.969216400059,None,1501.969216400059,None,1501.969216400059,None,j,0.5514421998523176,1501.969216400059,None,1501.969216400059,None,1502.5734929000027,None,1502.5734929000027,None,1502.5734929000027,None,1502.5734929000027,None,1502.5734929000027,None,1502.5734929000027,None,1502.8499940000474,1504.0172902999911,1502.8499940000474,1504.0172902999911,1504.0485922999214,None,1504.0485922999214,None,1504.0485922999214,None,1504.0485922999214,None,1504.0485922999214,None,1504.0485922999214,None,1504.0485922999214,None,1504.0485922999214,None,1504.0485922999214,None,34,35,45,76,76,49,1506.57315750001,None,5.0,1.3171275998465717,1506.57315750001,None,1506.57315750001,None,1506.57315750001,None,1506.57315750001,None,None,None,1507.912725500064,None,,,,,,,141,f,1,2022_Dec_13_1541,RL,2021.2.3,59.913461035414265,
1,79,0,79,0,,,,,,,,,,,,,,,None,None,None,None,None,1509.8407902999315,None,1509.8407902999315,None,1509.8407902999315,None,1509.8407902999315,None,j,0.4901010999456048,1509.8407902999315,None,1509.8407902999315,None,1510.377316399943,None,1510.377316399943,None,1510.377316399943,None,1510.377316399943,None,1510.377316399943,None,1510.377316399943,None,1510.6723668999039,None,1510.6723668999039,None,1511.5528140000533,None,1511.5528140000533,None,1511.5528140000533,None,1511.5528140000533,None,1511.5528140000533,None,1511.5528140000533,None,1511.5528140000533,None,1511.5528140000533,None,1511.5528140000533,None,33,35,41,69,69,52,1514.0747758999933,None,5.0,1.302917200140655,1514.0747758999933,None,1514.0747758999933,None,1514.0747758999933,None,1514.0747758999933,None,None,None,1515.405108799925,None,,,,,,,141,f,1,2022_Dec_13_1541,RL,2021.2.3,59.913461035414265,
1,80,0,80,0,,,,,,,,,,,,,,,None,None,None,None,None,1517.3633163000923,None,1517.3633163000923,None,1517.3633163000923,None,1517.3633163000923,None,j,0.2774883001111448,1517.3633163000923,None,1517.3633163000923,None,1517.6829941000324,None,1517.6829941000324,None,1517.6829941000324,None,1517.6829941000324,None,1517.6829941000324,None,1517.6829941000324,None,1517.9770142000634,None,1517.9770142000634,None,1519.1410519999918,None,1519.1410519999918,None,1519.1410519999918,None,1519.1410519999918,None,1519.1410519999918,None,1519.1410519999918,None,1519.1410519999918,None,1519.1410519999918,None,1519.1410519999918,None,34,32,45,62,62,56,1521.6662272000685,None,5.0,0.9499214000534266,1521.6662272000685,None,1521.6662272000685,None,1521.6662272000685,None,1521.6662272000685,None,None,None,1522.6367732000072,None,,,,,,,141,f,1,2022_Dec_13_1541,RL,2021.2.3,59.913461035414265,
1,81,0,81,0,,,,,,,,,,,,,,,None,None,None,None,None,1524.417452499969,None,1524.417452499969,None,1524.417452499969,None,1524.417452499969,None,j,0.2836145998444408,1524.417452499969,None,1524.417452499969,None,1524.7548277000897,None,1524.7548277000897,None,1524.7548277000897,None,1524.7548277000897,None,1524.7548277000897,None,1524.7548277000897,None,1525.048694099998,None,1525.048694099998,None,1526.1312005000655,None,1526.1312005000655,None,1526.1312005000655,None,1526.1312005000655,None,1526.1312005000655,None,1526.1312005000655,None,1526.1312005000655,None,1526.1312005000655,None,1526.1312005000655,None,41,33,46,67,67,55,1528.650333700003,None,5.0,0.5830590000841767,1528.650333700003,None,1528.650333700003,None,1528.650333700003,None,1528.650333700003,None,None,None,1529.251668999903,None,,,,,,,141,f,1,2022_Dec_13_1541,RL,2021.2.3,59.913461035414265,
1,82,0,82,0,,,,,,,,,,,,,,,None,None,None,None,None,1531.1561739000026,None,1531.1561739000026,None,1531.1561739000026,None,1531.1561739000026,None,j,0.28497630008496344,1531.1561739000026,None,1531.1561739000026,None,1531.4925830999855,None,1531.4925830999855,None,1531.4925830999855,None,1531.4925830999855,None,1531.4925830999855,None,1531.4925830999855,None,1531.786685100058,1533.1375045999885,1531.786685100058,1533.1375045999885,1533.1680670001078,None,1533.1680670001078,None,1533.1680670001078,None,1533.1680670001078,None,1533.1680670001078,None,1533.1680670001078,None,1533.1680670001078,None,1533.1680670001078,None,1533.1680670001078,None,33,37,47,66,66,60,1535.685162199894,None,4.0,0.8033718999940902,1535.685162199894,None,1535.685162199894,None,1535.685162199894,None,1535.685162199894,None,None,None,1536.5070088000502,None,,,,,,,141,f,1,2022_Dec_13_1541,RL,2021.2.3,59.913461035414265,
1,83,0,83,0,,,,,,,,,,,,,,,None,None,None,None,None,1538.2275632999372,None,1538.2275632999372,None,1538.2275632999372,None,1538.2275632999372,None,j,0.5834877998568118,1538.2275632999372,None,1538.2275632999372,None,1538.8618129999377,None,1538.8618129999377,None,1538.8618129999377,None,1538.8618129999377,None,1538.8618129999377,None,1538.8618129999377,None,1539.1584995999,None,1539.1584995999,None,1540.803210400045,None,1540.803210400045,None,1540.803210400045,None,1540.803210400045,None,1540.803210400045,None,1540.803210400045,None,1540.803210400045,None,1540.803210400045,None,1540.803210400045,None,40,35,38,71,71,60,1543.3229567999952,None,5.0,0.6055542000103742,1543.3229567999952,None,1543.3229567999952,None,1543.3229567999952,None,1543.3229567999952,None,None,None,1543.953705900116,None,,,,,,,141,f,1,2022_Dec_13_1541,RL,2021.2.3,59.913461035414265,
1,84,0,84,0,,,,,,,,,,,,,,,None,None,None,None,None,1545.516053300118,None,1545.516053300118,None,1545.516053300118,None,1545.516053300118,None,j,0.23507039994001389,1545.516053300118,None,1545.516053300118,None,1545.8018064999487,None,1545.8018064999487,None,1545.8018064999487,None,1545.8018064999487,None,1545.8018064999487,None,1545.8018064999487,None,1546.0966465999372,None,1546.0966465999372,None,1546.9763217999134,None,1546.9763217999134,None,1546.9763217999134,None,1546.9763217999134,None,1546.9763217999134,None,1546.9763217999134,None,1546.9763217999134,None,1546.9763217999134,None,1546.9763217999134,None,41,40,44,82,82,63,1549.496809599921,None,7.0,0.6371027999557555,1549.496809599921,None,1549.496809599921,None,1549.496809599921,None,1549.496809599921,None,None,None,1550.149197400082,None,,,,,,,141,f,1,2022_Dec_13_1541,RL,2021.2.3,59.913461035414265,
1,85,0,85,0,,,,,,,,,,,,,,,None,None,None,None,None,1552.0700290000532,None,1552.0700290000532,None,1552.0700290000532,None,1552.0700290000532,None,j,0.28107240004464984,1552.0700290000532,None,1552.0700290000532,None,1552.3892777999863,None,1552.3892777999863,None,1552.3892777999863,None,1552.3892777999863,None,1552.3892777999863,None,1552.3892777999863,None,1552.684461900033,1553.8018263000995,1552.684461900033,1553.8018263000995,1553.8366773999296,None,1553.8366773999296,None,1553.8366773999296,None,1553.8366773999296,None,1553.8366773999296,None,1553.8366773999296,None,1553.8366773999296,None,1553.8366773999296,None,1553.8366773999296,None,30,41,40,81,81,49,1556.3566823999863,None,7.0,0.5488162999972701,1556.3566823999863,None,1556.3566823999863,None,1556.3566823999863,None,1556.3566823999863,None,None,None,1556.920197099913,None,,,,,,,141,f,1,2022_Dec_13_1541,RL,2021.2.3,59.913461035414265,
1,86,0,86,0,,,,,,,,,,,,,,,None,None,None,None,None,1558.608572700061,None,1558.608572700061,None,1558.608572700061,None,1558.608572700061,None,j,0.3326111000496894,1558.608572700061,None,1558.608572700061,None,1558.9959140999708,None,1558.9959140999708,None,1558.9959140999708,None,1558.9959140999708,None,1558.9959140999708,None,1558.9959140999708,None,1559.272495500045,1560.4229625000153,1559.272495500045,1560.4229625000153,1560.4769957999233,None,1560.4769957999233,None,1560.4769957999233,None,1560.4769957999233,None,1560.4769957999233,None,1560.4769957999233,None,1560.4769957999233,None,1560.4769957999233,None,1560.4769957999233,None,35,47,39,71,71,56,1563.0014224001206,None,6.0,0.5071898999158293,1563.0014224001206,None,1563.0014224001206,None,1563.0014224001206,None,1563.0014224001206,None,None,None,1563.524960000068,None,,,,,,,141,f,1,2022_Dec_13_1541,RL,2021.2.3,59.913461035414265,
1,87,0,87,0,,,,,,,,,,,,,,,None,None,None,None,None,1565.3960277000442,None,1565.3960277000442,None,1565.3960277000442,None,1565.3960277000442,None,j,0.2661313000135124,1565.3960277000442,None,1565.3960277000442,None,1565.715335899964,None,1565.715335899964,None,1565.715335899964,None,1565.715335899964,None,1565.715335899964,None,1565.715335899964,None,1566.0104133000132,None,1566.0104133000132,None,1567.4085528000724,None,1567.4085528000724,None,1567.4085528000724,None,1567.4085528000724,None,1567.4085528000724,None,1567.4085528000724,None,1567.4085528000724,None,1567.4085528000724,None,1567.4085528000724,None,35,39,40,79,79,57,1569.9255852999631,None,7.0,0.5214978000149131,1569.9255852999631,None,1569.9255852999631,None,1569.9255852999631,None,1569.9255852999631,None,None,None,1570.4629170000553,None,,,,,,,141,f,1,2022_Dec_13_1541,RL,2021.2.3,59.913461035414265,
1,88,0,88,0,,,,,,,,,,,,,,,None,None,None,None,None,1572.3344628000632,None,1572.3344628000632,None,1572.3344628000632,None,1572.3344628000632,None,j,0.29692610003985465,1572.3344628000632,None,1572.3344628000632,None,1572.669753599912,None,1572.669753599912,None,1572.669753599912,None,1572.669753599912,None,1572.669753599912,None,1572.669753599912,None,1572.9651744998991,None,1572.9651744998991,None,1574.913581599947,None,1574.913581599947,None,1574.913581599947,None,1574.913581599947,None,1574.913581599947,None,1574.913581599947,None,1574.913581599947,None,1574.913581599947,None,1574.913581599947,None,48,53,38,80,80,58,1577.429539799923,None,7.0,0.5544150001369417,1577.429539799923,None,1577.429539799923,None,1577.429539799923,None,1577.429539799923,None,None,None,1578.0028983000666,None,,,,,,,141,f,1,2022_Dec_13_1541,RL,2021.2.3,59.913461035414265,
1,89,0,89,0,,,,,,,,,,,,,,,None,None,None,None,None,1579.75480409991,None,1579.75480409991,None,1579.75480409991,None,1579.75480409991,None,j,0.46764690009877086,1579.75480409991,None,1579.75480409991,None,1580.2792730000801,None,1580.2792730000801,None,1580.2792730000801,None,1580.2792730000801,None,1580.2792730000801,None,1580.2792730000801,None,1580.5704459000845,None,1580.5704459000845,None,1581.7017802000046,None,1581.7017802000046,None,1581.7017802000046,None,1581.7017802000046,None,1581.7017802000046,None,1581.7017802000046,None,1581.7017802000046,None,1581.7017802000046,None,1581.7017802000046,None,51,40,26,83,83,60,1584.2219062000513,None,7.0,0.5523514000233263,1584.2219062000513,None,1584.2219062000513,None,1584.2219062000513,None,1584.2219062000513,None,None,None,1584.789621999953,None,,,,,,,141,f,1,2022_Dec_13_1541,RL,2021.2.3,59.913461035414265,
1,90,0,90,0,,,,,,,,,,,,,,,None,None,None,None,None,1586.327436499996,None,1586.327436499996,None,1586.327436499996,None,1586.327436499996,None,j,0.6449524001218379,1586.327436499996,None,1586.327436499996,None,1587.01383540011,None,1587.01383540011,None,1587.01383540011,None,1587.01383540011,None,1587.01383540011,None,1587.01383540011,None,1587.308561899932,1588.2758456999436,1587.308561899932,1588.2758456999436,1588.308039699914,None,1588.308039699914,None,1588.308039699914,None,1588.308039699914,None,1588.308039699914,None,1588.308039699914,None,1588.308039699914,None,1588.308039699914,None,1588.308039699914,None,45,40,31,80,80,31,1590.8241922000889,None,7.0,0.5054905000142753,1590.8241922000889,None,1590.8241922000889,None,1590.8241922000889,None,1590.8241922000889,None,None,None,1591.3471915000118,None,,,,,,,141,f,1,2022_Dec_13_1541,RL,2021.2.3,59.913461035414265,
1,91,0,91,0,,,,,,,,,,,,,,,None,None,None,None,None,1593.1819231999107,None,1593.1819231999107,None,1593.1819231999107,None,1593.1819231999107,None,j,0.3504660001490265,1593.1819231999107,None,1593.1819231999107,None,1593.584758900106,None,1593.584758900106,None,1593.584758900106,None,1593.584758900106,None,1593.584758900106,None,1593.584758900106,None,1593.8798134000972,None,1593.8798134000972,None,1595.200992200058,None,1595.200992200058,None,1595.200992200058,None,1595.200992200058,None,1595.200992200058,None,1595.200992200058,None,1595.200992200058,None,1595.200992200058,None,1595.200992200058,None,47,42,31,72,72,69,1597.7299299000297,None,5.0,0.7539669000543654,1597.7299299000297,None,1597.7299299000297,None,1597.7299299000297,None,1597.7299299000297,None,None,None,1598.4990228000097,None,,,,,,,141,f,1,2022_Dec_13_1541,RL,2021.2.3,59.913461035414265,
1,92,0,92,0,,,,,,,,,,,,,,,None,None,None,None,None,1600.3037640999537,None,1600.3037640999537,None,1600.3037640999537,None,1600.3037640999537,None,j,0.298610599944368,1600.3037640999537,None,1600.3037640999537,None,1600.637836900074,None,1600.637836900074,None,1600.637836900074,None,1600.637836900074,None,1600.637836900074,None,1600.637836900074,None,1600.9346785000525,None,1600.9346785000525,None,1601.8200348000973,None,1601.8200348000973,None,1601.8200348000973,None,1601.8200348000973,None,1601.8200348000973,None,1601.8200348000973,None,1601.8200348000973,None,1601.8200348000973,None,1601.8200348000973,None,53,40,35,74,74,24,1604.334309299942,None,7.0,0.6694038999266922,1604.334309299942,None,1604.334309299942,None,1604.334309299942,None,1604.334309299942,None,None,None,1605.020639399998,None,,,,,,,141,f,1,2022_Dec_13_1541,RL,2021.2.3,59.913461035414265,
1,93,0,93,0,,,,,,,,,,,,,,,None,None,None,None,None,1607.0254661999643,None,1607.0254661999643,None,1607.0254661999643,None,1607.0254661999643,None,j,0.5467014000751078,1607.0254661999643,None,1607.0254661999643,None,1607.6120889999438,None,1607.6120889999438,None,1607.6120889999438,None,1607.6120889999438,None,1607.6120889999438,None,1607.6120889999438,None,1607.9061330999248,1608.7899470000993,1607.9061330999248,1608.7899470000993,1608.8218688999768,None,1608.8218688999768,None,1608.8218688999768,None,1608.8218688999768,None,1608.8218688999768,None,1608.8218688999768,None,1608.8218688999768,None,1608.8218688999768,None,1608.8218688999768,None,52,40,31,73,73,62,1611.338022599928,None,5.0,3.7069911998696625,1611.338022599928,None,1611.338022599928,None,1611.338022599928,None,1611.338022599928,None,None,None,1615.0629078000784,None,,,,,,,141,f,1,2022_Dec_13_1541,RL,2021.2.3,59.913461035414265,
1,94,0,94,0,,,,,,,,,,,,,,,None,None,None,None,None,1616.6984023998957,None,1616.6984023998957,None,1616.6984023998957,None,1616.6984023998957,None,j,0.2540525000076741,1616.6984023998957,None,1616.6984023998957,None,1617.0010448000394,None,1617.0010448000394,None,1617.0010448000394,None,1617.0010448000394,None,1617.0010448000394,None,1617.0010448000394,None,1617.2962346998975,None,1617.2962346998975,None,1619.1433079999406,None,1619.1433079999406,None,1619.1433079999406,None,1619.1433079999406,None,1619.1433079999406,None,1619.1433079999406,None,1619.1433079999406,None,1619.1433079999406,None,1619.1433079999406,None,46,39,33,74,74,67,1621.664804100059,None,5.0,1.1184410999994725,1621.664804100059,None,1621.664804100059,None,1621.664804100059,None,1621.664804100059,None,None,None,1622.7994929999113,None,,,,,,,141,f,1,2022_Dec_13_1541,RL,2021.2.3,59.913461035414265,
1,95,0,95,0,,,,,,,,,,,,,,,None,None,None,None,None,1624.320851400029,None,1624.320851400029,None,1624.320851400029,None,1624.320851400029,None,j,0.2517389999702573,1624.320851400029,None,1624.320851400029,None,1624.6232044999488,None,1624.6232044999488,None,1624.6232044999488,None,1624.6232044999488,None,1624.6232044999488,None,1624.6232044999488,None,1624.9179193999153,None,1624.9179193999153,None,1626.847046900075,None,1626.847046900075,None,1626.847046900075,None,1626.847046900075,None,1626.847046900075,None,1626.847046900075,None,1626.847046900075,None,1626.847046900075,None,1626.847046900075,None,44,48,34,75,75,35,1629.3727033000905,None,6.0,0.5855322999414057,1629.3727033000905,None,1629.3727033000905,None,1629.3727033000905,None,1629.3727033000905,None,None,None,1629.9752768001053,None,,,,,,,141,f,1,2022_Dec_13_1541,RL,2021.2.3,59.913461035414265,
1,96,0,96,0,,,,,,,,,,,,,,,None,None,None,None,None,1631.5926198998932,None,1631.5926198998932,None,1631.5926198998932,None,1631.5926198998932,None,r,0.4100297999102622,1631.5926198998932,None,1631.5926198998932,None,1632.0429479999002,None,1632.0429479999002,None,1632.0429479999002,None,1632.0429479999002,None,1632.0429479999002,None,1632.0429479999002,None,1632.3398053001147,1634.174193700077,1632.3398053001147,1634.174193700077,1634.2073753001168,None,1634.2073753001168,None,1634.2073753001168,None,1634.2073753001168,None,1634.2073753001168,None,1634.2073753001168,None,1634.2073753001168,None,1634.2073753001168,None,1634.2073753001168,None,35,29,33,70,35,48,1636.7225508000702,None,2.0,2.1398863999638706,1636.7225508000702,None,1636.7225508000702,None,1636.7225508000702,None,1636.7225508000702,None,None,None,1638.8777864000294,None,,,,,,,141,f,1,2022_Dec_13_1541,RL,2021.2.3,59.913461035414265,
1,97,0,97,0,,,,,,,,,,,,,,,None,None,None,None,None,1640.8154438000638,None,1640.8154438000638,None,1640.8154438000638,None,1640.8154438000638,None,j,0.25705159991048276,1640.8154438000638,None,1640.8154438000638,None,1641.1181743000634,None,1641.1181743000634,None,1641.1181743000634,None,1641.1181743000634,None,1641.1181743000634,None,1641.1181743000634,None,1641.4130643000826,1643.0136931999587,1641.4130643000826,1643.0136931999587,1643.0463435000274,None,1643.0463435000274,None,1643.0463435000274,None,1643.0463435000274,None,1643.0463435000274,None,1643.0463435000274,None,1643.0463435000274,None,1643.0463435000274,None,1643.0463435000274,None,50,34,41,58,58,33,1645.5616125001106,None,6.0,1.2224206000100821,1645.5616125001106,None,1645.5616125001106,None,1645.5616125001106,None,1645.5616125001106,None,None,None,1646.803866900038,None,,,,,,,141,f,1,2022_Dec_13_1541,RL,2021.2.3,59.913461035414265,
1,98,0,98,0,,,,,,,,,,,,,,,None,None,None,None,None,1648.6371551000047,None,1648.6371551000047,None,1648.6371551000047,None,1648.6371551000047,None,j,0.36534509994089603,1648.6371551000047,None,1648.6371551000047,None,1649.0418199999258,None,1649.0418199999258,None,1649.0418199999258,None,1649.0418199999258,None,1649.0418199999258,None,1649.0418199999258,None,1649.3182546000462,1650.8690828001127,1649.3182546000462,1650.8690828001127,1650.9194918998983,None,1650.9194918998983,None,1650.9194918998983,None,1650.9194918998983,None,1650.9194918998983,None,1650.9194918998983,None,1650.9194918998983,None,1650.9194918998983,None,1650.9194918998983,None,41,26,35,55,55,40,1653.4388643000275,None,5.0,0.9011413000989705,1653.4388643000275,None,1653.4388643000275,None,1653.4388643000275,None,1653.4388643000275,None,None,None,1654.3577405000106,None,,,,,,,141,f,1,2022_Dec_13_1541,RL,2021.2.3,59.913461035414265,
1,99,0,99,0,,,,,,,,,,,,,,,None,None,None,None,None,1656.225987300044,None,1656.225987300044,None,1656.225987300044,None,1656.225987300044,None,j,0.32679870002903044,1656.225987300044,None,1656.225987300044,None,1656.5961933999788,None,1656.5961933999788,None,1656.5961933999788,None,1656.5961933999788,None,1656.5961933999788,None,1656.5961933999788,None,1656.8901219000109,None,1656.8901219000109,None,1658.870668400079,None,1658.870668400079,None,1658.870668400079,None,1658.870668400079,None,1658.870668400079,None,1658.870668400079,None,1658.870668400079,None,1658.870668400079,None,1658.870668400079,None,43,35,35,63,63,43,1661.390302099986,None,5.0,0.6046511000022292,1661.390302099986,None,1661.390302099986,None,1661.390302099986,None,1661.390302099986,None,None,None,1662.009672000073,None,,,,,,,141,f,1,2022_Dec_13_1541,RL,2021.2.3,59.913461035414265,
1,100,0,100,0,,,,,,,,,,,,,,,None,None,None,None,None,1663.6982984999195,None,1663.6982984999195,None,1663.6982984999195,None,1663.6982984999195,None,j,0.3544901998247951,1663.6982984999195,None,1663.6982984999195,None,1664.1031889999285,None,1664.1031889999285,None,1664.1031889999285,None,1664.1031889999285,None,1664.1031889999285,None,1664.1031889999285,None,1664.3953511000145,1666.2797872999217,1664.3953511000145,1666.2797872999217,1666.310999599984,None,1666.310999599984,None,1666.310999599984,None,1666.310999599984,None,1666.310999599984,None,1666.310999599984,None,1666.310999599984,None,1666.310999599984,None,1666.310999599984,None,32,32,35,59,59,35,1668.8281411000062,None,6.0,0.8059153999201953,1668.8281411000062,None,1668.8281411000062,None,1668.8281411000062,None,1668.8281411000062,None,None,None,1669.6483458001167,None,,,,,,,141,f,1,2022_Dec_13_1541,RL,2021.2.3,59.913461035414265,
1,101,0,101,0,,,,,,,,,,,,,,,None,None,None,None,None,1671.2526839999482,None,1671.2526839999482,None,1671.2526839999482,None,1671.2526839999482,None,j,0.31025410001166165,1671.2526839999482,None,1671.2526839999482,None,1671.605337599991,None,1671.605337599991,None,1671.605337599991,None,1671.605337599991,None,1671.605337599991,None,1671.605337599991,None,1671.9007687999401,None,1671.9007687999401,None,1673.3315775000956,None,1673.3315775000956,None,1673.3315775000956,None,1673.3315775000956,None,1673.3315775000956,None,1673.3315775000956,None,1673.3315775000956,None,1673.3315775000956,None,1673.3315775000956,None,33,26,28,66,66,62,1675.8492944999598,None,5.0,1.9552124999463558,1675.8492944999598,None,1675.8492944999598,None,1675.8492944999598,None,1675.8492944999598,None,None,None,1677.8283961000852,None,,,,,,,141,f,1,2022_Dec_13_1541,RL,2021.2.3,59.913461035414265,
1,102,0,102,0,,,,,,,,,,,,,,,None,None,None,None,None,1679.792840699898,None,1679.792840699898,None,1679.792840699898,None,1679.792840699898,None,j,0.30015009990893304,1679.792840699898,None,1679.792840699898,None,1680.1450126001146,None,1680.1450126001146,None,1680.1450126001146,None,1680.1450126001146,None,1680.1450126001146,None,1680.1450126001146,None,1680.4397758000996,1681.6737677000929,1680.4397758000996,1681.6737677000929,1681.705006599892,None,1681.705006599892,None,1681.705006599892,None,1681.705006599892,None,1681.705006599892,None,1681.705006599892,None,1681.705006599892,None,1681.705006599892,None,1681.705006599892,None,42,36,29,69,69,66,1684.222146499902,None,5.0,0.5045423000119627,1684.222146499902,None,1684.222146499902,None,1684.222146499902,None,1684.222146499902,None,None,None,1684.7424804999027,None,,,,,,,141,f,1,2022_Dec_13_1541,RL,2021.2.3,59.913461035414265,
1,103,0,103,0,,,,,,,,,,,,,,,None,None,None,None,None,1686.730525400024,None,1686.730525400024,None,1686.730525400024,None,1686.730525400024,None,j,0.31241840007714927,1686.730525400024,None,1686.730525400024,None,1687.0813492999878,None,1687.0813492999878,None,1687.0813492999878,None,1687.0813492999878,None,1687.0813492999878,None,1687.0813492999878,None,1687.3779176000971,None,1687.3779176000971,None,1688.964935899945,None,1688.964935899945,None,1688.964935899945,None,1688.964935899945,None,1688.964935899945,None,1688.964935899945,None,1688.964935899945,None,1688.964935899945,None,1688.964935899945,None,33,30,33,66,66,62,1691.4965667000506,None,4.0,1.2541183000430465,1691.4965667000506,None,1691.4965667000506,None,1691.4965667000506,None,1691.4965667000506,None,None,None,1692.7644231999293,None,,,,,,,141,f,1,2022_Dec_13_1541,RL,2021.2.3,59.913461035414265,
1,104,0,104,0,,,,,,,,,,,,,,,None,None,None,None,None,1694.4688371000811,None,1694.4688371000811,None,1694.4688371000811,None,1694.4688371000811,None,j,0.27422689995728433,1694.4688371000811,None,1694.4688371000811,None,1694.8053057000507,None,1694.8053057000507,None,1694.8053057000507,None,1694.8053057000507,None,1694.8053057000507,None,1694.8053057000507,None,1695.0998156999703,1697.0345697999,1695.0998156999703,1697.0345697999,1697.0654009000864,None,1697.0654009000864,None,1697.0654009000864,None,1697.0654009000864,None,1697.0654009000864,None,1697.0654009000864,None,1697.0654009000864,None,1697.0654009000864,None,1697.0654009000864,None,35,33,34,66,66,62,1699.5818080001045,None,4.0,0.6370422998443246,1699.5818080001045,None,1699.5818080001045,None,1699.5818080001045,None,1699.5818080001045,None,None,None,1700.2361057999078,None,,,,,,,141,f,1,2022_Dec_13_1541,RL,2021.2.3,59.913461035414265,
1,105,0,105,0,,,,,,,,,,,,,,,None,None,None,None,None,1701.840901199961,None,1701.840901199961,None,1701.840901199961,None,1701.840901199961,None,j,0.26227089995518327,1701.840901199961,None,1701.840901199961,None,1702.1421658999752,None,1702.1421658999752,None,1702.1421658999752,None,1702.1421658999752,None,1702.1421658999752,None,1702.1421658999752,None,1702.4384226000402,1703.3888995999005,1702.4384226000402,1703.3888995999005,1703.4201517999172,None,1703.4201517999172,None,1703.4201517999172,None,1703.4201517999172,None,1703.4201517999172,None,1703.4201517999172,None,1703.4201517999172,None,1703.4201517999172,None,1703.4201517999172,None,47,25,31,59,59,57,1705.9424382001162,None,3.0,0.6677784998901188,1705.9424382001162,None,1705.9424382001162,None,1705.9424382001162,None,1705.9424382001162,None,None,None,1706.624000800075,None,,,,,,,141,f,1,2022_Dec_13_1541,RL,2021.2.3,59.913461035414265,
1,106,0,106,0,,,,,,,,,,,,,,,None,None,None,None,None,1708.262138799997,None,1708.262138799997,None,1708.262138799997,None,1708.262138799997,None,j,0.2509859998244792,1708.262138799997,None,1708.262138799997,None,1708.566260300111,None,1708.566260300111,None,1708.566260300111,None,1708.566260300111,None,1708.566260300111,None,1708.566260300111,None,1708.8427230000962,1710.1435750999954,1708.8427230000962,1710.1435750999954,1710.174827199895,None,1710.174827199895,None,1710.174827199895,None,1710.174827199895,None,1710.174827199895,None,1710.174827199895,None,1710.174827199895,None,1710.174827199895,None,1710.174827199895,None,40,36,29,61,61,59,1712.697921199957,None,2.0,2.5676159998402,1712.697921199957,None,1712.697921199957,None,1712.697921199957,None,1712.697921199957,None,None,None,1715.2818779998925,None,,,,,,,141,f,1,2022_Dec_13_1541,RL,2021.2.3,59.913461035414265,
1,107,0,107,0,,,,,,,,,,,,,,,None,None,None,None,None,1717.1179412000347,None,1717.1179412000347,None,1717.1179412000347,None,1717.1179412000347,None,i,0.2952707000076771,1717.1179412000347,None,1717.1179412000347,None,1717.4549600000028,None,1717.4549600000028,None,1717.4549600000028,None,1717.4549600000028,None,1717.4549600000028,None,1717.4549600000028,None,1717.748998499941,None,1717.748998499941,None,1718.7838030999992,None,1718.7838030999992,None,1718.7838030999992,None,1718.7838030999992,None,1718.7838030999992,None,1718.7838030999992,None,1718.7838030999992,None,1718.7838030999992,None,1718.7838030999992,None,37,30,42,57,42,53,1721.2974660000764,None,2.0,0.602986500132829,1721.2974660000764,None,1721.2974660000764,None,1721.2974660000764,None,1721.2974660000764,None,None,None,1721.9251266000792,None,,,,,,,141,f,1,2022_Dec_13_1541,RL,2021.2.3,59.913461035414265,
1,108,0,108,0,,,,,,,,,,,,,,,None,None,None,None,None,1723.8893893999048,None,1723.8893893999048,None,1723.8893893999048,None,1723.8893893999048,None,j,0.25362200010567904,1723.8893893999048,None,1723.8893893999048,None,1724.192181600025,None,1724.192181600025,None,1724.192181600025,None,1724.192181600025,None,1724.192181600025,None,1724.192181600025,None,1724.4868081000168,None,1724.4868081000168,None,1726.4379189000465,None,1726.4379189000465,None,1726.4379189000465,None,1726.4379189000465,None,1726.4379189000465,None,1726.4379189000465,None,1726.4379189000465,None,1726.4379189000465,None,1726.4379189000465,None,40,25,33,71,71,66,1728.9540142000187,None,4.0,1.9556436999700963,1728.9540142000187,None,1728.9540142000187,None,1728.9540142000187,None,1728.9540142000187,None,None,None,1730.9240979999304,None,,,,,,,141,f,1,2022_Dec_13_1541,RL,2021.2.3,59.913461035414265,
1,109,0,109,0,,,,,,,,,,,,,,,None,None,None,None,None,1732.7293348000385,None,1732.7293348000385,None,1732.7293348000385,None,1732.7293348000385,None,j,0.4145578001625836,1732.7293348000385,None,1732.7293348000385,None,1733.1820191000588,None,1733.1820191000588,None,1733.1820191000588,None,1733.1820191000588,None,1733.1820191000588,None,1733.1820191000588,None,1733.4766206999775,None,1733.4766206999775,None,1735.1743701999076,None,1735.1743701999076,None,1735.1743701999076,None,1735.1743701999076,None,1735.1743701999076,None,1735.1743701999076,None,1735.1743701999076,None,1735.1743701999076,None,1735.1743701999076,None,56,16,38,65,65,65,1737.6896651000716,None,3.0,0.8221011999994516,1737.6896651000716,None,1737.6896651000716,None,1737.6896651000716,None,1737.6896651000716,None,None,None,1738.535112200072,None,,,,,,,141,f,1,2022_Dec_13_1541,RL,2021.2.3,59.913461035414265,
1,110,0,110,0,,,,,,,,,,,,,,,None,None,None,None,None,1740.1006944000255,None,1740.1006944000255,None,1740.1006944000255,None,1740.1006944000255,None,j,0.3335945000872016,1740.1006944000255,None,1740.1006944000255,None,1740.4881816001143,None,1740.4881816001143,None,1740.4881816001143,None,1740.4881816001143,None,1740.4881816001143,None,1740.4881816001143,None,1740.7815815000795,None,1740.7815815000795,None,1742.6029781000689,None,1742.6029781000689,None,1742.6029781000689,None,1742.6029781000689,None,1742.6029781000689,None,1742.6029781000689,None,1742.6029781000689,None,1742.6029781000689,None,1742.6029781000689,None,38,25,47,64,64,57,1745.1139148001093,None,5.0,1.3561414999421686,1745.1139148001093,None,1745.1139148001093,None,1745.1139148001093,None,1745.1139148001093,None,None,None,1746.4850053000264,None,,,,,,,141,f,1,2022_Dec_13_1541,RL,2021.2.3,59.913461035414265,
