bandit,trials.thisRepN,trials.thisTrialN,trials.thisN,trials.thisIndex,instru_img1.started,instru_img1.stopped,instru_resp.keys,instru_resp.rt,instru_resp.started,instru_resp.stopped,instru_img2.started,instru_img2.stopped,instru_resp2.keys,instru_resp2.rt,instru_resp2.started,instru_resp2.stopped,fixbefore_2.started,fixbefore_2.stopped,rest_image.started,rest_image.stopped,rest_response.keys,rest_response.started,rest_response.stopped,red.started,red.stopped,green.started,green.stopped,yellow.started,yellow.stopped,blue.started,blue.stopped,choose_bandit.keys,choose_bandit.rt,choose_bandit.started,choose_bandit.stopped,Fixation.started,Fixation.stopped,black.started,black.stopped,red_2.started,red_2.stopped,green_2.started,green_2.stopped,yellow_2.started,yellow_2.stopped,blue_2.started,blue_2.stopped,fixation_2.started,fixation_2.stopped,docs.started,docs.stopped,image_2.started,image_2.stopped,black_com.started,black_com.stopped,reward_sub.started,reward_sub.stopped,palyerb.started,palyerb.stopped,reward__sub.started,reward__sub.stopped,compare.started,compare.stopped,red_compare.started,red_compare.stopped,green_com.started,green_com.stopped,yellow_com.started,yellow_com.stopped,blue_com.started,blue_com.stopped,rewardyellow,rewardred,rewardblue,rewardgreen,subchoose,playerb,image_3.started,image_3.stopped,slider.response,slider.rt,slider.started,slider.stopped,text.started,text.stopped,image_4.started,image_4.stopped,image_5.started,image_5.stopped,bigx.started,bigx.stopped,intertrialfix.started,intertrialfix.stopped,rest_response.rt,image.started,image.stopped,key_resp.keys,key_resp.started,key_resp.stopped,participant,Gender,Age,date,expName,psychopyVersion,frameRate,
,,,,,465.49785759998485,None,space,34.20885010017082,465.49785759998485,None,,,,,,,,,,,,,,,,,,,,,,,,,,,,,,,,,,,,,,,,,,,,,,,,,,,,,,,,,,,,,,,,,,,,,,,,,,,,,,,,,,,,,,,,,,143,f,1,2022_Dec_13_1633,RL,2021.2.3,60.13109787981678,
,,,,,,,,,,,499.7464729002677,None,space,42.65067100012675,499.7464729002677,None,,,,,,,,,,,,,,,,,,,,,,,,,,,,,,,,,,,,,,,,,,,,,,,,,,,,,,,,,,,,,,,,,,,,,,,,,,,,,,,,,,,,143,f,1,2022_Dec_13_1633,RL,2021.2.3,60.13109787981678,
1,0,0,0,0,,,,,,,,,,,,,542.4197410000488,None,None,None,None,None,None,543.4358288999647,None,543.4358288999647,None,543.4358288999647,None,543.4358288999647,None,f,0.6186342001892626,543.4358288999647,None,543.4358288999647,None,544.1041540000588,None,544.1041540000588,None,544.1041540000588,None,544.1041540000588,None,544.1041540000588,None,544.1041540000588,None,544.3965564998798,545.975192700047,544.3965564998798,545.975192700047,546.0110968998633,None,546.0110968998633,None,546.0110968998633,None,546.0110968998633,None,546.0110968998633,None,546.0110968998633,None,546.0110968998633,None,546.0110968998633,None,546.0110968998633,None,39,59,53,40,59,44,548.5277555002831,None,6.0,2.468748699873686,548.5277555002831,None,548.5277555002831,None,548.5277555002831,None,548.5277555002831,None,None,None,551.0573418000713,None,,,,,,,143,f,1,2022_Dec_13_1633,RL,2021.2.3,60.13109787981678,
1,1,0,1,0,,,,,,,,,,,,,,,None,None,None,None,None,552.83897599997,None,552.83897599997,None,552.83897599997,None,552.83897599997,None,i,0.48120729997754097,552.83897599997,None,552.83897599997,None,553.3487827000208,None,553.3487827000208,None,553.3487827000208,None,553.3487827000208,None,553.3487827000208,None,553.3487827000208,None,553.637472699862,None,553.637472699862,None,554.5594762000255,None,554.5594762000255,None,554.5594762000255,None,554.5594762000255,None,554.5594762000255,None,554.5594762000255,None,554.5594762000255,None,554.5594762000255,None,554.5594762000255,None,29,53,41,49,41,49,557.0646420000121,None,4.0,1.5882700998336077,557.0646420000121,None,557.0646420000121,None,557.0646420000121,None,557.0646420000121,None,None,None,558.6724419998936,None,,,,,,,143,f,1,2022_Dec_13_1633,RL,2021.2.3,60.13109787981678,
1,2,0,2,0,,,,,,,,,,,,,,,None,None,None,None,None,560.3188860001974,None,560.3188860001974,None,560.3188860001974,None,560.3188860001974,None,r,0.6236438998021185,560.3188860001974,None,560.3188860001974,None,560.9765284000896,None,560.9765284000896,None,560.9765284000896,None,560.9765284000896,None,560.9765284000896,None,560.9765284000896,None,561.2667451002635,562.5797478999011,561.2667451002635,562.5797478999011,562.6030240999535,None,562.6030240999535,None,562.6030240999535,None,562.6030240999535,None,562.6030240999535,None,562.6030240999535,None,562.6030240999535,None,562.6030240999535,None,562.6030240999535,None,42,55,45,50,42,72,565.1115501001477,None,3.0,1.5046084001660347,565.1115501001477,None,565.1115501001477,None,565.1115501001477,None,565.1115501001477,None,None,None,566.6343263001181,None,,,,,,,143,f,1,2022_Dec_13_1633,RL,2021.2.3,60.13109787981678,
1,3,0,3,0,,,,,,,,,,,,,,,None,None,None,None,None,568.2807808001526,None,568.2807808001526,None,568.2807808001526,None,568.2807808001526,None,f,0.5144263999536633,568.2807808001526,None,568.2807808001526,None,568.8226197999902,None,568.8226197999902,None,568.8226197999902,None,568.8226197999902,None,568.8226197999902,None,568.8226197999902,None,569.1118934000842,570.3418976999819,569.1118934000842,570.3418976999819,570.3652552999556,None,570.3652552999556,None,570.3652552999556,None,570.3652552999556,None,570.3652552999556,None,570.3652552999556,None,570.3652552999556,None,570.3652552999556,None,570.3652552999556,None,31,46,52,47,46,33,572.8702870998532,None,5.0,1.874342099763453,572.8702870998532,None,572.8702870998532,None,572.8702870998532,None,572.8702870998532,None,None,None,574.7620879001915,None,,,,,,,143,f,1,2022_Dec_13_1633,RL,2021.2.3,60.13109787981678,
1,4,0,4,0,,,,,,,,,,,,,,,None,None,None,None,None,576.5078626000322,None,576.5078626000322,None,576.5078626000322,None,576.5078626000322,None,i,0.7451205002143979,576.5078626000322,None,576.5078626000322,None,577.286188500002,None,577.286188500002,None,577.286188500002,None,577.286188500002,None,577.286188500002,None,577.286188500002,None,577.5725007001311,578.8021689001471,577.5725007001311,578.8021689001471,578.8260077000596,None,578.8260077000596,None,578.8260077000596,None,578.8260077000596,None,578.8260077000596,None,578.8260077000596,None,578.8260077000596,None,578.8260077000596,None,578.8260077000596,None,42,45,48,43,48,60,581.3350154999644,None,5.0,1.9387238002382219,581.3350154999644,None,581.3350154999644,None,581.3350154999644,None,581.3350154999644,None,None,None,583.2888933001086,None,,,,,,,143,f,1,2022_Dec_13_1633,RL,2021.2.3,60.13109787981678,
1,5,0,5,0,,,,,,,,,,,,,,,None,None,None,None,None,585.01809220016,None,585.01809220016,None,585.01809220016,None,585.01809220016,None,j,0.45143660018220544,585.01809220016,None,585.01809220016,None,585.5121710998937,None,585.5121710998937,None,585.5121710998937,None,585.5121710998937,None,585.5121710998937,None,585.5121710998937,None,585.799547499977,587.2454369002953,585.799547499977,587.2454369002953,587.2644974002615,None,587.2644974002615,None,587.2644974002615,None,587.2644974002615,None,587.2644974002615,None,587.2644974002615,None,587.2644974002615,None,587.2644974002615,None,587.2644974002615,None,41,52,50,43,43,65,589.7756226998754,None,3.0,2.004476699978113,589.7756226998754,None,589.7756226998754,None,589.7756226998754,None,589.7756226998754,None,None,None,591.7998804003,None,,,,,,,143,f,1,2022_Dec_13_1633,RL,2021.2.3,60.13109787981678,
1,6,0,6,0,,,,,,,,,,,,,,,None,None,None,None,None,593.7110051000491,None,593.7110051000491,None,593.7110051000491,None,593.7110051000491,None,f,0.5036092000082135,593.7110051000491,None,593.7110051000491,None,594.2550929998979,None,594.2550929998979,None,594.2550929998979,None,594.2550929998979,None,594.2550929998979,None,594.2550929998979,None,594.5427749999799,596.2212932002731,594.5427749999799,596.2212932002731,596.2429110999219,None,596.2429110999219,None,596.2429110999219,None,596.2429110999219,None,596.2429110999219,None,596.2429110999219,None,596.2429110999219,None,596.2429110999219,None,596.2429110999219,None,45,52,46,37,52,48,598.75541790016,None,5.0,1.917984299827367,598.75541790016,None,598.75541790016,None,598.75541790016,None,598.75541790016,None,None,None,600.6913952999748,None,,,,,,,143,f,1,2022_Dec_13_1633,RL,2021.2.3,60.13109787981678,
1,7,0,7,0,,,,,,,,,,,,,,,None,None,None,None,None,602.6865023002028,None,602.6865023002028,None,602.6865023002028,None,602.6865023002028,None,j,0.45745160011574626,602.6865023002028,None,602.6865023002028,None,603.1797350998968,None,603.1797350998968,None,603.1797350998968,None,603.1797350998968,None,603.1797350998968,None,603.1797350998968,None,603.467967200093,604.5980052002706,603.467967200093,604.5980052002706,604.6207187999971,None,604.6207187999971,None,604.6207187999971,None,604.6207187999971,None,604.6207187999971,None,604.6207187999971,None,604.6207187999971,None,604.6207187999971,None,604.6207187999971,None,48,51,42,35,35,51,607.1296200002544,None,2.0,1.4873612998053432,607.1296200002544,None,607.1296200002544,None,607.1296200002544,None,607.1296200002544,None,None,None,608.636290400289,None,,,,,,,143,f,1,2022_Dec_13_1633,RL,2021.2.3,60.13109787981678,
1,8,0,8,0,,,,,,,,,,,,,,,None,None,None,None,None,610.3491130000912,None,610.3491130000912,None,610.3491130000912,None,610.3491130000912,None,r,0.7806309000588953,610.3491130000912,None,610.3491130000912,None,611.1567497001961,None,611.1567497001961,None,611.1567497001961,None,611.1567497001961,None,611.1567497001961,None,611.1567497001961,None,611.4463554001413,612.9422121001408,611.4463554001413,612.9422121001408,612.9639373999089,None,612.9639373999089,None,612.9639373999089,None,612.9639373999089,None,612.9639373999089,None,612.9639373999089,None,612.9639373999089,None,612.9639373999089,None,612.9639373999089,None,43,55,40,47,43,64,615.4748428002931,None,3.0,0.9548355997540057,615.4748428002931,None,615.4748428002931,None,615.4748428002931,None,615.4748428002931,None,None,None,616.4484051000327,None,,,,,,,143,f,1,2022_Dec_13_1633,RL,2021.2.3,60.13109787981678,
1,9,0,9,0,,,,,,,,,,,,,,,None,None,None,None,None,618.410490500275,None,618.410490500275,None,618.410490500275,None,618.410490500275,None,j,0.5498037999495864,618.410490500275,None,618.410490500275,None,618.9863606998697,None,618.9863606998697,None,618.9863606998697,None,618.9863606998697,None,618.9863606998697,None,618.9863606998697,None,619.2751040998846,None,619.2751040998846,None,620.2928309999406,None,620.2928309999406,None,620.2928309999406,None,620.2928309999406,None,620.2928309999406,None,620.2928309999406,None,620.2928309999406,None,620.2928309999406,None,620.2928309999406,None,46,56,46,43,43,69,622.8021606002003,None,3.0,1.2061465997248888,622.8021606002003,None,622.8021606002003,None,622.8021606002003,None,622.8021606002003,None,None,None,624.0274044000544,None,,,,,,,143,f,1,2022_Dec_13_1633,RL,2021.2.3,60.13109787981678,
1,10,0,10,0,,,,,,,,,,,,,,,None,None,None,None,None,625.5572959003039,None,625.5572959003039,None,625.5572959003039,None,625.5572959003039,None,r,0.9130963999778032,625.5572959003039,None,625.5572959003039,None,626.4994063000195,None,626.4994063000195,None,626.4994063000195,None,626.4994063000195,None,626.4994063000195,None,626.4994063000195,None,626.7876821998507,None,626.7876821998507,None,628.6370514002629,None,628.6370514002629,None,628.6370514002629,None,628.6370514002629,None,628.6370514002629,None,628.6370514002629,None,628.6370514002629,None,628.6370514002629,None,628.6370514002629,None,52,57,60,46,52,45,631.1487779999152,None,4.0,1.7368888002820313,631.1487779999152,None,631.1487779999152,None,631.1487779999152,None,631.1487779999152,None,None,None,632.9032594999298,None,,,,,,,143,f,1,2022_Dec_13_1633,RL,2021.2.3,60.13109787981678,
1,11,0,11,0,,,,,,,,,,,,,,,None,None,None,None,None,634.51615400007,None,634.51615400007,None,634.51615400007,None,634.51615400007,None,i,0.25318910041823983,634.51615400007,None,634.51615400007,None,634.8139988002367,None,634.8139988002367,None,634.8139988002367,None,634.8139988002367,None,634.8139988002367,None,634.8139988002367,None,635.0986307002604,636.8934789998457,635.0986307002604,636.8934789998457,636.9153109001927,None,636.9153109001927,None,636.9153109001927,None,636.9153109001927,None,636.9153109001927,None,636.9153109001927,None,636.9153109001927,None,636.9153109001927,None,636.9153109001927,None,52,59,47,43,47,43,639.4252043999732,None,5.0,1.020734400022775,639.4252043999732,None,639.4252043999732,None,639.4252043999732,None,639.4252043999732,None,None,None,640.4663701001555,None,,,,,,,143,f,1,2022_Dec_13_1633,RL,2021.2.3,60.13109787981678,
1,12,0,12,0,,,,,,,,,,,,,,,None,None,None,None,None,642.1291578002274,None,642.1291578002274,None,642.1291578002274,None,642.1291578002274,None,j,0.6096956003457308,642.1291578002274,None,642.1291578002274,None,642.7696330002509,None,642.7696330002509,None,642.7696330002509,None,642.7696330002509,None,642.7696330002509,None,642.7696330002509,None,643.0602146000601,None,643.0602146000601,None,644.8080104999244,None,644.8080104999244,None,644.8080104999244,None,644.8080104999244,None,644.8080104999244,None,644.8080104999244,None,644.8080104999244,None,644.8080104999244,None,644.8080104999244,None,52,57,51,47,47,54,647.3193836002611,None,4.0,1.2723007998429239,647.3193836002611,None,647.3193836002611,None,647.3193836002611,None,647.3193836002611,None,None,None,648.6105460003018,None,,,,,,,143,f,1,2022_Dec_13_1633,RL,2021.2.3,60.13109787981678,
1,13,0,13,0,,,,,,,,,,,,,,,None,None,None,None,None,650.140708300285,None,650.140708300285,None,650.140708300285,None,650.140708300285,None,r,0.46284049982205033,650.140708300285,None,650.140708300285,None,650.6364303003065,None,650.6364303003065,None,650.6364303003065,None,650.6364303003065,None,650.6364303003065,None,650.6364303003065,None,650.9219343001023,None,650.9219343001023,None,651.9425980001688,None,651.9425980001688,None,651.9425980001688,None,651.9425980001688,None,651.9425980001688,None,651.9425980001688,None,651.9425980001688,None,651.9425980001688,None,651.9425980001688,None,57,51,54,52,57,66,654.4507710002363,None,4.0,1.2050389996729791,654.4507710002363,None,654.4507710002363,None,654.4507710002363,None,654.4507710002363,None,None,None,655.6746380999684,None,,,,,,,143,f,1,2022_Dec_13_1633,RL,2021.2.3,60.13109787981678,
1,14,0,14,0,,,,,,,,,,,,,,,None,None,None,None,None,657.5536185000092,None,657.5536185000092,None,657.5536185000092,None,657.5536185000092,None,r,0.6043779002502561,657.5536185000092,None,657.5536185000092,None,658.1993408999406,None,658.1993408999406,None,658.1993408999406,None,658.1993408999406,None,658.1993408999406,None,658.1993408999406,None,658.4848787002265,660.2297645001672,658.4848787002265,660.2297645001672,660.2513095000759,None,660.2513095000759,None,660.2513095000759,None,660.2513095000759,None,660.2513095000759,None,660.2513095000759,None,660.2513095000759,None,660.2513095000759,None,660.2513095000759,None,58,44,52,50,58,65,662.7659203000367,None,4.0,2.0662319003604352,662.7659203000367,None,662.7659203000367,None,662.7659203000367,None,662.7659203000367,None,None,None,664.8497291998938,None,,,,,,,143,f,1,2022_Dec_13_1633,RL,2021.2.3,60.13109787981678,
1,15,0,15,0,,,,,,,,,,,,,,,None,None,None,None,None,666.4788367999718,None,666.4788367999718,None,666.4788367999718,None,666.4788367999718,None,i,0.8132131998427212,666.4788367999718,None,666.4788367999718,None,667.3231802000664,None,667.3231802000664,None,667.3231802000664,None,667.3231802000664,None,667.3231802000664,None,667.3231802000664,None,667.6099824002013,668.8228629999794,667.6099824002013,668.8228629999794,668.847317900043,None,668.847317900043,None,668.847317900043,None,668.847317900043,None,668.847317900043,None,668.847317900043,None,668.847317900043,None,668.847317900043,None,668.847317900043,None,55,52,46,48,46,66,671.3532479000278,None,3.0,1.306298699695617,671.3532479000278,None,671.3532479000278,None,671.3532479000278,None,671.3532479000278,None,None,None,672.6782503002323,None,,,,,,,143,f,1,2022_Dec_13_1633,RL,2021.2.3,60.13109787981678,
1,16,0,16,0,,,,,,,,,,,,,,,None,None,None,None,None,674.5741277001798,None,674.5741277001798,None,674.5741277001798,None,674.5741277001798,None,j,0.5467493999749422,674.5741277001798,None,674.5741277001798,None,675.1487108999863,None,675.1487108999863,None,675.1487108999863,None,675.1487108999863,None,675.1487108999863,None,675.1487108999863,None,675.4382311999798,677.2001288998872,675.4382311999798,677.2001288998872,677.2222299999557,None,677.2222299999557,None,677.2222299999557,None,677.2222299999557,None,677.2222299999557,None,677.2222299999557,None,677.2222299999557,None,677.2222299999557,None,677.2222299999557,None,50,56,51,59,59,52,679.7336746002547,None,5.0,0.6235273000784218,679.7336746002547,None,679.7336746002547,None,679.7336746002547,None,679.7336746002547,None,None,None,680.3744788002223,None,,,,,,,143,f,1,2022_Dec_13_1633,RL,2021.2.3,60.13109787981678,
1,17,0,17,0,,,,,,,,,,,,,,,None,None,None,None,None,681.9038452999666,None,681.9038452999666,None,681.9038452999666,None,681.9038452999666,None,r,0.4171931999735534,681.9038452999666,None,681.9038452999666,None,682.3468868001364,None,682.3468868001364,None,682.3468868001364,None,682.3468868001364,None,682.3468868001364,None,682.3468868001364,None,682.6353250001557,683.9816049002111,682.6353250001557,683.9816049002111,684.003625900019,None,684.003625900019,None,684.003625900019,None,684.003625900019,None,684.003625900019,None,684.003625900019,None,684.003625900019,None,684.003625900019,None,684.003625900019,None,53,51,43,61,53,67,686.5142588000745,None,3.0,0.8219441999681294,686.5142588000745,None,686.5142588000745,None,686.5142588000745,None,686.5142588000745,None,None,None,687.3546219002455,None,,,,,,,143,f,1,2022_Dec_13_1633,RL,2021.2.3,60.13109787981678,
1,18,0,18,0,,,,,,,,,,,,,,,None,None,None,None,None,689.2339470000006,None,689.2339470000006,None,689.2339470000006,None,689.2339470000006,None,f,0.33192870020866394,689.2339470000006,None,689.2339470000006,None,689.5973100000992,None,689.5973100000992,None,689.5973100000992,None,689.5973100000992,None,689.5973100000992,None,689.5973100000992,None,689.8821860998869,691.7438318002969,689.8821860998869,691.7438318002969,691.7644720003009,None,691.7644720003009,None,691.7644720003009,None,691.7644720003009,None,691.7644720003009,None,691.7644720003009,None,691.7644720003009,None,691.7644720003009,None,691.7644720003009,None,50,55,50,46,55,72,694.2759201000445,None,2.0,1.1223638001829386,694.2759201000445,None,694.2759201000445,None,694.2759201000445,None,694.2759201000445,None,None,None,695.4165330999531,None,,,,,,,143,f,1,2022_Dec_13_1633,RL,2021.2.3,60.13109787981678,
1,19,0,19,0,,,,,,,,,,,,,,,None,None,None,None,None,697.2615943001583,None,697.2615943001583,None,697.2615943001583,None,697.2615943001583,None,i,0.7328729000873864,697.2615943001583,None,697.2615943001583,None,698.035866400227,None,698.035866400227,None,698.035866400227,None,698.035866400227,None,698.035866400227,None,698.035866400227,None,698.32612039987,699.5889011998661,698.32612039987,699.5889011998661,699.6100647002459,None,699.6100647002459,None,699.6100647002459,None,699.6100647002459,None,699.6100647002459,None,699.6100647002459,None,699.6100647002459,None,699.6100647002459,None,699.6100647002459,None,38,55,37,56,37,51,702.1223216000944,None,1.0,1.3360711000859737,702.1223216000944,None,702.1223216000944,None,702.1223216000944,None,702.1223216000944,None,None,None,703.4773869998753,None,,,,,,,143,f,1,2022_Dec_13_1633,RL,2021.2.3,60.13109787981678,
1,20,0,20,0,,,,,,,,,,,,,,,None,None,None,None,None,705.1735677998513,None,705.1735677998513,None,705.1735677998513,None,705.1735677998513,None,f,0.41992339957505465,705.1735677998513,None,705.1735677998513,None,705.6359478002414,None,705.6359478002414,None,705.6359478002414,None,705.6359478002414,None,705.6359478002414,None,705.6359478002414,None,705.9218354001641,707.7339240000583,705.9218354001641,707.7339240000583,707.7558246999979,None,707.7558246999979,None,707.7558246999979,None,707.7558246999979,None,707.7558246999979,None,707.7558246999979,None,707.7558246999979,None,707.7558246999979,None,707.7558246999979,None,52,44,53,63,44,51,710.2680943002924,None,3.0,1.0531595000065863,710.2680943002924,None,710.2680943002924,None,710.2680943002924,None,710.2680943002924,None,None,None,711.3393683000468,None,,,,,,,143,f,1,2022_Dec_13_1633,RL,2021.2.3,60.13109787981678,
1,21,0,21,0,,,,,,,,,,,,,,,None,None,None,None,None,712.9359293002635,None,712.9359293002635,None,712.9359293002635,None,712.9359293002635,None,r,0.7815619003959,712.9359293002635,None,712.9359293002635,None,713.7452619001269,None,713.7452619001269,None,713.7452619001269,None,713.7452619001269,None,713.7452619001269,None,713.7452619001269,None,714.033419799991,715.0137903001159,714.033419799991,715.0137903001159,715.0340268001892,None,715.0340268001892,None,715.0340268001892,None,715.0340268001892,None,715.0340268001892,None,715.0340268001892,None,715.0340268001892,None,715.0340268001892,None,715.0340268001892,None,47,56,45,58,47,44,717.5456213001162,None,4.0,1.0233551999554038,717.5456213001162,None,717.5456213001162,None,717.5456213001162,None,717.5456213001162,None,None,None,718.5874260999262,None,,,,,,,143,f,1,2022_Dec_13_1633,RL,2021.2.3,60.13109787981678,
1,22,0,22,0,,,,,,,,,,,,,,,None,None,None,None,None,720.2656902000308,None,720.2656902000308,None,720.2656902000308,None,720.2656902000308,None,j,0.6472845999523997,720.2656902000308,None,720.2656902000308,None,720.9428865001537,None,720.9428865001537,None,720.9428865001537,None,720.9428865001537,None,720.9428865001537,None,720.9428865001537,None,721.2300634002313,722.0612198999152,721.2300634002313,722.0612198999152,722.0813950002193,None,722.0813950002193,None,722.0813950002193,None,722.0813950002193,None,722.0813950002193,None,722.0813950002193,None,722.0813950002193,None,722.0813950002193,None,722.0813950002193,None,43,44,45,57,57,41,724.5912347002886,None,5.0,0.7735923998989165,724.5912347002886,None,724.5912347002886,None,724.5912347002886,None,724.5912347002886,None,None,None,725.384382400196,None,,,,,,,143,f,1,2022_Dec_13_1633,RL,2021.2.3,60.13109787981678,
1,23,0,23,0,,,,,,,,,,,,,,,None,None,None,None,None,727.1971136000939,None,727.1971136000939,None,727.1971136000939,None,727.1971136000939,None,i,0.4305837000720203,727.1971136000939,None,727.1971136000939,None,727.6579744000919,None,727.6579744000919,None,727.6579744000919,None,727.6579744000919,None,727.6579744000919,None,727.6579744000919,None,727.945405300241,728.8262906000018,727.945405300241,728.8262906000018,728.8467701002955,None,728.8467701002955,None,728.8467701002955,None,728.8467701002955,None,728.8467701002955,None,728.8467701002955,None,728.8467701002955,None,728.8467701002955,None,728.8467701002955,None,52,55,39,57,39,58,731.3604214000516,None,3.0,0.9854367999359965,731.3604214000516,None,731.3604214000516,None,731.3604214000516,None,731.3604214000516,None,None,None,732.3653953000903,None,,,,,,,143,f,1,2022_Dec_13_1633,RL,2021.2.3,60.13109787981678,
1,24,0,24,0,,,,,,,,,,,,,,,None,None,None,None,None,733.9450627998449,None,733.9450627998449,None,733.9450627998449,None,733.9450627998449,None,f,0.4481851998716593,733.9450627998449,None,733.9450627998449,None,734.421449100133,None,734.421449100133,None,734.421449100133,None,734.421449100133,None,734.421449100133,None,734.421449100133,None,734.7102911998518,736.3885152000003,734.7102911998518,736.3885152000003,736.41158930026,None,736.41158930026,None,736.41158930026,None,736.41158930026,None,736.41158930026,None,736.41158930026,None,736.41158930026,None,736.41158930026,None,736.41158930026,None,46,54,49,68,54,43,738.9202880999073,None,4.0,1.0553306001238525,738.9202880999073,None,738.9202880999073,None,738.9202880999073,None,738.9202880999073,None,None,None,739.9946399000473,None,,,,,,,143,f,1,2022_Dec_13_1633,RL,2021.2.3,60.13109787981678,
1,25,0,25,0,,,,,,,,,,,,,,,None,None,None,None,None,741.6240802998655,None,741.6240802998655,None,741.6240802998655,None,741.6240802998655,None,f,0.3538688998669386,741.6240802998655,None,741.6240802998655,None,742.0173995001242,None,742.0173995001242,None,742.0173995001242,None,742.0173995001242,None,742.0173995001242,None,742.0173995001242,None,742.3061794000678,743.7851602002047,742.3061794000678,743.7851602002047,743.8047603000887,None,743.8047603000887,None,743.8047603000887,None,743.8047603000887,None,743.8047603000887,None,743.8047603000887,None,743.8047603000887,None,743.8047603000887,None,743.8047603000887,None,39,51,54,57,51,64,746.315016800072,None,3.0,0.6910383002832532,746.315016800072,None,746.315016800072,None,746.315016800072,None,746.315016800072,None,None,None,747.0255289999768,None,,,,,,,143,f,1,2022_Dec_13_1633,RL,2021.2.3,60.13109787981678,
1,26,0,26,0,,,,,,,,,,,,,,,None,None,None,None,None,748.5552687998861,None,748.5552687998861,None,748.5552687998861,None,748.5552687998861,None,f,0.4283147999085486,748.5552687998861,None,748.5552687998861,None,749.0136862001382,None,749.0136862001382,None,749.0136862001382,None,749.0136862001382,None,749.0136862001382,None,749.0136862001382,None,749.3038357999176,None,749.3038357999176,None,750.9859656002373,None,750.9859656002373,None,750.9859656002373,None,750.9859656002373,None,750.9859656002373,None,750.9859656002373,None,750.9859656002373,None,750.9859656002373,None,750.9859656002373,None,38,55,54,61,55,58,753.4953494998626,None,4.0,0.775186900049448,753.4953494998626,None,753.4953494998626,None,753.4953494998626,None,753.4953494998626,None,None,None,754.2888799998909,None,,,,,,,143,f,1,2022_Dec_13_1633,RL,2021.2.3,60.13109787981678,
1,27,0,27,0,,,,,,,,,,,,,,,None,None,None,None,None,756.1848046998493,None,756.1848046998493,None,756.1848046998493,None,756.1848046998493,None,r,0.8931124997325242,756.1848046998493,None,756.1848046998493,None,757.1092821001075,None,757.1092821001075,None,757.1092821001075,None,757.1092821001075,None,757.1092821001075,None,757.1092821001075,None,757.3981217001565,758.2955061001703,757.3981217001565,758.2955061001703,758.318313700147,None,758.318313700147,None,758.318313700147,None,758.318313700147,None,758.318313700147,None,758.318313700147,None,758.318313700147,None,758.318313700147,None,758.318313700147,None,35,59,53,58,35,44,760.8279948001727,None,2.0,0.8888866999186575,760.8279948001727,None,760.8279948001727,None,760.8279948001727,None,760.8279948001727,None,None,None,761.7355446000583,None,,,,,,,143,f,1,2022_Dec_13_1633,RL,2021.2.3,60.13109787981678,
1,28,0,28,0,,,,,,,,,,,,,,,None,None,None,None,None,763.6975239003077,None,763.6975239003077,None,763.6975239003077,None,763.6975239003077,None,i,0.41069639986380935,763.6975239003077,None,763.6975239003077,None,764.1406115000136,None,764.1406115000136,None,764.1406115000136,None,764.1406115000136,None,764.1406115000136,None,764.1406115000136,None,764.4292041999288,None,764.4292041999288,None,766.4297287999652,None,766.4297287999652,None,766.4297287999652,None,766.4297287999652,None,766.4297287999652,None,766.4297287999652,None,766.4297287999652,None,766.4297287999652,None,766.4297287999652,None,37,56,66,67,66,37,768.9385718000121,None,5.0,0.6402408997528255,768.9385718000121,None,768.9385718000121,None,768.9385718000121,None,768.9385718000121,None,None,None,769.5970453000627,None,,,,,,,143,f,1,2022_Dec_13_1633,RL,2021.2.3,60.13109787981678,
1,29,0,29,0,,,,,,,,,,,,,,,None,None,None,None,None,771.4431896000169,None,771.4431896000169,None,771.4431896000169,None,771.4431896000169,None,i,0.3349168999120593,771.4431896000169,None,771.4431896000169,None,771.8187589002773,None,771.8187589002773,None,771.8187589002773,None,771.8187589002773,None,771.8187589002773,None,771.8187589002773,None,772.1078627002425,None,772.1078627002425,None,773.1248992001638,None,773.1248992001638,None,773.1248992001638,None,773.1248992001638,None,773.1248992001638,None,773.1248992001638,None,773.1248992001638,None,773.1248992001638,None,773.1248992001638,None,36,43,54,57,54,65,775.6345446999185,None,4.0,0.9103176002390683,775.6345446999185,None,775.6345446999185,None,775.6345446999185,None,775.6345446999185,None,None,None,776.5613603000529,None,,,,,,,143,f,1,2022_Dec_13_1633,RL,2021.2.3,60.13109787981678,
1,30,0,30,0,,,,,,,,,,,,,,,None,None,None,None,None,778.1079168003052,None,778.1079168003052,None,778.1079168003052,None,778.1079168003052,None,i,0.37577279983088374,778.1079168003052,None,778.1079168003052,None,778.5188163002022,None,778.5188163002022,None,778.5188163002022,None,778.5188163002022,None,778.5188163002022,None,778.5188163002022,None,778.8066535000689,780.3685731003061,778.8066535000689,780.3685731003061,780.388910499867,None,780.388910499867,None,780.388910499867,None,780.388910499867,None,780.388910499867,None,780.388910499867,None,780.388910499867,None,780.388910499867,None,780.388910499867,None,39,59,70,53,70,37,782.9001861000434,None,6.0,0.9081234997138381,782.9001861000434,None,782.9001861000434,None,782.9001861000434,None,782.9001861000434,None,None,None,783.8250887999311,None,,,,,,,143,f,1,2022_Dec_13_1633,RL,2021.2.3,60.13109787981678,
1,31,0,31,0,,,,,,,,,,,,,,,None,None,None,None,None,785.8374347002245,None,785.8374347002245,None,785.8374347002245,None,785.8374347002245,None,i,0.3520827000029385,785.8374347002245,None,785.8374347002245,None,786.2302731000818,None,786.2302731000818,None,786.2302731000818,None,786.2302731000818,None,786.2302731000818,None,786.2302731000818,None,786.5190155999735,None,786.5190155999735,None,788.19892850006,None,788.19892850006,None,788.19892850006,None,788.19892850006,None,788.19892850006,None,788.19892850006,None,788.19892850006,None,788.19892850006,None,788.19892850006,None,30,43,63,58,63,52,790.7099449001253,None,5.0,0.7920549996197224,790.7099449001253,None,790.7099449001253,None,790.7099449001253,None,790.7099449001253,None,None,None,791.5206921999343,None,,,,,,,143,f,1,2022_Dec_13_1633,RL,2021.2.3,60.13109787981678,
1,32,0,32,0,,,,,,,,,,,,,,,None,None,None,None,None,793.2169925002381,None,793.2169925002381,None,793.2169925002381,None,793.2169925002381,None,j,0.8819907000288367,793.2169925002381,None,793.2169925002381,None,794.1438703001477,None,794.1438703001477,None,794.1438703001477,None,794.1438703001477,None,794.1438703001477,None,794.1438703001477,None,794.4303895002231,None,794.4303895002231,None,795.9957212000154,None,795.9957212000154,None,795.9957212000154,None,795.9957212000154,None,795.9957212000154,None,795.9957212000154,None,795.9957212000154,None,795.9957212000154,None,795.9957212000154,None,31,39,71,60,60,47,798.5090859001502,None,7.0,0.6074425000697374,798.5090859001502,None,798.5090859001502,None,798.5090859001502,None,798.5090859001502,None,None,None,799.1331151998602,None,,,,,,,143,f,1,2022_Dec_13_1633,RL,2021.2.3,60.13109787981678,
1,33,0,33,0,,,,,,,,,,,,,,,None,None,None,None,None,800.8458087001927,None,800.8458087001927,None,800.8458087001927,None,800.8458087001927,None,j,0.3090369002893567,800.8458087001927,None,800.8458087001927,None,801.1885871002451,None,801.1885871002451,None,801.1885871002451,None,801.1885871002451,None,801.1885871002451,None,801.1885871002451,None,801.4777962998487,802.6247649001889,801.4777962998487,802.6247649001889,802.6462818998843,None,802.6462818998843,None,802.6462818998843,None,802.6462818998843,None,802.6462818998843,None,802.6462818998843,None,802.6462818998843,None,802.6462818998843,None,802.6462818998843,None,19,40,69,54,54,61,805.1580421002582,None,4.0,1.037940500304103,805.1580421002582,None,805.1580421002582,None,805.1580421002582,None,805.1580421002582,None,None,None,806.2146469000727,None,,,,,,,143,f,1,2022_Dec_13_1633,RL,2021.2.3,60.13109787981678,
1,34,0,34,0,,,,,,,,,,,,,,,None,None,None,None,None,808.175883400254,None,808.175883400254,None,808.175883400254,None,808.175883400254,None,i,0.4473119000904262,808.175883400254,None,808.175883400254,None,808.6510573001578,None,808.6510573001578,None,808.6510573001578,None,808.6510573001578,None,808.6510573001578,None,808.6510573001578,None,808.9411583999172,None,808.9411583999172,None,810.4068351001479,None,810.4068351001479,None,810.4068351001479,None,810.4068351001479,None,810.4068351001479,None,810.4068351001479,None,810.4068351001479,None,810.4068351001479,None,810.4068351001479,None,20,46,61,49,61,46,812.9170349999331,None,5.0,0.6412272001616657,812.9170349999331,None,812.9170349999331,None,812.9170349999331,None,812.9170349999331,None,None,None,813.5770328002982,None,,,,,,,143,f,1,2022_Dec_13_1633,RL,2021.2.3,60.13109787981678,
1,35,0,35,0,,,,,,,,,,,,,,,None,None,None,None,None,815.4727035001852,None,815.4727035001852,None,815.4727035001852,None,815.4727035001852,None,i,0.28579430002719164,815.4727035001852,None,815.4727035001852,None,815.7988010998815,None,815.7988010998815,None,815.7988010998815,None,815.7988010998815,None,815.7988010998815,None,815.7988010998815,None,816.0880567003042,817.7665070998482,816.0880567003042,817.7665070998482,817.7871317998506,None,817.7871317998506,None,817.7871317998506,None,817.7871317998506,None,817.7871317998506,None,817.7871317998506,None,817.7871317998506,None,817.7871317998506,None,817.7871317998506,None,25,39,72,52,72,64,820.2961464002728,None,6.0,0.9079387998208404,820.2961464002728,None,820.2961464002728,None,820.2961464002728,None,820.2961464002728,None,None,None,821.2242435999215,None,,,,,,,143,f,1,2022_Dec_13_1633,RL,2021.2.3,60.13109787981678,
1,36,0,36,0,,,,,,,,,,,,,,,None,None,None,None,None,822.9522819998674,None,822.9522819998674,None,822.9522819998674,None,822.9522819998674,None,i,0.7302180002443492,822.9522819998674,None,822.9522819998674,None,823.7135916999541,None,823.7135916999541,None,823.7135916999541,None,823.7135916999541,None,823.7135916999541,None,823.7135916999541,None,824.0000601001084,None,824.0000601001084,None,825.7681215000339,None,825.7681215000339,None,825.7681215000339,None,825.7681215000339,None,825.7681215000339,None,825.7681215000339,None,825.7681215000339,None,825.7681215000339,None,825.7681215000339,None,23,39,73,56,73,43,828.277981299907,None,7.0,0.605300999712199,828.277981299907,None,828.277981299907,None,828.277981299907,None,828.277981299907,None,None,None,828.9020756999962,None,,,,,,,143,f,1,2022_Dec_13_1633,RL,2021.2.3,60.13109787981678,
1,37,0,37,0,,,,,,,,,,,,,,,None,None,None,None,None,830.4485180000775,None,830.4485180000775,None,830.4485180000775,None,830.4485180000775,None,i,0.3090607998892665,830.4485180000775,None,830.4485180000775,None,830.791957499925,None,830.791957499925,None,830.791957499925,None,830.791957499925,None,830.791957499925,None,830.791957499925,None,831.0804540002719,None,831.0804540002719,None,832.1638871002942,None,832.1638871002942,None,832.1638871002942,None,832.1638871002942,None,832.1638871002942,None,832.1638871002942,None,832.1638871002942,None,832.1638871002942,None,832.1638871002942,None,28,45,65,51,65,64,834.6772961001843,None,6.0,0.9209306999109685,834.6772961001843,None,834.6772961001843,None,834.6772961001843,None,834.6772961001843,None,None,None,835.6171205001883,None,,,,,,,143,f,1,2022_Dec_13_1633,RL,2021.2.3,60.13109787981678,
1,38,0,38,0,,,,,,,,,,,,,,,None,None,None,None,None,837.3631082000211,None,837.3631082000211,None,837.3631082000211,None,837.3631082000211,None,i,0.44518199982121587,837.3631082000211,None,837.3631082000211,None,837.8385449000634,None,837.8385449000634,None,837.8385449000634,None,837.8385449000634,None,837.8385449000634,None,837.8385449000634,None,838.1280817002989,None,838.1280817002989,None,839.6110618999228,None,839.6110618999228,None,839.6110618999228,None,839.6110618999228,None,839.6110618999228,None,839.6110618999228,None,839.6110618999228,None,839.6110618999228,None,839.6110618999228,None,37,47,73,49,73,33,842.1200363999233,None,7.0,1.9214425003156066,842.1200363999233,None,842.1200363999233,None,842.1200363999233,None,842.1200363999233,None,None,None,844.0606960998848,None,,,,,,,143,f,1,2022_Dec_13_1633,RL,2021.2.3,60.13109787981678,
1,39,0,39,0,,,,,,,,,,,,,,,None,None,None,None,None,845.9061878002249,None,845.9061878002249,None,845.9061878002249,None,845.9061878002249,None,i,0.5453844000585377,845.9061878002249,None,845.9061878002249,None,846.4833766999654,None,846.4833766999654,None,846.4833766999654,None,846.4833766999654,None,846.4833766999654,None,846.4833766999654,None,846.7709373999387,848.0344042000361,846.7709373999387,848.0344042000361,848.0563945001923,None,848.0563945001923,None,848.0563945001923,None,848.0563945001923,None,848.0563945001923,None,848.0563945001923,None,848.0563945001923,None,848.0563945001923,None,848.0563945001923,None,39,47,66,57,66,66,850.5683253998868,None,6.0,0.8689941996708512,850.5683253998868,None,850.5683253998868,None,850.5683253998868,None,850.5683253998868,None,None,None,851.457008600235,None,,,,,,,143,f,1,2022_Dec_13_1633,RL,2021.2.3,60.13109787981678,
1,40,0,40,0,,,,,,,,,,,,,,,None,None,None,None,None,853.1033483999781,None,853.1033483999781,None,853.1033483999781,None,853.1033483999781,None,i,0.3832072000950575,853.1033483999781,None,853.1033483999781,None,853.5139688998461,None,853.5139688998461,None,853.5139688998461,None,853.5139688998461,None,853.5139688998461,None,853.5139688998461,None,853.8020676001906,None,853.8020676001906,None,855.518457100261,None,855.518457100261,None,855.518457100261,None,855.518457100261,None,855.518457100261,None,855.518457100261,None,855.518457100261,None,855.518457100261,None,855.518457100261,None,30,50,67,60,67,18,858.0302430000156,None,7.0,0.6381651000119746,858.0302430000156,None,858.0302430000156,None,858.0302430000156,None,858.0302430000156,None,None,None,858.6873082001694,None,,,,,,,143,f,1,2022_Dec_13_1633,RL,2021.2.3,60.13109787981678,
1,41,0,41,0,,,,,,,,,,,,,,,None,None,None,None,None,860.5163847999647,None,860.5163847999647,None,860.5163847999647,None,860.5163847999647,None,i,0.350121000315994,860.5163847999647,None,860.5163847999647,None,860.8931387001649,None,860.8931387001649,None,860.8931387001649,None,860.8931387001649,None,860.8931387001649,None,860.8931387001649,None,861.1819409001619,None,861.1819409001619,None,863.1625358001329,None,863.1625358001329,None,863.1625358001329,None,863.1625358001329,None,863.1625358001329,None,863.1625358001329,None,863.1625358001329,None,863.1625358001329,None,863.1625358001329,None,33,43,64,65,64,53,865.672105900012,None,7.0,0.5743698999285698,865.672105900012,None,865.672105900012,None,865.672105900012,None,865.672105900012,None,None,None,866.2665750999004,None,,,,,,,143,f,1,2022_Dec_13_1633,RL,2021.2.3,60.13109787981678,
1,42,0,42,0,,,,,,,,,,,,,,,None,None,None,None,None,868.1624906999059,None,868.1624906999059,None,868.1624906999059,None,868.1624906999059,None,i,0.46788250003010035,868.1624906999059,None,868.1624906999059,None,868.6706534000114,None,868.6706534000114,None,868.6706534000114,None,868.6706534000114,None,868.6706534000114,None,868.6706534000114,None,868.9606373999268,None,868.9606373999268,None,870.0444070002995,None,870.0444070002995,None,870.0444070002995,None,870.0444070002995,None,870.0444070002995,None,870.0444070002995,None,870.0444070002995,None,870.0444070002995,None,870.0444070002995,None,40,40,56,61,56,51,872.5546023999341,None,7.0,0.49148420011624694,872.5546023999341,None,872.5546023999341,None,872.5546023999341,None,872.5546023999341,None,None,None,873.0649610999972,None,,,,,,,143,f,1,2022_Dec_13_1633,RL,2021.2.3,60.13109787981678,
1,43,0,43,0,,,,,,,,,,,,,,,None,None,None,None,None,874.6946890000254,None,874.6946890000254,None,874.6946890000254,None,874.6946890000254,None,i,0.3624877999536693,874.6946890000254,None,874.6946890000254,None,875.0864057000726,None,875.0864057000726,None,875.0864057000726,None,875.0864057000726,None,875.0864057000726,None,875.0864057000726,None,875.3762890999205,876.3567273998633,875.3762890999205,876.3567273998633,876.3794303000905,None,876.3794303000905,None,876.3794303000905,None,876.3794303000905,None,876.3794303000905,None,876.3794303000905,None,876.3794303000905,None,876.3794303000905,None,876.3794303000905,None,27,50,64,49,64,40,878.8875794000924,None,7.0,0.6904917997308075,878.8875794000924,None,878.8875794000924,None,878.8875794000924,None,878.8875794000924,None,None,None,879.5970560000278,None,,,,,,,143,f,1,2022_Dec_13_1633,RL,2021.2.3,60.13109787981678,
1,44,0,44,0,,,,,,,,,,,,,,,None,None,None,None,None,881.1768793002702,None,881.1768793002702,None,881.1768793002702,None,881.1768793002702,None,i,0.2855222001671791,881.1768793002702,None,881.1768793002702,None,881.5043647000566,None,881.5043647000566,None,881.5043647000566,None,881.5043647000566,None,881.5043647000566,None,881.5043647000566,None,881.7923061000183,None,881.7923061000183,None,883.3262612000108,None,883.3262612000108,None,883.3262612000108,None,883.3262612000108,None,883.3262612000108,None,883.3262612000108,None,883.3262612000108,None,883.3262612000108,None,883.3262612000108,None,29,59,61,58,61,52,885.8369577000849,None,7.0,0.4410070003941655,885.8369577000849,None,885.8369577000849,None,885.8369577000849,None,885.8369577000849,None,None,None,886.2953777001239,None,,,,,,,143,f,1,2022_Dec_13_1633,RL,2021.2.3,60.13109787981678,
1,45,0,45,0,,,,,,,,,,,,,,,None,None,None,None,None,888.1907198000699,None,888.1907198000699,None,888.1907198000699,None,888.1907198000699,None,i,0.41202619997784495,888.1907198000699,None,888.1907198000699,None,888.6328584002331,None,888.6328584002331,None,888.6328584002331,None,888.6328584002331,None,888.6328584002331,None,888.6328584002331,None,888.9223930998705,None,888.9223930998705,None,889.7413602001034,None,889.7413602001034,None,889.7413602001034,None,889.7413602001034,None,889.7413602001034,None,889.7413602001034,None,889.7413602001034,None,889.7413602001034,None,889.7413602001034,None,28,66,66,60,66,53,892.2518179998733,None,7.0,0.4418651000596583,892.2518179998733,None,892.2518179998733,None,892.2518179998733,None,892.2518179998733,None,None,None,892.7111833002418,None,,,,,,,143,f,1,2022_Dec_13_1633,RL,2021.2.3,60.13109787981678,
1,46,0,46,0,,,,,,,,,,,,,,,None,None,None,None,None,894.4572747000493,None,894.4572747000493,None,894.4572747000493,None,894.4572747000493,None,i,0.32172940019518137,894.4572747000493,None,894.4572747000493,None,894.8164095999673,None,894.8164095999673,None,894.8164095999673,None,894.8164095999673,None,894.8164095999673,None,894.8164095999673,None,895.1061889999546,896.7510410998948,895.1061889999546,896.7510410998948,896.7744970000349,None,896.7744970000349,None,896.7744970000349,None,896.7744970000349,None,896.7744970000349,None,896.7744970000349,None,896.7744970000349,None,896.7744970000349,None,896.7744970000349,None,31,64,57,50,57,54,899.2831414001994,None,6.0,0.9542495999485254,899.2831414001994,None,899.2831414001994,None,899.2831414001994,None,899.2831414001994,None,None,None,900.2571986000985,None,,,,,,,143,f,1,2022_Dec_13_1633,RL,2021.2.3,60.13109787981678,
1,47,0,47,0,,,,,,,,,,,,,,,None,None,None,None,None,902.0699841999449,None,902.0699841999449,None,902.0699841999449,None,902.0699841999449,None,i,0.33370980015024543,902.0699841999449,None,902.0699841999449,None,902.4319680002518,None,902.4319680002518,None,902.4319680002518,None,902.4319680002518,None,902.4319680002518,None,902.4319680002518,None,902.7184486999176,904.1475150999613,902.7184486999176,904.1475150999613,904.1693696002476,None,904.1693696002476,None,904.1693696002476,None,904.1693696002476,None,904.1693696002476,None,904.1693696002476,None,904.1693696002476,None,904.1693696002476,None,904.1693696002476,None,37,62,58,48,58,48,906.6786593999714,None,7.0,0.6390164000913501,906.6786593999714,None,906.6786593999714,None,906.6786593999714,None,906.6786593999714,None,None,None,907.3378792000003,None,,,,,,,143,f,1,2022_Dec_13_1633,RL,2021.2.3,60.13109787981678,
1,48,0,48,0,,,,,,,,,,,,,,,None,None,None,None,None,909.2171252002008,None,909.2171252002008,None,909.2171252002008,None,909.2171252002008,None,j,1.2391303000040352,909.2171252002008,None,909.2171252002008,None,910.4911381001584,None,910.4911381001584,None,910.4911381001584,None,910.4911381001584,None,910.4911381001584,None,910.4911381001584,None,910.7798091000877,912.4082903000526,910.7798091000877,912.4082903000526,912.4288520999253,None,912.4288520999253,None,912.4288520999253,None,912.4288520999253,None,912.4288520999253,None,912.4288520999253,None,912.4288520999253,None,912.4288520999253,None,912.4288520999253,None,35,53,57,53,53,24,914.9387810998596,None,7.0,0.9064889000728726,914.9387810998596,None,914.9387810998596,None,914.9387810998596,None,914.9387810998596,None,None,None,915.8647133000195,None,,,,,,,143,f,1,2022_Dec_13_1633,RL,2021.2.3,60.13109787981678,
1,49,0,49,0,,,,,,,,,,,,,,,None,None,None,None,None,917.5943097001873,None,917.5943097001873,None,917.5943097001873,None,917.5943097001873,None,j,0.4313507000915706,917.5943097001873,None,917.5943097001873,None,918.0540688000619,None,918.0540688000619,None,918.0540688000619,None,918.0540688000619,None,918.0540688000619,None,918.0540688000619,None,918.3426216002554,920.0545091000386,918.3426216002554,920.0545091000386,920.0753701999784,None,920.0753701999784,None,920.0753701999784,None,920.0753701999784,None,920.0753701999784,None,920.0753701999784,None,920.0753701999784,None,920.0753701999784,None,920.0753701999784,None,30,65,60,55,55,48,922.584751999937,None,6.0,0.5911520998924971,922.584751999937,None,922.584751999937,None,922.584751999937,None,922.584751999937,None,None,None,923.1946745002642,None,,,,,,,143,f,1,2022_Dec_13_1633,RL,2021.2.3,60.13109787981678,
1,50,0,50,0,,,,,,,,,,,,,,,None,None,None,None,None,925.1067528999411,None,925.1067528999411,None,925.1067528999411,None,925.1067528999411,None,j,0.2883461001329124,925.1067528999411,None,925.1067528999411,None,925.4361736001447,None,925.4361736001447,None,925.4361736001447,None,925.4361736001447,None,925.4361736001447,None,925.4361736001447,None,925.7225037002936,None,925.7225037002936,None,927.5389900002629,None,927.5389900002629,None,927.5389900002629,None,927.5389900002629,None,927.5389900002629,None,927.5389900002629,None,927.5389900002629,None,927.5389900002629,None,927.5389900002629,None,36,51,55,58,58,55,930.0507853999734,None,6.0,0.6044009001925588,930.0507853999734,None,930.0507853999734,None,930.0507853999734,None,930.0507853999734,None,None,None,930.674629600253,None,,,,,,,143,f,1,2022_Dec_13_1633,RL,2021.2.3,60.13109787981678,
1,51,0,51,0,,,,,,,,,,,,,,,None,None,None,None,None,932.3540361998603,None,932.3540361998603,None,932.3540361998603,None,932.3540361998603,None,i,0.3455322999507189,932.3540361998603,None,932.3540361998603,None,932.7303325999528,None,932.7303325999528,None,932.7303325999528,None,932.7303325999528,None,932.7303325999528,None,932.7303325999528,None,933.0190925998613,None,933.0190925998613,None,934.1201344998553,None,934.1201344998553,None,934.1201344998553,None,934.1201344998553,None,934.1201344998553,None,934.1201344998553,None,934.1201344998553,None,934.1201344998553,None,934.1201344998553,None,41,55,47,48,47,39,936.6296482002363,None,6.0,0.47504759998992085,936.6296482002363,None,936.6296482002363,None,936.6296482002363,None,936.6296482002363,None,None,None,937.1236268999055,None,,,,,,,143,f,1,2022_Dec_13_1633,RL,2021.2.3,60.13109787981678,
1,52,0,52,0,,,,,,,,,,,,,,,None,None,None,None,None,938.802779499907,None,938.802779499907,None,938.802779499907,None,938.802779499907,None,r,0.34702089987695217,938.802779499907,None,938.802779499907,None,939.1791730001569,None,939.1791730001569,None,939.1791730001569,None,939.1791730001569,None,939.1791730001569,None,939.1791730001569,None,939.467909200117,None,939.467909200117,None,940.6174019998871,None,940.6174019998871,None,940.6174019998871,None,940.6174019998871,None,940.6174019998871,None,940.6174019998871,None,940.6174019998871,None,940.6174019998871,None,940.6174019998871,None,42,52,51,55,42,26,943.1310442001559,None,6.0,0.7398112001828849,943.1310442001559,None,943.1310442001559,None,943.1310442001559,None,943.1310442001559,None,None,None,943.8882440002635,None,,,,,,,143,f,1,2022_Dec_13_1633,RL,2021.2.3,60.13109787981678,
1,53,0,53,0,,,,,,,,,,,,,,,None,None,None,None,None,945.5178650002927,None,945.5178650002927,None,945.5178650002927,None,945.5178650002927,None,r,0.30742380023002625,945.5178650002927,None,945.5178650002927,None,945.861880000215,None,945.861880000215,None,945.861880000215,None,945.861880000215,None,945.861880000215,None,945.861880000215,None,946.1497889002785,947.4295727000572,946.1497889002785,947.4295727000572,947.4502352001145,None,947.4502352001145,None,947.4502352001145,None,947.4502352001145,None,947.4502352001145,None,947.4502352001145,None,947.4502352001145,None,947.4502352001145,None,947.4502352001145,None,35,59,53,60,35,53,949.9613383999094,None,2.0,0.7399502000771463,949.9613383999094,None,949.9613383999094,None,949.9613383999094,None,949.9613383999094,None,None,None,950.7195112002082,None,,,,,,,143,f,1,2022_Dec_13_1633,RL,2021.2.3,60.13109787981678,
1,54,0,54,0,,,,,,,,,,,,,,,None,None,None,None,None,952.2827837001532,None,952.2827837001532,None,952.2827837001532,None,952.2827837001532,None,i,0.39273729966953397,952.2827837001532,None,952.2827837001532,None,952.7100070999004,None,952.7100070999004,None,952.7100070999004,None,952.7100070999004,None,952.7100070999004,None,952.7100070999004,None,952.9977603000589,None,952.9977603000589,None,954.530739299953,None,954.530739299953,None,954.530739299953,None,954.530739299953,None,954.530739299953,None,954.530739299953,None,954.530739299953,None,954.530739299953,None,954.530739299953,None,30,65,50,65,50,32,957.0432682000101,None,6.0,0.7210844997316599,957.0432682000101,None,957.0432682000101,None,957.0432682000101,None,957.0432682000101,None,None,None,957.7840900002047,None,,,,,,,143,f,1,2022_Dec_13_1633,RL,2021.2.3,60.13109787981678,
1,55,0,55,0,,,,,,,,,,,,,,,None,None,None,None,None,959.3472311999649,None,959.3472311999649,None,959.3472311999649,None,959.3472311999649,None,i,0.2933991998434067,959.3472311999649,None,959.3472311999649,None,959.6770184002817,None,959.6770184002817,None,959.6770184002817,None,959.6770184002817,None,959.6770184002817,None,959.6770184002817,None,959.9621264999732,None,959.9621264999732,None,961.1128895999864,None,961.1128895999864,None,961.1128895999864,None,961.1128895999864,None,961.1128895999864,None,961.1128895999864,None,961.1128895999864,None,961.1128895999864,None,961.1128895999864,None,32,60,44,53,44,26,963.621322600171,None,6.0,0.3923842003569007,963.621322600171,None,963.621322600171,None,963.621322600171,None,963.621322600171,None,None,None,964.0333718000911,None,,,,,,,143,f,1,2022_Dec_13_1633,RL,2021.2.3,60.13109787981678,
1,56,0,56,0,,,,,,,,,,,,,,,None,None,None,None,None,965.7460179999471,None,965.7460179999471,None,965.7460179999471,None,965.7460179999471,None,i,0.6700048996135592,965.7460179999471,None,965.7460179999471,None,966.4561864002608,None,966.4561864002608,None,966.4561864002608,None,966.4561864002608,None,966.4561864002608,None,966.4561864002608,None,966.7438914999366,968.2725454000756,966.7438914999366,968.2725454000756,968.2955446001142,None,968.2955446001142,None,968.2955446001142,None,968.2955446001142,None,968.2955446001142,None,968.2955446001142,None,968.2955446001142,None,968.2955446001142,None,968.2955446001142,None,40,59,47,55,47,12,970.808691599872,None,7.0,0.8176571000367403,970.808691599872,None,970.808691599872,None,970.808691599872,None,970.808691599872,None,None,None,971.6464066002518,None,,,,,,,143,f,1,2022_Dec_13_1633,RL,2021.2.3,60.13109787981678,
1,57,0,57,0,,,,,,,,,,,,,,,None,None,None,None,None,973.3085846998729,None,973.3085846998729,None,973.3085846998729,None,973.3085846998729,None,i,0.2869061999954283,973.3085846998729,None,973.3085846998729,None,973.6354370000772,None,973.6354370000772,None,973.6354370000772,None,973.6354370000772,None,973.6354370000772,None,973.6354370000772,None,973.9241396998987,None,973.9241396998987,None,975.0244928002357,None,975.0244928002357,None,975.0244928002357,None,975.0244928002357,None,975.0244928002357,None,975.0244928002357,None,975.0244928002357,None,975.0244928002357,None,975.0244928002357,None,29,63,39,54,39,58,977.5360173000954,None,3.0,0.9552008998580277,977.5360173000954,None,977.5360173000954,None,977.5360173000954,None,977.5360173000954,None,None,None,978.5104443999007,None,,,,,,,143,f,1,2022_Dec_13_1633,RL,2021.2.3,60.13109787981678,
1,58,0,58,0,,,,,,,,,,,,,,,None,None,None,None,None,980.1399648999795,None,980.1399648999795,None,980.1399648999795,None,980.1399648999795,None,j,0.32578329974785447,980.1399648999795,None,980.1399648999795,None,980.5010424000211,None,980.5010424000211,None,980.5010424000211,None,980.5010424000211,None,980.5010424000211,None,980.5010424000211,None,980.788755599875,981.9354758001864,980.788755599875,981.9354758001864,981.9579118001275,None,981.9579118001275,None,981.9579118001275,None,981.9579118001275,None,981.9579118001275,None,981.9579118001275,None,981.9579118001275,None,981.9579118001275,None,981.9579118001275,None,34,60,43,58,58,47,984.4699438000098,None,6.0,0.7036990001797676,984.4699438000098,None,984.4699438000098,None,984.4699438000098,None,984.4699438000098,None,None,None,985.1921497001313,None,,,,,,,143,f,1,2022_Dec_13_1633,RL,2021.2.3,60.13109787981678,
1,59,0,59,0,,,,,,,,,,,,,,,None,None,None,None,None,986.8386754998937,None,986.8386754998937,None,986.8386754998937,None,986.8386754998937,None,j,0.31776800006628036,986.8386754998937,None,986.8386754998937,None,987.1984828002751,None,987.1984828002751,None,987.1984828002751,None,987.1984828002751,None,987.1984828002751,None,987.1984828002751,None,987.4870949001051,None,987.4870949001051,None,988.5225758003071,None,988.5225758003071,None,988.5225758003071,None,988.5225758003071,None,988.5225758003071,None,988.5225758003071,None,988.5225758003071,None,988.5225758003071,None,988.5225758003071,None,38,55,43,62,62,17,991.032446899917,None,7.0,0.6743758004158735,991.032446899917,None,991.032446899917,None,991.032446899917,None,991.032446899917,None,None,None,991.7246749000624,None,,,,,,,143,f,1,2022_Dec_13_1633,RL,2021.2.3,60.13109787981678,
1,60,0,60,0,,,,,,,,,,,,,,,None,None,None,None,None,993.254718999844,None,993.254718999844,None,993.254718999844,None,993.254718999844,None,j,1.0559610999189317,993.254718999844,None,993.254718999844,None,994.3451060000807,None,994.3451060000807,None,994.3451060000807,None,994.3451060000807,None,994.3451060000807,None,994.3451060000807,None,994.6346351001412,None,994.6346351001412,None,995.8509618998505,None,995.8509618998505,None,995.8509618998505,None,995.8509618998505,None,995.8509618998505,None,995.8509618998505,None,995.8509618998505,None,995.8509618998505,None,995.8509618998505,None,33,55,43,56,56,32,998.3645363003016,None,7.0,0.5093304999172688,998.3645363003016,None,998.3645363003016,None,998.3645363003016,None,998.3645363003016,None,None,None,998.8882299000397,None,,,,,,,143,f,1,2022_Dec_13_1633,RL,2021.2.3,60.13109787981678,
1,61,0,61,0,,,,,,,,,,,,,,,None,None,None,None,None,1000.6173648000695,None,1000.6173648000695,None,1000.6173648000695,None,1000.6173648000695,None,j,0.41391019988805056,1000.6173648000695,None,1000.6173648000695,None,1001.0620732000098,None,1001.0620732000098,None,1001.0620732000098,None,1001.0620732000098,None,1001.0620732000098,None,1001.0620732000098,None,1001.349592000246,1003.2938210000284,1001.349592000246,1003.2938210000284,1003.3182907002047,None,1003.3182907002047,None,1003.3182907002047,None,1003.3182907002047,None,1003.3182907002047,None,1003.3182907002047,None,1003.3182907002047,None,1003.3182907002047,None,1003.3182907002047,None,40,60,33,59,59,39,1005.8250718000345,None,7.0,0.47318900004029274,1005.8250718000345,None,1005.8250718000345,None,1005.8250718000345,None,1005.8250718000345,None,None,None,1006.3183201998472,None,,,,,,,143,f,1,2022_Dec_13_1633,RL,2021.2.3,60.13109787981678,
1,62,0,62,0,,,,,,,,,,,,,,,None,None,None,None,None,1008.0473551000468,None,1008.0473551000468,None,1008.0473551000468,None,1008.0473551000468,None,j,0.3282411000691354,1008.0473551000468,None,1008.0473551000468,None,1008.4073156001978,None,1008.4073156001978,None,1008.4073156001978,None,1008.4073156001978,None,1008.4073156001978,None,1008.4073156001978,None,1008.6960801999085,1010.1250899001025,1008.6960801999085,1010.1250899001025,1010.1448487001471,None,1010.1448487001471,None,1010.1448487001471,None,1010.1448487001471,None,1010.1448487001471,None,1010.1448487001471,None,1010.1448487001471,None,1010.1448487001471,None,1010.1448487001471,None,42,56,44,58,58,10,1012.6557803000323,None,7.0,0.7445622999221087,1012.6557803000323,None,1012.6557803000323,None,1012.6557803000323,None,1012.6557803000323,None,None,None,1013.4154483000748,None,,,,,,,143,f,1,2022_Dec_13_1633,RL,2021.2.3,60.13109787981678,
1,63,0,63,0,,,,,,,,,,,,,,,None,None,None,None,None,1015.1776947001927,None,1015.1776947001927,None,1015.1776947001927,None,1015.1776947001927,None,j,0.30784500017762184,1015.1776947001927,None,1015.1776947001927,None,1015.5202576001175,None,1015.5202576001175,None,1015.5202576001175,None,1015.5202576001175,None,1015.5202576001175,None,1015.5202576001175,None,1015.8098498000763,1017.0727762002498,1015.8098498000763,1017.0727762002498,1017.0936298002489,None,1017.0936298002489,None,1017.0936298002489,None,1017.0936298002489,None,1017.0936298002489,None,1017.0936298002489,None,1017.0936298002489,None,1017.0936298002489,None,1017.0936298002489,None,47,58,36,64,64,50,1019.6013482999988,None,6.0,0.709476700052619,1019.6013482999988,None,1019.6013482999988,None,1019.6013482999988,None,1019.6013482999988,None,None,None,1020.3296158001758,None,,,,,,,143,f,1,2022_Dec_13_1633,RL,2021.2.3,60.13109787981678,
1,64,0,64,0,,,,,,,,,,,,,,,None,None,None,None,None,1022.0093638999388,None,1022.0093638999388,None,1022.0093638999388,None,1022.0093638999388,None,j,0.9004596001468599,1022.0093638999388,None,1022.0093638999388,None,1022.9530420000665,None,1022.9530420000665,None,1022.9530420000665,None,1022.9530420000665,None,1022.9530420000665,None,1022.9530420000665,None,1023.239687600173,1024.5527778998949,1023.239687600173,1024.5527778998949,1024.5728058000095,None,1024.5728058000095,None,1024.5728058000095,None,1024.5728058000095,None,1024.5728058000095,None,1024.5728058000095,None,1024.5728058000095,None,1024.5728058000095,None,1024.5728058000095,None,49,53,45,61,61,73,1027.082857800182,None,5.0,0.8753534001298249,1027.082857800182,None,1027.082857800182,None,1027.082857800182,None,1027.082857800182,None,None,None,1027.9765527001582,None,,,,,,,143,f,1,2022_Dec_13_1633,RL,2021.2.3,60.13109787981678,
1,65,0,65,0,,,,,,,,,,,,,,,None,None,None,None,None,1029.5055529000238,None,1029.5055529000238,None,1029.5055529000238,None,1029.5055529000238,None,j,0.26546610007062554,1029.5055529000238,None,1029.5055529000238,None,1029.8020656001754,None,1029.8020656001754,None,1029.8020656001754,None,1029.8020656001754,None,1029.8020656001754,None,1029.8020656001754,None,1030.0876338998787,None,1030.0876338998787,None,1031.7185820001177,None,1031.7185820001177,None,1031.7185820001177,None,1031.7185820001177,None,1031.7185820001177,None,1031.7185820001177,None,1031.7185820001177,None,1031.7185820001177,None,1031.7185820001177,None,47,47,33,61,61,57,1034.2290159999393,None,6.0,0.5252563999965787,1034.2290159999393,None,1034.2290159999393,None,1034.2290159999393,None,1034.2290159999393,None,None,None,1034.7736293002963,None,,,,,,,143,f,1,2022_Dec_13_1633,RL,2021.2.3,60.13109787981678,
1,66,0,66,0,,,,,,,,,,,,,,,None,None,None,None,None,1036.6359359002672,None,1036.6359359002672,None,1036.6359359002672,None,1036.6359359002672,None,j,0.2788871000520885,1036.6359359002672,None,1036.6359359002672,None,1036.9463231000118,None,1036.9463231000118,None,1036.9463231000118,None,1036.9463231000118,None,1036.9463231000118,None,1036.9463231000118,None,1037.2348235999234,1038.4478330002166,1037.2348235999234,1038.4478330002166,1038.468799599912,None,1038.468799599912,None,1038.468799599912,None,1038.468799599912,None,1038.468799599912,None,1038.468799599912,None,1038.468799599912,None,1038.468799599912,None,1038.468799599912,None,43,55,30,70,70,61,1040.9790173000656,None,6.0,0.7078595999628305,1040.9790173000656,None,1040.9790173000656,None,1040.9790173000656,None,1040.9790173000656,None,None,None,1041.7046825001016,None,,,,,,,143,f,1,2022_Dec_13_1633,RL,2021.2.3,60.13109787981678,
1,67,0,67,0,,,,,,,,,,,,,,,None,None,None,None,None,1043.6502359001897,None,1043.6502359001897,None,1043.6502359001897,None,1043.6502359001897,None,j,0.3198800003156066,1043.6502359001897,None,1043.6502359001897,None,1044.0102046001703,None,1044.0102046001703,None,1044.0102046001703,None,1044.0102046001703,None,1044.0102046001703,None,1044.0102046001703,None,1044.298694500234,1045.7779397000559,1044.298694500234,1045.7779397000559,1045.7990856999531,None,1045.7990856999531,None,1045.7990856999531,None,1045.7990856999531,None,1045.7990856999531,None,1045.7990856999531,None,1045.7990856999531,None,1045.7990856999531,None,1045.7990856999531,None,50,63,37,54,54,39,1048.3098196000792,None,6.0,0.556618900038302,1048.3098196000792,None,1048.3098196000792,None,1048.3098196000792,None,1048.3098196000792,None,None,None,1048.8851776001975,None,,,,,,,143,f,1,2022_Dec_13_1633,RL,2021.2.3,60.13109787981678,
1,68,0,68,0,,,,,,,,,,,,,,,None,None,None,None,None,1050.4816610999405,None,1050.4816610999405,None,1050.4816610999405,None,1050.4816610999405,None,j,0.28934359969571233,1050.4816610999405,None,1050.4816610999405,None,1050.812990100123,None,1050.812990100123,None,1050.812990100123,None,1050.812990100123,None,1050.812990100123,None,1050.812990100123,None,1051.0969540001824,1052.2938584000804,1051.0969540001824,1052.2938584000804,1052.3143533002585,None,1052.3143533002585,None,1052.3143533002585,None,1052.3143533002585,None,1052.3143533002585,None,1052.3143533002585,None,1052.3143533002585,None,1052.3143533002585,None,1052.3143533002585,None,42,56,38,70,70,67,1054.8263089000247,None,6.0,0.6236927001737058,1054.8263089000247,None,1054.8263089000247,None,1054.8263089000247,None,1054.8263089000247,None,None,None,1055.4673402998596,None,,,,,,,143,f,1,2022_Dec_13_1633,RL,2021.2.3,60.13109787981678,
1,69,0,69,0,,,,,,,,,,,,,,,None,None,None,None,None,1057.213588200044,None,1057.213588200044,None,1057.213588200044,None,1057.213588200044,None,j,0.45133120007812977,1057.213588200044,None,1057.213588200044,None,1057.709212699905,None,1057.709212699905,None,1057.709212699905,None,1057.709212699905,None,1057.709212699905,None,1057.709212699905,None,1057.9947533002123,1059.9727606000379,1057.9947533002123,1059.9727606000379,1059.9950099000707,None,1059.9950099000707,None,1059.9950099000707,None,1059.9950099000707,None,1059.9950099000707,None,1059.9950099000707,None,1059.9950099000707,None,1059.9950099000707,None,1059.9950099000707,None,42,57,36,63,63,64,1062.5041612000205,None,5.0,0.972509200219065,1062.5041612000205,None,1062.5041612000205,None,1062.5041612000205,None,1062.5041612000205,None,None,None,1063.495224100072,None,,,,,,,143,f,1,2022_Dec_13_1633,RL,2021.2.3,60.13109787981678,
1,70,0,70,0,,,,,,,,,,,,,,,None,None,None,None,None,1065.15811830014,None,1065.15811830014,None,1065.15811830014,None,1065.15811830014,None,j,0.28957549994811416,1065.15811830014,None,1065.15811830014,None,1065.4876171001233,None,1065.4876171001233,None,1065.4876171001233,None,1065.4876171001233,None,1065.4876171001233,None,1065.4876171001233,None,1065.7739888001233,1067.5851480001584,1065.7739888001233,1067.5851480001584,1067.6080586002208,None,1067.6080586002208,None,1067.6080586002208,None,1067.6080586002208,None,1067.6080586002208,None,1067.6080586002208,None,1067.6080586002208,None,1067.6080586002208,None,1067.6080586002208,None,43,56,42,70,70,64,1070.116307000164,None,6.0,0.9236055999062955,1070.116307000164,None,1070.116307000164,None,1070.116307000164,None,1070.116307000164,None,None,None,1071.0583445001394,None,,,,,,,143,f,1,2022_Dec_13_1633,RL,2021.2.3,60.13109787981678,
1,71,0,71,0,,,,,,,,,,,,,,,None,None,None,None,None,1072.7208666000515,None,1072.7208666000515,None,1072.7208666000515,None,1072.7208666000515,None,j,0.26810549991205335,1072.7208666000515,None,1072.7208666000515,None,1073.0165248000994,None,1073.0165248000994,None,1073.0165248000994,None,1073.0165248000994,None,1073.0165248000994,None,1073.0165248000994,None,1073.3032785998657,1075.0817896998487,1073.3032785998657,1075.0817896998487,1075.1043878998607,None,1075.1043878998607,None,1075.1043878998607,None,1075.1043878998607,None,1075.1043878998607,None,1075.1043878998607,None,1075.1043878998607,None,1075.1043878998607,None,1075.1043878998607,None,41,56,35,75,75,67,1077.6145617999136,None,6.0,0.4397958000190556,1077.6145617999136,None,1077.6145617999136,None,1077.6145617999136,None,1077.6145617999136,None,None,None,1078.0724939000793,None,,,,,,,143,f,1,2022_Dec_13_1633,RL,2021.2.3,60.13109787981678,
1,72,0,72,0,,,,,,,,,,,,,,,None,None,None,None,None,1079.851494899951,None,1079.851494899951,None,1079.851494899951,None,1079.851494899951,None,j,0.30440309969708323,1079.851494899951,None,1079.851494899951,None,1080.1948775001802,None,1080.1948775001802,None,1080.1948775001802,None,1080.1948775001802,None,1080.1948775001802,None,1080.1948775001802,None,1080.483313200064,1081.730185000226,1080.483313200064,1081.730185000226,1081.7513585998677,None,1081.7513585998677,None,1081.7513585998677,None,1081.7513585998677,None,1081.7513585998677,None,1081.7513585998677,None,1081.7513585998677,None,1081.7513585998677,None,1081.7513585998677,None,49,58,43,72,72,66,1084.2645099000074,None,6.0,0.56953139975667,1084.2645099000074,None,1084.2645099000074,None,1084.2645099000074,None,1084.2645099000074,None,None,None,1084.8537246002816,None,,,,,,,143,f,1,2022_Dec_13_1633,RL,2021.2.3,60.13109787981678,
1,73,0,73,0,,,,,,,,,,,,,,,None,None,None,None,None,1086.4333691000938,None,1086.4333691000938,None,1086.4333691000938,None,1086.4333691000938,None,j,0.3090877002105117,1086.4333691000938,None,1086.4333691000938,None,1086.777988200076,None,1086.777988200076,None,1086.777988200076,None,1086.777988200076,None,1086.777988200076,None,1086.777988200076,None,1087.0656496998854,1088.960052399896,1087.0656496998854,1088.960052399896,1088.980669700075,None,1088.980669700075,None,1088.980669700075,None,1088.980669700075,None,1088.980669700075,None,1088.980669700075,None,1088.980669700075,None,1088.980669700075,None,1088.980669700075,None,50,63,45,70,70,68,1091.4896165998653,None,6.0,0.44313509995117784,1091.4896165998653,None,1091.4896165998653,None,1091.4896165998653,None,1091.4896165998653,None,None,None,1091.951288800221,None,,,,,,,143,f,1,2022_Dec_13_1633,RL,2021.2.3,60.13109787981678,
1,74,0,74,0,,,,,,,,,,,,,,,None,None,None,None,None,1093.9631064999849,None,1093.9631064999849,None,1093.9631064999849,None,1093.9631064999849,None,j,0.3076514001004398,1093.9631064999849,None,1093.9631064999849,None,1094.3060071999207,None,1094.3060071999207,None,1094.3060071999207,None,1094.3060071999207,None,1094.3060071999207,None,1094.3060071999207,None,1094.5948719000444,1096.3564309999347,1094.5948719000444,1096.3564309999347,1096.378113000188,None,1096.378113000188,None,1096.378113000188,None,1096.378113000188,None,1096.378113000188,None,1096.378113000188,None,1096.378113000188,None,1096.378113000188,None,1096.378113000188,None,49,60,51,75,75,53,1098.888280800078,None,7.0,0.5266980999149382,1098.888280800078,None,1098.888280800078,None,1098.888280800078,None,1098.888280800078,None,None,None,1099.431006200146,None,,,,,,,143,f,1,2022_Dec_13_1633,RL,2021.2.3,60.13109787981678,
1,75,0,75,0,,,,,,,,,,,,,,,1101.3259876002558,None,q,1101.3259876002558,None,1213.5542969000526,None,1213.5542969000526,None,1213.5542969000526,None,1213.5542969000526,None,f,1.2419376000761986,1213.5542969000526,None,1213.5542969000526,None,1214.8312940001488,None,1214.8312940001488,None,1214.8312940001488,None,1214.8312940001488,None,1214.8312940001488,None,1214.8312940001488,None,1215.1160781001672,1215.9306073002517,1215.1160781001672,1215.9306073002517,1215.951965900138,None,1215.951965900138,None,1215.951965900138,None,1215.951965900138,None,1215.951965900138,None,1215.951965900138,None,1215.951965900138,None,1215.951965900138,None,1215.951965900138,None,50,56,42,74,56,61,1218.4618688998744,None,6.0,0.7408118001185358,1218.4618688998744,None,1218.4618688998744,None,1218.4618688998744,None,1218.4618688998744,None,None,None,1219.2206749999896,None,112.19850479997694,,,,,,143,f,1,2022_Dec_13_1633,RL,2021.2.3,60.13109787981678,
1,76,0,76,0,,,,,,,,,,,,,,,None,None,None,None,None,1220.7671763002872,None,1220.7671763002872,None,1220.7671763002872,None,1220.7671763002872,None,i,0.3893396998755634,1220.7671763002872,None,1220.7671763002872,None,1221.1958099999465,None,1221.1958099999465,None,1221.1958099999465,None,1221.1958099999465,None,1221.1958099999465,None,1221.1958099999465,None,1221.4821931999177,1222.9947211998515,1221.4821931999177,1222.9947211998515,1223.0162491998635,None,1223.0162491998635,None,1223.0162491998635,None,1223.0162491998635,None,1223.0162491998635,None,1223.0162491998635,None,1223.0162491998635,None,1223.0162491998635,None,1223.0162491998635,None,52,51,43,70,43,58,1225.5270907999948,None,4.0,0.5570528004318476,1225.5270907999948,None,1225.5270907999948,None,1225.5270907999948,None,1225.5270907999948,None,None,None,1226.1017076000571,None,,,,,,,143,f,1,2022_Dec_13_1633,RL,2021.2.3,60.13109787981678,
1,77,0,77,0,,,,,,,,,,,,,,,None,None,None,None,None,1228.0971278999932,None,1228.0971278999932,None,1228.0971278999932,None,1228.0971278999932,None,j,0.3282327000051737,1228.0971278999932,None,1228.0971278999932,None,1228.458824600093,None,1228.458824600093,None,1228.458824600093,None,1228.458824600093,None,1228.458824600093,None,1228.458824600093,None,1228.7454796000384,1229.576419299934,1228.7454796000384,1229.576419299934,1229.5980197000317,None,1229.5980197000317,None,1229.5980197000317,None,1229.5980197000317,None,1229.5980197000317,None,1229.5980197000317,None,1229.5980197000317,None,1229.5980197000317,None,1229.5980197000317,None,50,54,37,67,67,50,1232.107962100301,None,6.0,1.2382923001423478,1232.107962100301,None,1232.107962100301,None,1232.107962100301,None,1232.107962100301,None,None,None,1233.3656997000799,None,,,,,,,143,f,1,2022_Dec_13_1633,RL,2021.2.3,60.13109787981678,
1,78,0,78,0,,,,,,,,,,,,,,,None,None,None,None,None,1234.9286333001219,None,1234.9286333001219,None,1234.9286333001219,None,1234.9286333001219,None,j,0.3171848999336362,1234.9286333001219,None,1234.9286333001219,None,1235.2727756998502,None,1235.2727756998502,None,1235.2727756998502,None,1235.2727756998502,None,1235.2727756998502,None,1235.2727756998502,None,1235.560355800204,1236.407848500181,1235.560355800204,1236.407848500181,1236.4291399000213,None,1236.4291399000213,None,1236.4291399000213,None,1236.4291399000213,None,1236.4291399000213,None,1236.4291399000213,None,1236.4291399000213,None,1236.4291399000213,None,1236.4291399000213,None,64,47,29,74,74,62,1238.937149700243,None,6.0,0.37673800019547343,1238.937149700243,None,1238.937149700243,None,1238.937149700243,None,1238.937149700243,None,None,None,1239.3325354000553,None,,,,,,,143,f,1,2022_Dec_13_1633,RL,2021.2.3,60.13109787981678,
1,79,0,79,0,,,,,,,,,,,,,,,None,None,None,None,None,1240.8954018000513,None,1240.8954018000513,None,1240.8954018000513,None,1240.8954018000513,None,j,0.29636320006102324,1240.8954018000513,None,1240.8954018000513,None,1241.2200906001963,None,1241.2200906001963,None,1241.2200906001963,None,1241.2200906001963,None,1241.2200906001963,None,1241.2200906001963,None,1241.5112104001455,None,1241.5112104001455,None,1242.759468300268,None,1242.759468300268,None,1242.759468300268,None,1242.759468300268,None,1242.759468300268,None,1242.759468300268,None,1242.759468300268,None,1242.759468300268,None,1242.759468300268,None,59,43,33,69,69,44,1245.2712655998766,None,7.0,0.3253826997242868,1245.2712655998766,None,1245.2712655998766,None,1245.2712655998766,None,1245.2712655998766,None,None,None,1245.6152749001049,None,,,,,,,143,f,1,2022_Dec_13_1633,RL,2021.2.3,60.13109787981678,
1,80,0,80,0,,,,,,,,,,,,,,,None,None,None,None,None,1247.4110230999067,None,1247.4110230999067,None,1247.4110230999067,None,1247.4110230999067,None,j,0.2913798000663519,1247.4110230999067,None,1247.4110230999067,None,1247.7391377002932,None,1247.7391377002932,None,1247.7391377002932,None,1247.7391377002932,None,1247.7391377002932,None,1247.7391377002932,None,1248.0265453001484,None,1248.0265453001484,None,1249.5787674998865,None,1249.5787674998865,None,1249.5787674998865,None,1249.5787674998865,None,1249.5787674998865,None,1249.5787674998865,None,1249.5787674998865,None,1249.5787674998865,None,1249.5787674998865,None,55,46,31,74,74,46,1252.0896446001716,None,7.0,0.37053260020911694,1252.0896446001716,None,1252.0896446001716,None,1252.0896446001716,None,1252.0896446001716,None,None,None,1252.4819637001492,None,,,,,,,143,f,1,2022_Dec_13_1633,RL,2021.2.3,60.13109787981678,
1,81,0,81,0,,,,,,,,,,,,,,,None,None,None,None,None,1254.1095944000408,None,1254.1095944000408,None,1254.1095944000408,None,1254.1095944000408,None,j,0.3237576000392437,1254.1095944000408,None,1254.1095944000408,None,1254.4673556000926,None,1254.4673556000926,None,1254.4673556000926,None,1254.4673556000926,None,1254.4673556000926,None,1254.4673556000926,None,1254.7580597000197,None,1254.7580597000197,None,1256.7066675000824,None,1256.7066675000824,None,1256.7066675000824,None,1256.7066675000824,None,1256.7066675000824,None,1256.7066675000824,None,1256.7066675000824,None,1256.7066675000824,None,1256.7066675000824,None,56,49,32,60,60,53,1259.218624799978,None,6.0,0.4222373999655247,1259.218624799978,None,1259.218624799978,None,1259.218624799978,None,1259.218624799978,None,None,None,1259.6604793001898,None,,,,,,,143,f,1,2022_Dec_13_1633,RL,2021.2.3,60.13109787981678,
1,82,0,82,0,,,,,,,,,,,,,,,None,None,None,None,None,1261.3732572002336,None,1261.3732572002336,None,1261.3732572002336,None,1261.3732572002336,None,j,0.42278810031712055,1261.3732572002336,None,1261.3732572002336,None,1261.834431400057,None,1261.834431400057,None,1261.834431400057,None,1261.834431400057,None,1261.834431400057,None,1261.834431400057,None,1262.121101600118,1263.7502993000671,1262.121101600118,1263.7502993000671,1263.7711716000922,None,1263.7711716000922,None,1263.7711716000922,None,1263.7711716000922,None,1263.7711716000922,None,1263.7711716000922,None,1263.7711716000922,None,1263.7711716000922,None,1263.7711716000922,None,56,48,37,65,65,63,1266.2835812000558,None,6.0,0.8705879999324679,1266.2835812000558,None,1266.2835812000558,None,1266.2835812000558,None,1266.2835812000558,None,None,None,1267.1751390001737,None,,,,,,,143,f,1,2022_Dec_13_1633,RL,2021.2.3,60.13109787981678,
1,83,0,83,0,,,,,,,,,,,,,,,None,None,None,None,None,1269.0188859002665,None,1269.0188859002665,None,1269.0188859002665,None,1269.0188859002665,None,j,0.3013708000071347,1269.0188859002665,None,1269.0188859002665,None,1269.365403600037,None,1269.365403600037,None,1269.365403600037,None,1269.365403600037,None,1269.365403600037,None,1269.365403600037,None,1269.6505903000943,1270.797513099853,1269.6505903000943,1270.797513099853,1270.8174650999717,None,1270.8174650999717,None,1270.8174650999717,None,1270.8174650999717,None,1270.8174650999717,None,1270.8174650999717,None,1270.8174650999717,None,1270.8174650999717,None,1270.8174650999717,None,56,52,31,65,65,61,1273.3278196002357,None,6.0,0.4920350001193583,1273.3278196002357,None,1273.3278196002357,None,1273.3278196002357,None,1273.3278196002357,None,None,None,1273.8380808001384,None,,,,,,,143,f,1,2022_Dec_13_1633,RL,2021.2.3,60.13109787981678,
1,84,0,84,0,,,,,,,,,,,,,,,None,None,None,None,None,1275.5345350001007,None,1275.5345350001007,None,1275.5345350001007,None,1275.5345350001007,None,j,0.2612980999983847,1275.5345350001007,None,1275.5345350001007,None,1275.829347200226,None,1275.829347200226,None,1275.829347200226,None,1275.829347200226,None,1275.829347200226,None,1275.829347200226,None,1276.1165248001926,None,1276.1165248001926,None,1277.2166232001036,None,1277.2166232001036,None,1277.2166232001036,None,1277.2166232001036,None,1277.2166232001036,None,1277.2166232001036,None,1277.2166232001036,None,1277.2166232001036,None,1277.2166232001036,None,59,53,24,65,65,51,1279.7281650002114,None,6.0,0.8396692997775972,1279.7281650002114,None,1279.7281650002114,None,1279.7281650002114,None,1279.7281650002114,None,None,None,1280.5863900999539,None,,,,,,,143,f,1,2022_Dec_13_1633,RL,2021.2.3,60.13109787981678,
1,85,0,85,0,,,,,,,,,,,,,,,None,None,None,None,None,1282.2658414999023,None,1282.2658414999023,None,1282.2658414999023,None,1282.2658414999023,None,j,0.2800898998975754,1282.2658414999023,None,1282.2658414999023,None,1282.5774941998534,None,1282.5774941998534,None,1282.5774941998534,None,1282.5774941998534,None,1282.5774941998534,None,1282.5774941998534,None,1282.8647143999115,1284.2108465000056,1282.8647143999115,1284.2108465000056,1284.2308519999497,None,1284.2308519999497,None,1284.2308519999497,None,1284.2308519999497,None,1284.2308519999497,None,1284.2308519999497,None,1284.2308519999497,None,1284.2308519999497,None,1284.2308519999497,None,60,54,24,60,60,41,1286.7403470003046,None,6.0,0.7077297000214458,1286.7403470003046,None,1286.7403470003046,None,1286.7403470003046,None,1286.7403470003046,None,None,None,1287.4677937999368,None,,,,,,,143,f,1,2022_Dec_13_1633,RL,2021.2.3,60.13109787981678,
1,86,0,86,0,,,,,,,,,,,,,,,None,None,None,None,None,1289.2969677001238,None,1289.2969677001238,None,1289.2969677001238,None,1289.2969677001238,None,j,0.27355709997937083,1289.2969677001238,None,1289.2969677001238,None,1289.609106699936,None,1289.609106699936,None,1289.609106699936,None,1289.609106699936,None,1289.609106699936,None,1289.609106699936,None,1289.8953110999428,None,1289.8953110999428,None,1291.3291640998796,None,1291.3291640998796,None,1291.3291640998796,None,1291.3291640998796,None,1291.3291640998796,None,1291.3291640998796,None,1291.3291640998796,None,1291.3291640998796,None,1291.3291640998796,None,49,54,38,61,61,62,1293.8397996001877,None,5.0,0.7214580997824669,1293.8397996001877,None,1293.8397996001877,None,1293.8397996001877,None,1293.8397996001877,None,None,None,1294.5814398000948,None,,,,,,,143,f,1,2022_Dec_13_1633,RL,2021.2.3,60.13109787981678,
1,87,0,87,0,,,,,,,,,,,,,,,None,None,None,None,None,1296.5435637999326,None,1296.5435637999326,None,1296.5435637999326,None,1296.5435637999326,None,j,0.3161627999506891,1296.5435637999326,None,1296.5435637999326,None,1296.889563600067,None,1296.889563600067,None,1296.889563600067,None,1296.889563600067,None,1296.889563600067,None,1296.889563600067,None,1297.1756751001813,1298.4555224999785,1297.1756751001813,1298.4555224999785,1298.475587400142,None,1298.475587400142,None,1298.475587400142,None,1298.475587400142,None,1298.475587400142,None,1298.475587400142,None,1298.475587400142,None,1298.475587400142,None,1298.475587400142,None,49,52,35,65,65,57,1300.9832142000087,None,6.0,0.8928665001876652,1300.9832142000087,None,1300.9832142000087,None,1300.9832142000087,None,1300.9832142000087,None,None,None,1301.8950515999459,None,,,,,,,143,f,1,2022_Dec_13_1633,RL,2021.2.3,60.13109787981678,
1,88,0,88,0,,,,,,,,,,,,,,,None,None,None,None,None,1303.408093499951,None,1303.408093499951,None,1303.408093499951,None,1303.408093499951,None,j,0.31635680003091693,1303.408093499951,None,1303.408093499951,None,1303.753400800284,None,1303.753400800284,None,1303.753400800284,None,1303.753400800284,None,1303.753400800284,None,1303.753400800284,None,1304.0402714000084,None,1304.0402714000084,None,1305.2906214999966,None,1305.2906214999966,None,1305.2906214999966,None,1305.2906214999966,None,1305.2906214999966,None,1305.2906214999966,None,1305.2906214999966,None,1305.2906214999966,None,1305.2906214999966,None,57,57,39,57,57,44,1307.8019408001564,None,6.0,0.3933958001434803,1307.8019408001564,None,1307.8019408001564,None,1307.8019408001564,None,1307.8019408001564,None,None,None,1308.2111672000028,None,,,,,,,143,f,1,2022_Dec_13_1633,RL,2021.2.3,60.13109787981678,
1,89,0,89,0,,,,,,,,,,,,,,,None,None,None,None,None,1309.7906615999527,None,1309.7906615999527,None,1309.7906615999527,None,1309.7906615999527,None,j,0.4893649001605809,1309.7906615999527,None,1309.7906615999527,None,1310.317231300287,None,1310.317231300287,None,1310.317231300287,None,1310.317231300287,None,1310.317231300287,None,1310.317231300287,None,1310.6056420002133,1311.9850976001471,1310.6056420002133,1311.9850976001471,1312.0059521002695,None,1312.0059521002695,None,1312.0059521002695,None,1312.0059521002695,None,1312.0059521002695,None,1312.0059521002695,None,1312.0059521002695,None,1312.0059521002695,None,1312.0059521002695,None,53,45,41,61,61,60,1314.5186549001373,None,6.0,0.3404223001562059,1314.5186549001373,None,1314.5186549001373,None,1314.5186549001373,None,1314.5186549001373,None,None,None,1314.8764535998926,None,,,,,,,143,f,1,2022_Dec_13_1633,RL,2021.2.3,60.13109787981678,
1,90,0,90,0,,,,,,,,,,,,,,,None,None,None,None,None,1316.6223933002912,None,1316.6223933002912,None,1316.6223933002912,None,1316.6223933002912,None,j,0.3576813000254333,1316.6223933002912,None,1316.6223933002912,None,1317.0191712998785,None,1317.0191712998785,None,1317.0191712998785,None,1317.0191712998785,None,1317.0191712998785,None,1317.0191712998785,None,1317.304242500104,1318.8163757002912,1317.304242500104,1318.8163757002912,1318.8388514001854,None,1318.8388514001854,None,1318.8388514001854,None,1318.8388514001854,None,1318.8388514001854,None,1318.8388514001854,None,1318.8388514001854,None,1318.8388514001854,None,1318.8388514001854,None,54,46,40,76,76,44,1321.3480563000776,None,7.0,0.47445090021938086,1321.3480563000776,None,1321.3480563000776,None,1321.3480563000776,None,1321.3480563000776,None,None,None,1321.8405725001357,None,,,,,,,143,f,1,2022_Dec_13_1633,RL,2021.2.3,60.13109787981678,
1,91,0,91,0,,,,,,,,,,,,,,,None,None,None,None,None,1323.752967600245,None,1323.752967600245,None,1323.752967600245,None,1323.752967600245,None,j,0.2720940001308918,1323.752967600245,None,1323.752967600245,None,1324.0620097001083,None,1324.0620097001083,None,1324.0620097001083,None,1324.0620097001083,None,1324.0620097001083,None,1324.0620097001083,None,1324.3516947003081,None,1324.3516947003081,None,1325.352756000124,None,1325.352756000124,None,1325.352756000124,None,1325.352756000124,None,1325.352756000124,None,1325.352756000124,None,1325.352756000124,None,1325.352756000124,None,1325.352756000124,None,53,48,41,59,59,56,1327.8646455002017,None,6.0,0.6574124000035226,1327.8646455002017,None,1327.8646455002017,None,1327.8646455002017,None,1327.8646455002017,None,None,None,1328.5389608000405,None,,,,,,,143,f,1,2022_Dec_13_1633,RL,2021.2.3,60.13109787981678,
1,92,0,92,0,,,,,,,,,,,,,,,None,None,None,None,None,1330.1186462999322,None,1330.1186462999322,None,1330.1186462999322,None,1330.1186462999322,None,j,0.3074400001205504,1330.1186462999322,None,1330.1186462999322,None,1330.463212300092,None,1330.463212300092,None,1330.463212300092,None,1330.463212300092,None,1330.463212300092,None,1330.463212300092,None,1330.7508483002894,1331.6650307001546,1330.7508483002894,1331.6650307001546,1331.6868388000876,None,1331.6868388000876,None,1331.6868388000876,None,1331.6868388000876,None,1331.6868388000876,None,1331.6868388000876,None,1331.6868388000876,None,1331.6868388000876,None,1331.6868388000876,None,56,53,45,69,69,57,1334.197559799999,None,6.0,1.1867181002162397,1334.197559799999,None,1334.197559799999,None,1334.197559799999,None,1334.197559799999,None,None,None,1335.4033480002545,None,,,,,,,143,f,1,2022_Dec_13_1633,RL,2021.2.3,60.13109787981678,
1,93,0,93,0,,,,,,,,,,,,,,,None,None,None,None,None,1337.2491131001152,None,1337.2491131001152,None,1337.2491131001152,None,1337.2491131001152,None,i,0.49085080018267035,1337.2491131001152,None,1337.2491131001152,None,1337.7753166998737,None,1337.7753166998737,None,1337.7753166998737,None,1337.7753166998737,None,1337.7753166998737,None,1337.7753166998737,None,1338.064064499922,1339.3771353000775,1338.064064499922,1339.3771353000775,1339.4014834999107,None,1339.4014834999107,None,1339.4014834999107,None,1339.4014834999107,None,1339.4014834999107,None,1339.4014834999107,None,1339.4014834999107,None,1339.4014834999107,None,1339.4014834999107,None,55,56,49,70,49,62,1341.9088492002338,None,4.0,0.41100089997053146,1341.9088492002338,None,1341.9088492002338,None,1341.9088492002338,None,1341.9088492002338,None,None,None,1342.3346806000918,None,,,,,,,143,f,1,2022_Dec_13_1633,RL,2021.2.3,60.13109787981678,
1,94,0,94,0,,,,,,,,,,,,,,,None,None,None,None,None,1344.163945300039,None,1344.163945300039,None,1344.163945300039,None,1344.163945300039,None,j,0.23223759979009628,1344.163945300039,None,1344.163945300039,None,1344.4244841998443,None,1344.4244841998443,None,1344.4244841998443,None,1344.4244841998443,None,1344.4244841998443,None,1344.4244841998443,None,1344.712944299914,None,1344.712944299914,None,1346.726871700026,None,1346.726871700026,None,1346.726871700026,None,1346.726871700026,None,1346.726871700026,None,1346.726871700026,None,1346.726871700026,None,1346.726871700026,None,1346.726871700026,None,65,49,46,67,67,59,1349.238176799845,None,6.0,0.9392186002805829,1349.238176799845,None,1349.238176799845,None,1349.238176799845,None,1349.238176799845,None,None,None,1350.1963947000913,None,,,,,,,143,f,1,2022_Dec_13_1633,RL,2021.2.3,60.13109787981678,
1,95,0,95,0,,,,,,,,,,,,,,,None,None,None,None,None,1351.992524100002,None,1351.992524100002,None,1351.992524100002,None,1351.992524100002,None,j,0.3078097999095917,1351.992524100002,None,1351.992524100002,None,1352.3385414001532,None,1352.3385414001532,None,1352.3385414001532,None,1352.3385414001532,None,1352.3385414001532,None,1352.3385414001532,None,1352.6244093002751,1353.654752700124,1352.6244093002751,1353.654752700124,1353.6758820000105,None,1353.6758820000105,None,1353.6758820000105,None,1353.6758820000105,None,1353.6758820000105,None,1353.6758820000105,None,1353.6758820000105,None,1353.6758820000105,None,1353.6758820000105,None,54,69,55,72,72,54,1356.1869060001336,None,7.0,0.7270855996757746,1356.1869060001336,None,1356.1869060001336,None,1356.1869060001336,None,1356.1869060001336,None,None,None,1356.9280588002875,None,,,,,,,143,f,1,2022_Dec_13_1633,RL,2021.2.3,60.13109787981678,
1,96,0,96,0,,,,,,,,,,,,,,,None,None,None,None,None,1358.5912330001593,None,1358.5912330001593,None,1358.5912330001593,None,1358.5912330001593,None,j,0.2644605999812484,1358.5912330001593,None,1358.5912330001593,None,1358.883074699901,None,1358.883074699901,None,1358.883074699901,None,1358.883074699901,None,1358.883074699901,None,1358.883074699901,None,1359.1732275001705,1360.1703515001573,1359.1732275001705,1360.1703515001573,1360.1905765002593,None,1360.1905765002593,None,1360.1905765002593,None,1360.1905765002593,None,1360.1905765002593,None,1360.1905765002593,None,1360.1905765002593,None,1360.1905765002593,None,1360.1905765002593,None,53,49,60,60,60,70,1362.7027246002108,None,4.0,0.7062706002034247,1362.7027246002108,None,1362.7027246002108,None,1362.7027246002108,None,1362.7027246002108,None,None,None,1363.4270637002774,None,,,,,,,143,f,1,2022_Dec_13_1633,RL,2021.2.3,60.13109787981678,
1,97,0,97,0,,,,,,,,,,,,,,,None,None,None,None,None,1365.056908099912,None,1365.056908099912,None,1365.056908099912,None,1365.056908099912,None,j,0.29510549968108535,1365.056908099912,None,1365.056908099912,None,1365.3853259999305,None,1365.3853259999305,None,1365.3853259999305,None,1365.3853259999305,None,1365.3853259999305,None,1365.3853259999305,None,1365.6719969999976,1366.652417300269,1365.6719969999976,1366.652417300269,1366.6743767000735,None,1366.6743767000735,None,1366.6743767000735,None,1366.6743767000735,None,1366.6743767000735,None,1366.6743767000735,None,1366.6743767000735,None,1366.6743767000735,None,1366.6743767000735,None,55,48,56,65,65,55,1369.1847053999081,None,5.0,1.369815199635923,1369.1847053999081,None,1369.1847053999081,None,1369.1847053999081,None,1369.1847053999081,None,None,None,1370.5742021002807,None,,,,,,,143,f,1,2022_Dec_13_1633,RL,2021.2.3,60.13109787981678,
1,98,0,98,0,,,,,,,,,,,,,,,None,None,None,None,None,1372.3535191002302,None,1372.3535191002302,None,1372.3535191002302,None,1372.3535191002302,None,j,0.2573780999518931,1372.3535191002302,None,1372.3535191002302,None,1372.6488029002212,None,1372.6488029002212,None,1372.6488029002212,None,1372.6488029002212,None,1372.6488029002212,None,1372.6488029002212,None,1372.9354397002608,1374.5474662999623,1372.9354397002608,1374.5474662999623,1374.5683896001428,None,1374.5683896001428,None,1374.5683896001428,None,1374.5683896001428,None,1374.5683896001428,None,1374.5683896001428,None,1374.5683896001428,None,1374.5683896001428,None,1374.5683896001428,None,57,57,54,53,53,66,1377.0794763001613,None,4.0,0.36186790000647306,1377.0794763001613,None,1377.0794763001613,None,1377.0794763001613,None,1377.0794763001613,None,None,None,1377.4553868002258,None,,,,,,,143,f,1,2022_Dec_13_1633,RL,2021.2.3,60.13109787981678,
1,99,0,99,0,,,,,,,,,,,,,,,None,None,None,None,None,1379.1016548001207,None,1379.1016548001207,None,1379.1016548001207,None,1379.1016548001207,None,i,0.3792238002642989,1379.1016548001207,None,1379.1016548001207,None,1379.5108055998571,None,1379.5108055998571,None,1379.5108055998571,None,1379.5108055998571,None,1379.5108055998571,None,1379.5108055998571,None,1379.8000436001457,None,1379.8000436001457,None,1381.0166462999769,None,1381.0166462999769,None,1381.0166462999769,None,1381.0166462999769,None,1381.0166462999769,None,1381.0166462999769,None,1381.0166462999769,None,1381.0166462999769,None,1381.0166462999769,None,55,58,51,56,51,57,1383.5278837000951,None,4.0,0.4567121001891792,1383.5278837000951,None,1383.5278837000951,None,1383.5278837000951,None,1383.5278837000951,None,None,None,1384.0044201002456,None,,,,,,,143,f,1,2022_Dec_13_1633,RL,2021.2.3,60.13109787981678,
1,100,0,100,0,,,,,,,,,,,,,,,None,None,None,None,None,1385.8333691000007,None,1385.8333691000007,None,1385.8333691000007,None,1385.8333691000007,None,f,0.31738230027258396,1385.8333691000007,None,1385.8333691000007,None,1386.1777484999038,None,1386.1777484999038,None,1386.1777484999038,None,1386.1777484999038,None,1386.1777484999038,None,1386.1777484999038,None,1386.4656755002216,None,1386.4656755002216,None,1387.6164327003062,None,1387.6164327003062,None,1387.6164327003062,None,1387.6164327003062,None,1387.6164327003062,None,1387.6164327003062,None,1387.6164327003062,None,1387.6164327003062,None,1387.6164327003062,None,52,57,53,55,57,53,1390.1280399002135,None,6.0,0.9549370002932847,1390.1280399002135,None,1390.1280399002135,None,1390.1280399002135,None,1390.1280399002135,None,None,None,1391.1014998001046,None,,,,,,,143,f,1,2022_Dec_13_1633,RL,2021.2.3,60.13109787981678,
1,101,0,101,0,,,,,,,,,,,,,,,None,None,None,None,None,1392.9140560999513,None,1392.9140560999513,None,1392.9140560999513,None,1392.9140560999513,None,f,0.2811432001180947,1392.9140560999513,None,1392.9140560999513,None,1393.2229506000876,None,1393.2229506000876,None,1393.2229506000876,None,1393.2229506000876,None,1393.2229506000876,None,1393.2229506000876,None,1393.512930400204,1394.8260552003048,1393.512930400204,1394.8260552003048,1394.8480678000487,None,1394.8480678000487,None,1394.8480678000487,None,1394.8480678000487,None,1394.8480678000487,None,1394.8480678000487,None,1394.8480678000487,None,1394.8480678000487,None,1394.8480678000487,None,49,58,52,56,58,74,1397.3573765000328,None,3.0,1.253927499987185,1397.3573765000328,None,1397.3573765000328,None,1397.3573765000328,None,1397.3573765000328,None,None,None,1398.6315115001053,None,,,,,,,143,f,1,2022_Dec_13_1633,RL,2021.2.3,60.13109787981678,
1,102,0,102,0,,,,,,,,,,,,,,,None,None,None,None,None,1400.5929017001763,None,1400.5929017001763,None,1400.5929017001763,None,1400.5929017001763,None,r,0.4713058997876942,1400.5929017001763,None,1400.5929017001763,None,1401.1025430001318,None,1401.1025430001318,None,1401.1025430001318,None,1401.1025430001318,None,1401.1025430001318,None,1401.1025430001318,None,1401.3912849999033,1402.9202686999924,1401.3912849999033,1402.9202686999924,1402.9423652002588,None,1402.9423652002588,None,1402.9423652002588,None,1402.9423652002588,None,1402.9423652002588,None,1402.9423652002588,None,1402.9423652002588,None,1402.9423652002588,None,1402.9423652002588,None,47,52,55,48,47,63,1405.4538034000434,None,3.0,0.421866100281477,1405.4538034000434,None,1405.4538034000434,None,1405.4538034000434,None,1405.4538034000434,None,None,None,1405.8945118999109,None,,,,,,,143,f,1,2022_Dec_13_1633,RL,2021.2.3,60.13109787981678,
1,103,0,103,0,,,,,,,,,,,,,,,None,None,None,None,None,1407.9062133003026,None,1407.9062133003026,None,1407.9062133003026,None,1407.9062133003026,None,j,0.3481903998181224,1407.9062133003026,None,1407.9062133003026,None,1408.2852679998614,None,1408.2852679998614,None,1408.2852679998614,None,1408.2852679998614,None,1408.2852679998614,None,1408.2852679998614,None,1408.5716166002676,1409.635472100228,1408.5716166002676,1409.635472100228,1409.6568232001737,None,1409.6568232001737,None,1409.6568232001737,None,1409.6568232001737,None,1409.6568232001737,None,1409.6568232001737,None,1409.6568232001737,None,1409.6568232001737,None,1409.6568232001737,None,49,56,54,54,54,33,1412.166963300202,None,5.0,0.4244157997891307,1412.166963300202,None,1412.166963300202,None,1412.166963300202,None,1412.166963300202,None,None,None,1412.6094527002424,None,,,,,,,143,f,1,2022_Dec_13_1633,RL,2021.2.3,60.13109787981678,
1,104,0,104,0,,,,,,,,,,,,,,,None,None,None,None,None,1414.5380775001831,None,1414.5380775001831,None,1414.5380775001831,None,1414.5380775001831,None,j,0.31091760005801916,1414.5380775001831,None,1414.5380775001831,None,1414.8816416999325,None,1414.8816416999325,None,1414.8816416999325,None,1414.8816416999325,None,1414.8816416999325,None,1414.8816416999325,None,1415.1705272002146,None,1415.1705272002146,None,1416.6533316001296,None,1416.6533316001296,None,1416.6533316001296,None,1416.6533316001296,None,1416.6533316001296,None,1416.6533316001296,None,1416.6533316001296,None,1416.6533316001296,None,1416.6533316001296,None,47,61,50,52,52,64,1419.1646827002987,None,4.0,0.440847699996084,1419.1646827002987,None,1419.1646827002987,None,1419.1646827002987,None,1419.1646827002987,None,None,None,1419.6245112000033,None,,,,,,,143,f,1,2022_Dec_13_1633,RL,2021.2.3,60.13109787981678,
1,105,0,105,0,,,,,,,,,,,,,,,None,None,None,None,None,1421.4035155000165,None,1421.4035155000165,None,1421.4035155000165,None,1421.4035155000165,None,j,0.07123959995806217,1421.4035155000165,None,1421.4035155000165,None,1421.5155992000364,None,1421.5155992000364,None,1421.5155992000364,None,1421.5155992000364,None,1421.5155992000364,None,1421.5155992000364,None,1421.8021404002793,1423.4309751000255,1421.8021404002793,1423.4309751000255,1423.4516646000557,None,1423.4516646000557,None,1423.4516646000557,None,1423.4516646000557,None,1423.4516646000557,None,1423.4516646000557,None,1423.4516646000557,None,1423.4516646000557,None,1423.4516646000557,None,45,55,46,50,50,61,1425.9620546000078,None,3.0,0.6238954002037644,1425.9620546000078,None,1425.9620546000078,None,1425.9620546000078,None,1425.9620546000078,None,None,None,1426.6046088999137,None,,,,,,,143,f,1,2022_Dec_13_1633,RL,2021.2.3,60.13109787981678,
1,106,0,106,0,,,,,,,,,,,,,,,None,None,None,None,None,1428.5998400999233,None,1428.5998400999233,None,1428.5998400999233,None,1428.5998400999233,None,r,0.28964529978111386,1428.5998400999233,None,1428.5998400999233,None,1428.9273140002042,None,1428.9273140002042,None,1428.9273140002042,None,1428.9273140002042,None,1428.9273140002042,None,1428.9273140002042,None,1429.2154434002005,1431.0767097999342,1429.2154434002005,1431.0767097999342,1431.0976416999474,None,1431.0976416999474,None,1431.0976416999474,None,1431.0976416999474,None,1431.0976416999474,None,1431.0976416999474,None,1431.0976416999474,None,1431.0976416999474,None,1431.0976416999474,None,43,48,54,47,43,45,1433.6061801998876,None,3.0,0.8739566998556256,1433.6061801998876,None,1433.6061801998876,None,1433.6061801998876,None,1433.6061801998876,None,None,None,1434.4998671999201,None,,,,,,,143,f,1,2022_Dec_13_1633,RL,2021.2.3,60.13109787981678,
1,107,0,107,0,,,,,,,,,,,,,,,None,None,None,None,None,1436.1460927003063,None,1436.1460927003063,None,1436.1460927003063,None,1436.1460927003063,None,r,0.2577613000757992,1436.1460927003063,None,1436.1460927003063,None,1436.4405948999338,None,1436.4405948999338,None,1436.4405948999338,None,1436.4405948999338,None,1436.4405948999338,None,1436.4405948999338,None,1436.7281268001534,1438.423859400209,1436.7281268001534,1438.423859400209,1438.4454811001197,None,1438.4454811001197,None,1438.4454811001197,None,1438.4454811001197,None,1438.4454811001197,None,1438.4454811001197,None,1438.4454811001197,None,1438.4454811001197,None,1438.4454811001197,None,42,48,53,44,42,44,1440.9549169000238,None,3.0,0.5400213003158569,1440.9549169000238,None,1440.9549169000238,None,1440.9549169000238,None,1440.9549169000238,None,None,None,1441.5142622999847,None,,,,,,,143,f,1,2022_Dec_13_1633,RL,2021.2.3,60.13109787981678,
1,108,0,108,0,,,,,,,,,,,,,,,None,None,None,None,None,1443.1937323999591,None,1443.1937323999591,None,1443.1937323999591,None,1443.1937323999591,None,f,0.3048801999539137,1443.1937323999591,None,1443.1937323999591,None,1443.5355700002983,None,1443.5355700002983,None,1443.5355700002983,None,1443.5355700002983,None,1443.5355700002983,None,1443.5355700002983,None,1443.8254678002559,1444.73950290028,1443.8254678002559,1444.73950290028,1444.7600481002592,None,1444.7600481002592,None,1444.7600481002592,None,1444.7600481002592,None,1444.7600481002592,None,1444.7600481002592,None,1444.7600481002592,None,1444.7600481002592,None,1444.7600481002592,None,44,45,56,48,45,53,1447.2688095001504,None,4.0,0.4450765000656247,1447.2688095001504,None,1447.2688095001504,None,1447.2688095001504,None,1447.2688095001504,None,None,None,1447.7309015998617,None,,,,,,,143,f,1,2022_Dec_13_1633,RL,2021.2.3,60.13109787981678,
1,109,0,109,0,,,,,,,,,,,,,,,None,None,None,None,None,1449.6258243001066,None,1449.6258243001066,None,1449.6258243001066,None,1449.6258243001066,None,f,0.3082741000689566,1449.6258243001066,None,1449.6258243001066,None,1449.969334800262,None,1449.969334800262,None,1449.969334800262,None,1449.969334800262,None,1449.969334800262,None,1449.969334800262,None,1450.257887000218,1452.1694751000032,1450.257887000218,1452.1694751000032,1452.1887131999247,None,1452.1887131999247,None,1452.1887131999247,None,1452.1887131999247,None,1452.1887131999247,None,1452.1887131999247,None,1452.1887131999247,None,1452.1887131999247,None,1452.1887131999247,None,40,58,58,41,58,71,1454.6987359002233,None,5.0,0.92353710019961,1454.6987359002233,None,1454.6987359002233,None,1454.6987359002233,None,1454.6987359002233,None,None,None,1455.6423486000858,None,,,,,,,143,f,1,2022_Dec_13_1633,RL,2021.2.3,60.13109787981678,
1,110,0,110,0,,,,,,,,,,,,,,,None,None,None,None,None,1457.3218684000894,None,1457.3218684000894,None,1457.3218684000894,None,1457.3218684000894,None,i,0.2507986999116838,1457.3218684000894,None,1457.3218684000894,None,1457.598139199894,None,1457.598139199894,None,1457.598139199894,None,1457.598139199894,None,1457.598139199894,None,1457.598139199894,None,1457.8873157999478,None,1457.8873157999478,None,1459.5856932001188,None,1459.5856932001188,None,1459.5856932001188,None,1459.5856932001188,None,1459.5856932001188,None,1459.5856932001188,None,1459.5856932001188,None,1459.5856932001188,None,1459.5856932001188,None,41,50,51,41,51,71,1462.094521800056,None,3.0,0.7604001997970045,1462.094521800056,None,1462.094521800056,None,1462.094521800056,None,1462.094521800056,None,None,None,1462.8723802999593,None,,,,,,,143,f,1,2022_Dec_13_1633,RL,2021.2.3,60.13109787981678,
