bandit,trials.thisRepN,trials.thisTrialN,trials.thisN,trials.thisIndex,instru_img1.started,instru_img1.stopped,instru_resp.keys,instru_resp.rt,instru_resp.started,instru_resp.stopped,instru_img2.started,instru_img2.stopped,instru_resp2.keys,instru_resp2.rt,instru_resp2.started,instru_resp2.stopped,fixbefore_2.started,fixbefore_2.stopped,rest_image.started,rest_image.stopped,rest_response.keys,rest_response.started,rest_response.stopped,red.started,red.stopped,green.started,green.stopped,yellow.started,yellow.stopped,blue.started,blue.stopped,choose_bandit.keys,choose_bandit.rt,choose_bandit.started,choose_bandit.stopped,Fixation.started,Fixation.stopped,black.started,black.stopped,red_2.started,red_2.stopped,green_2.started,green_2.stopped,yellow_2.started,yellow_2.stopped,blue_2.started,blue_2.stopped,fixation_2.started,fixation_2.stopped,docs.started,docs.stopped,image_2.started,image_2.stopped,black_com.started,black_com.stopped,reward_sub.started,reward_sub.stopped,palyerb.started,palyerb.stopped,reward__sub.started,reward__sub.stopped,compare.started,compare.stopped,red_compare.started,red_compare.stopped,green_com.started,green_com.stopped,yellow_com.started,yellow_com.stopped,blue_com.started,blue_com.stopped,rewardyellow,rewardred,rewardblue,rewardgreen,subchoose,playerb,image_3.started,image_3.stopped,slider.response,slider.rt,slider.started,slider.stopped,text.started,text.stopped,image_4.started,image_4.stopped,image_5.started,image_5.stopped,bigx.started,bigx.stopped,intertrialfix.started,intertrialfix.stopped,rest_response.rt,image.started,image.stopped,key_resp.keys,key_resp.started,key_resp.stopped,participant,Gender,Age,date,expName,psychopyVersion,frameRate,
,,,,,462.66360340011306,None,space,46.81797099998221,462.66360340011306,None,,,,,,,,,,,,,,,,,,,,,,,,,,,,,,,,,,,,,,,,,,,,,,,,,,,,,,,,,,,,,,,,,,,,,,,,,,,,,,,,,,,,,,,,,,144,f,1,2022_Dec_13_1633,RL,2021.2.3,59.992428967654995,
,,,,,,,,,,,509.51210880000144,None,space,27.74788530007936,509.51210880000144,None,,,,,,,,,,,,,,,,,,,,,,,,,,,,,,,,,,,,,,,,,,,,,,,,,,,,,,,,,,,,,,,,,,,,,,,,,,,,,,,,,,,,144,f,1,2022_Dec_13_1633,RL,2021.2.3,59.992428967654995,
1,0,0,0,0,,,,,,,,,,,,,537.2920586999971,None,None,None,None,None,None,538.3120361000765,None,538.3120361000765,None,538.3120361000765,None,538.3120361000765,None,i,0.8175770998932421,538.3120361000765,None,538.3120361000765,None,539.1776644999627,None,539.1776644999627,None,539.1776644999627,None,539.1776644999627,None,539.1776644999627,None,539.1776644999627,None,539.4643445000984,None,539.4643445000984,None,541.3552445999812,None,541.3552445999812,None,541.3552445999812,None,541.3552445999812,None,541.3552445999812,None,541.3552445999812,None,541.3552445999812,None,541.3552445999812,None,541.3552445999812,None,30,63,68,36,68,52,543.8878548000939,None,7.0,5.824395600007847,543.8878548000939,None,543.8878548000939,None,543.8878548000939,None,543.8878548000939,None,None,None,549.7473892001435,None,,,,,,,144,f,1,2022_Dec_13_1633,RL,2021.2.3,59.992428967654995,
1,1,0,1,0,,,,,,,,,,,,,,,None,None,None,None,None,551.6760521000251,None,551.6760521000251,None,551.6760521000251,None,551.6760521000251,None,None,,551.6760521000251,None,551.6760521000251,None,None,None,None,None,None,None,None,None,None,None,None,None,None,None,None,None,None,None,None,None,None,None,None,None,None,None,None,None,None,None,None,None,None,None,36,66,68,38,0,**,None,None,None,None,None,None,None,None,None,None,None,None,553.2365606001113,None,557.7436194000766,None,,,,,,,144,f,1,2022_Dec_13_1633,RL,2021.2.3,59.992428967654995,
1,2,0,2,0,,,,,,,,,,,,,,,None,None,None,None,None,559.5974757999647,None,559.5974757999647,None,559.5974757999647,None,559.5974757999647,None,i,0.4623598998878151,559.5974757999647,None,559.5974757999647,None,560.1016051000915,None,560.1016051000915,None,560.1016051000915,None,560.1016051000915,None,560.1016051000915,None,560.1016051000915,None,560.3954433000181,None,560.3954433000181,None,561.954309000168,None,561.954309000168,None,561.954309000168,None,561.954309000168,None,561.954309000168,None,561.954309000168,None,561.954309000168,None,561.954309000168,None,561.954309000168,None,43,60,71,35,71,61,564.4606800000183,None,7.0,1.5408531001303345,564.4606800000183,None,564.4606800000183,None,564.4606800000183,None,564.4606800000183,None,None,None,566.0266090000514,None,,,,,,,144,f,1,2022_Dec_13_1633,RL,2021.2.3,59.992428967654995,
1,3,0,3,0,,,,,,,,,,,,,,,None,None,None,None,None,567.8370880000293,None,567.8370880000293,None,567.8370880000293,None,567.8370880000293,None,f,0.42294620000757277,567.8370880000293,None,567.8370880000293,None,568.3066873000935,None,568.3066873000935,None,568.3066873000935,None,568.3066873000935,None,568.3066873000935,None,568.3066873000935,None,568.6012381999753,None,568.6012381999753,None,570.5814736001194,None,570.5814736001194,None,570.5814736001194,None,570.5814736001194,None,570.5814736001194,None,570.5814736001194,None,570.5814736001194,None,570.5814736001194,None,570.5814736001194,None,34,60,65,35,60,60,573.1027969000861,None,7.0,0.7048456000629812,573.1027969000861,None,573.1027969000861,None,573.1027969000861,None,573.1027969000861,None,None,None,573.8211553001311,None,,,,,,,144,f,1,2022_Dec_13_1633,RL,2021.2.3,59.992428967654995,
1,4,0,4,0,,,,,,,,,,,,,,,None,None,None,None,None,575.6592312001158,None,575.6592312001158,None,575.6592312001158,None,575.6592312001158,None,r,0.6408778999466449,575.6592312001158,None,575.6592312001158,None,576.3453879000153,None,576.3453879000153,None,576.3453879000153,None,576.3453879000153,None,576.3453879000153,None,576.3453879000153,None,576.6401341001038,None,576.6401341001038,None,578.239955099998,None,578.239955099998,None,578.239955099998,None,578.239955099998,None,578.239955099998,None,578.239955099998,None,578.239955099998,None,578.239955099998,None,578.239955099998,None,35,60,67,32,35,57,580.7570579999592,None,3.0,1.9554673000238836,580.7570579999592,None,580.7570579999592,None,580.7570579999592,None,580.7570579999592,None,None,None,582.7270168999676,None,,,,,,,144,f,1,2022_Dec_13_1633,RL,2021.2.3,59.992428967654995,
1,5,0,5,0,,,,,,,,,,,,,,,None,None,None,None,None,584.4149019999895,None,584.4149019999895,None,584.4149019999895,None,584.4149019999895,None,j,0.4252788999583572,584.4149019999895,None,584.4149019999895,None,584.8837238999549,None,584.8837238999549,None,584.8837238999549,None,584.8837238999549,None,584.8837238999549,None,584.8837238999549,None,585.1794302000199,None,585.1794302000199,None,586.0457846000791,None,586.0457846000791,None,586.0457846000791,None,586.0457846000791,None,586.0457846000791,None,586.0457846000791,None,586.0457846000791,None,586.0457846000791,None,586.0457846000791,None,43,57,62,47,47,61,588.5658048000187,None,3.0,2.103688000002876,588.5658048000187,None,588.5658048000187,None,588.5658048000187,None,588.5658048000187,None,None,None,590.6861382999923,None,,,,,,,144,f,1,2022_Dec_13_1633,RL,2021.2.3,59.992428967654995,
1,6,0,6,0,,,,,,,,,,,,,,,None,None,None,None,None,592.2541416999884,None,592.2541416999884,None,592.2541416999884,None,592.2541416999884,None,i,0.5560578000731766,592.2541416999884,None,592.2541416999884,None,592.8607042001095,None,592.8607042001095,None,592.8607042001095,None,592.8607042001095,None,592.8607042001095,None,592.8607042001095,None,593.1513897001278,None,593.1513897001278,None,594.849232000066,None,594.849232000066,None,594.849232000066,None,594.849232000066,None,594.849232000066,None,594.849232000066,None,594.849232000066,None,594.849232000066,None,594.849232000066,None,31,62,66,32,66,53,597.3676092999522,None,6.0,2.5236903000622988,597.3676092999522,None,597.3676092999522,None,597.3676092999522,None,597.3676092999522,None,None,None,599.905863400083,None,,,,,,,144,f,1,2022_Dec_13_1633,RL,2021.2.3,59.992428967654995,
1,7,0,7,0,,,,,,,,,,,,,,,None,None,None,None,None,601.6766916001216,None,601.6766916001216,None,601.6766916001216,None,601.6766916001216,None,i,0.683386699995026,601.6766916001216,None,601.6766916001216,None,602.4149687001482,None,602.4149687001482,None,602.4149687001482,None,602.4149687001482,None,602.4149687001482,None,602.4149687001482,None,602.6915736999363,604.4259457001463,602.6915736999363,604.4259457001463,604.4739959000144,None,604.4739959000144,None,604.4739959000144,None,604.4739959000144,None,604.4739959000144,None,604.4739959000144,None,604.4739959000144,None,604.4739959000144,None,604.4739959000144,None,36,68,67,39,67,45,606.9912845999934,None,7.0,1.7386133999098092,606.9912845999934,None,606.9912845999934,None,606.9912845999934,None,606.9912845999934,None,None,None,608.7452491000295,None,,,,,,,144,f,1,2022_Dec_13_1633,RL,2021.2.3,59.992428967654995,
1,8,0,8,0,,,,,,,,,,,,,,,None,None,None,None,None,610.6502803000621,None,610.6502803000621,None,610.6502803000621,None,610.6502803000621,None,i,0.629913300042972,610.6502803000621,None,610.6502803000621,None,611.3198890001513,None,611.3198890001513,None,611.3198890001513,None,611.3198890001513,None,611.3198890001513,None,611.3198890001513,None,611.6144139999524,None,611.6144139999524,None,612.8536408999935,None,612.8536408999935,None,612.8536408999935,None,612.8536408999935,None,612.8536408999935,None,612.8536408999935,None,612.8536408999935,None,612.8536408999935,None,612.8536408999935,None,39,64,64,37,64,48,615.3805959001184,None,7.0,1.4712101998738945,615.3805959001184,None,615.3805959001184,None,615.3805959001184,None,615.3805959001184,None,None,None,616.8675088000018,None,,,,,,,144,f,1,2022_Dec_13_1633,RL,2021.2.3,59.992428967654995,
1,9,0,9,0,,,,,,,,,,,,,,,None,None,None,None,None,618.5216352001298,None,618.5216352001298,None,618.5216352001298,None,618.5216352001298,None,i,0.7195111999753863,618.5216352001298,None,618.5216352001298,None,619.2927888999693,None,619.2927888999693,None,619.2927888999693,None,619.2927888999693,None,619.2927888999693,None,619.2927888999693,None,619.5866308000404,None,619.5866308000404,None,621.4191072999965,None,621.4191072999965,None,621.4191072999965,None,621.4191072999965,None,621.4191072999965,None,621.4191072999965,None,621.4191072999965,None,621.4191072999965,None,621.4191072999965,None,36,63,61,45,61,57,623.9370802000631,None,7.0,1.8574141999706626,623.9370802000631,None,623.9370802000631,None,623.9370802000631,None,623.9370802000631,None,None,None,625.8180907000788,None,,,,,,,144,f,1,2022_Dec_13_1633,RL,2021.2.3,59.992428967654995,
1,10,0,10,0,,,,,,,,,,,,,,,None,None,None,None,None,627.7282698999625,None,627.7282698999625,None,627.7282698999625,None,627.7282698999625,None,i,0.5328007999341935,627.7282698999625,None,627.7282698999625,None,628.3193908999674,None,628.3193908999674,None,628.3193908999674,None,628.3193908999674,None,628.3193908999674,None,628.3193908999674,None,628.609572699992,None,628.609572699992,None,629.7889243001118,None,629.7889243001118,None,629.7889243001118,None,629.7889243001118,None,629.7889243001118,None,629.7889243001118,None,629.7889243001118,None,629.7889243001118,None,629.7889243001118,None,26,54,50,41,50,51,632.3070446001366,None,5.0,2.207375100115314,632.3070446001366,None,632.3070446001366,None,632.3070446001366,None,632.3070446001366,None,None,None,634.5297960001044,None,,,,,,,144,f,1,2022_Dec_13_1633,RL,2021.2.3,59.992428967654995,
1,11,0,11,0,,,,,,,,,,,,,,,None,None,None,None,None,636.1340292999521,None,636.1340292999521,None,636.1340292999521,None,636.1340292999521,None,j,1.2971687999088317,636.1340292999521,None,636.1340292999521,None,637.4702894000802,None,637.4702894000802,None,637.4702894000802,None,637.4702894000802,None,637.4702894000802,None,637.4702894000802,None,637.7657856999431,None,637.7657856999431,None,639.398252400104,None,639.398252400104,None,639.398252400104,None,639.398252400104,None,639.398252400104,None,639.398252400104,None,639.398252400104,None,639.398252400104,None,639.398252400104,None,19,57,51,43,43,43,641.9156992000062,None,5.0,2.723478199914098,641.9156992000062,None,641.9156992000062,None,641.9156992000062,None,641.9156992000062,None,None,None,644.6580215001013,None,,,,,,,144,f,1,2022_Dec_13_1633,RL,2021.2.3,59.992428967654995,
1,12,0,12,0,,,,,,,,,,,,,,,None,None,None,None,None,646.5419292999431,None,646.5419292999431,None,646.5419292999431,None,646.5419292999431,None,r,0.5993913998827338,646.5419292999431,None,646.5419292999431,None,647.1941146999598,None,647.1941146999598,None,647.1941146999598,None,647.1941146999598,None,647.1941146999598,None,647.1941146999598,None,647.4892293999437,None,647.4892293999437,None,648.8542375999968,None,648.8542375999968,None,648.8542375999968,None,648.8542375999968,None,648.8542375999968,None,648.8542375999968,None,648.8542375999968,None,648.8542375999968,None,648.8542375999968,None,20,57,55,41,20,56,651.371353500057,None,2.0,3.574286799877882,651.371353500057,None,651.371353500057,None,651.371353500057,None,651.371353500057,None,None,None,654.9606256000698,None,,,,,,,144,f,1,2022_Dec_13_1633,RL,2021.2.3,59.992428967654995,
1,13,0,13,0,,,,,,,,,,,,,,,None,None,None,None,None,656.7317516000476,None,656.7317516000476,None,656.7317516000476,None,656.7317516000476,None,i,0.5898116999305785,656.7317516000476,None,656.7317516000476,None,657.3692807001062,None,657.3692807001062,None,657.3692807001062,None,657.3692807001062,None,657.3692807001062,None,657.3692807001062,None,657.6629623000044,659.130560999969,657.6629623000044,659.130560999969,659.1602166001685,None,659.1602166001685,None,659.1602166001685,None,659.1602166001685,None,659.1602166001685,None,659.1602166001685,None,659.1602166001685,None,659.1602166001685,None,659.1602166001685,None,25,57,61,42,61,56,661.6791135999374,None,7.0,1.722243099939078,661.6791135999374,None,661.6791135999374,None,661.6791135999374,None,661.6791135999374,None,None,None,663.4164152001031,None,,,,,,,144,f,1,2022_Dec_13_1633,RL,2021.2.3,59.992428967654995,
1,14,0,14,0,,,,,,,,,,,,,,,None,None,None,None,None,665.3046105999965,None,665.3046105999965,None,665.3046105999965,None,665.3046105999965,None,i,0.656999500002712,665.3046105999965,None,665.3046105999965,None,666.0085452001076,None,666.0085452001076,None,666.0085452001076,None,666.0085452001076,None,666.0085452001076,None,666.0085452001076,None,666.2856733000372,667.519617700018,666.2856733000372,667.519617700018,667.5554325999692,None,667.5554325999692,None,667.5554325999692,None,667.5554325999692,None,667.5554325999692,None,667.5554325999692,None,667.5554325999692,None,667.5554325999692,None,667.5554325999692,None,22,75,58,49,58,49,670.0659638000652,None,7.0,1.2727838000282645,670.0659638000652,None,670.0659638000652,None,670.0659638000652,None,670.0659638000652,None,None,None,671.3553848001175,None,,,,,,,144,f,1,2022_Dec_13_1633,RL,2021.2.3,59.992428967654995,
1,15,0,15,0,,,,,,,,,,,,,,,None,None,None,None,None,673.0595869999379,None,673.0595869999379,None,673.0595869999379,None,673.0595869999379,None,i,0.7122440000530332,673.0595869999379,None,673.0595869999379,None,673.8112819001544,None,673.8112819001544,None,673.8112819001544,None,673.8112819001544,None,673.8112819001544,None,673.8112819001544,None,674.1079089001287,None,674.1079089001287,None,675.9215158999432,None,675.9215158999432,None,675.9215158999432,None,675.9215158999432,None,675.9215158999432,None,675.9215158999432,None,675.9215158999432,None,675.9215158999432,None,675.9215158999432,None,16,71,59,52,59,51,678.4395753999706,None,7.0,0.7563410000875592,678.4395753999706,None,678.4395753999706,None,678.4395753999706,None,678.4395753999706,None,None,None,679.2107712000143,None,,,,,,,144,f,1,2022_Dec_13_1633,RL,2021.2.3,59.992428967654995,
1,16,0,16,0,,,,,,,,,,,,,,,None,None,None,None,None,681.2156367001589,None,681.2156367001589,None,681.2156367001589,None,681.2156367001589,None,i,0.6357561000622809,681.2156367001589,None,681.2156367001589,None,681.9018093000632,None,681.9018093000632,None,681.9018093000632,None,681.9018093000632,None,681.9018093000632,None,681.9018093000632,None,682.1966993000824,None,682.1966993000824,None,684.1430993000977,None,684.1430993000977,None,684.1430993000977,None,684.1430993000977,None,684.1430993000977,None,684.1430993000977,None,684.1430993000977,None,684.1430993000977,None,684.1430993000977,None,27,79,47,41,47,52,686.6626727001276,None,7.0,1.5378938000649214,686.6626727001276,None,686.6626727001276,None,686.6626727001276,None,686.6626727001276,None,None,None,688.2171324000228,None,,,,,,,144,f,1,2022_Dec_13_1633,RL,2021.2.3,59.992428967654995,
1,17,0,17,0,,,,,,,,,,,,,,,None,None,None,None,None,689.9046597001143,None,689.9046597001143,None,689.9046597001143,None,689.9046597001143,None,j,0.7768710001837462,689.9046597001143,None,689.9046597001143,None,690.7243983000517,None,690.7243983000517,None,690.7243983000517,None,690.7243983000517,None,690.7243983000517,None,690.7243983000517,None,691.0193276000209,None,691.0193276000209,None,692.7717418000102,None,692.7717418000102,None,692.7717418000102,None,692.7717418000102,None,692.7717418000102,None,692.7717418000102,None,692.7717418000102,None,692.7717418000102,None,692.7717418000102,None,32,81,54,45,45,61,695.2857526999433,None,5.0,1.721237099962309,695.2857526999433,None,695.2857526999433,None,695.2857526999433,None,695.2857526999433,None,None,None,697.0229323001113,None,,,,,,,144,f,1,2022_Dec_13_1633,RL,2021.2.3,59.992428967654995,
1,18,0,18,0,,,,,,,,,,,,,,,None,None,None,None,None,698.8779158000834,None,698.8779158000834,None,698.8779158000834,None,698.8779158000834,None,i,0.4534833000507206,698.8779158000834,None,698.8779158000834,None,699.3812329999637,None,699.3812329999637,None,699.3812329999637,None,699.3812329999637,None,699.3812329999637,None,699.3812329999637,None,699.6755520000588,None,699.6755520000588,None,700.6891522000078,None,700.6891522000078,None,700.6891522000078,None,700.6891522000078,None,700.6891522000078,None,700.6891522000078,None,700.6891522000078,None,700.6891522000078,None,700.6891522000078,None,25,83,43,42,43,43,703.2096898001619,None,4.0,2.189049799926579,703.2096898001619,None,703.2096898001619,None,703.2096898001619,None,703.2096898001619,None,None,None,705.4190950000193,None,,,,,,,144,f,1,2022_Dec_13_1633,RL,2021.2.3,59.992428967654995,
1,19,0,19,0,,,,,,,,,,,,,,,None,None,None,None,None,707.0838586001191,None,707.0838586001191,None,707.0838586001191,None,707.0838586001191,None,f,0.5978885998483747,707.0838586001191,None,707.0838586001191,None,707.7192945000716,None,707.7192945000716,None,707.7192945000716,None,707.7192945000716,None,707.7192945000716,None,707.7192945000716,None,708.0144168001134,None,708.0144168001134,None,709.8784630999435,None,709.8784630999435,None,709.8784630999435,None,709.8784630999435,None,709.8784630999435,None,709.8784630999435,None,709.8784630999435,None,709.8784630999435,None,709.8784630999435,None,23,85,45,39,85,61,712.3988016999792,None,7.0,2.1701884001959115,712.3988016999792,None,712.3988016999792,None,712.3988016999792,None,712.3988016999792,None,None,None,714.5851484001614,None,,,,,,,144,f,1,2022_Dec_13_1633,RL,2021.2.3,59.992428967654995,
1,20,0,20,0,,,,,,,,,,,,,,,None,None,None,None,None,716.4062608999666,None,716.4062608999666,None,716.4062608999666,None,716.4062608999666,None,None,,716.4062608999666,None,716.4062608999666,None,None,None,None,None,None,None,None,None,None,None,None,None,None,None,None,None,None,None,None,None,None,None,None,None,None,None,None,None,None,None,None,None,None,None,22,81,41,37,0,**,None,None,None,None,None,None,None,None,None,None,None,None,717.9625014001504,None,722.4744117001537,None,,,,,,,144,f,1,2022_Dec_13_1633,RL,2021.2.3,59.992428967654995,
1,21,0,21,0,,,,,,,,,,,,,,,None,None,None,None,None,724.2789885001257,None,724.2789885001257,None,724.2789885001257,None,724.2789885001257,None,f,0.36247930000536144,724.2789885001257,None,724.2789885001257,None,724.6815798999742,None,724.6815798999742,None,724.6815798999742,None,724.6815798999742,None,724.6815798999742,None,724.6815798999742,None,724.9762569000013,None,724.9762569000013,None,725.9750433999579,None,725.9750433999579,None,725.9750433999579,None,725.9750433999579,None,725.9750433999579,None,725.9750433999579,None,725.9750433999579,None,725.9750433999579,None,725.9750433999579,None,19,83,44,42,83,58,728.4902183001395,None,7.0,1.0909127998165786,728.4902183001395,None,728.4902183001395,None,728.4902183001395,None,728.4902183001395,None,None,None,729.5958539999556,None,,,,,,,144,f,1,2022_Dec_13_1633,RL,2021.2.3,59.992428967654995,
1,22,0,22,0,,,,,,,,,,,,,,,None,None,None,None,None,731.3664818999823,None,731.3664818999823,None,731.3664818999823,None,731.3664818999823,None,f,0.3853678999003023,731.3664818999823,None,731.3664818999823,None,731.8027544000652,None,731.8027544000652,None,731.8027544000652,None,731.8027544000652,None,731.8027544000652,None,731.8027544000652,None,732.0979396000039,None,732.0979396000039,None,733.7635676001664,None,733.7635676001664,None,733.7635676001664,None,733.7635676001664,None,733.7635676001664,None,733.7635676001664,None,733.7635676001664,None,733.7635676001664,None,733.7635676001664,None,30,81,35,38,81,52,736.2793032000773,None,7.0,1.174854600103572,736.2793032000773,None,736.2793032000773,None,736.2793032000773,None,736.2793032000773,None,None,None,737.4711568001658,None,,,,,,,144,f,1,2022_Dec_13_1633,RL,2021.2.3,59.992428967654995,
1,23,0,23,0,,,,,,,,,,,,,,,None,None,None,None,None,739.473093500128,None,739.473093500128,None,739.473093500128,None,739.473093500128,None,f,0.3988804998807609,739.473093500128,None,739.473093500128,None,739.9257813000586,None,739.9257813000586,None,739.9257813000586,None,739.9257813000586,None,739.9257813000586,None,739.9257813000586,None,740.2204557000659,None,740.2204557000659,None,742.2026976000052,None,742.2026976000052,None,742.2026976000052,None,742.2026976000052,None,742.2026976000052,None,742.2026976000052,None,742.2026976000052,None,742.2026976000052,None,742.2026976000052,None,23,79,35,36,79,63,744.7200164000969,None,7.0,1.0563480001874268,744.7200164000969,None,744.7200164000969,None,744.7200164000969,None,744.7200164000969,None,None,None,745.7901733999606,None,,,,,,,144,f,1,2022_Dec_13_1633,RL,2021.2.3,59.992428967654995,
1,24,0,24,0,,,,,,,,,,,,,,,None,None,None,None,None,747.4107097999658,None,747.4107097999658,None,747.4107097999658,None,747.4107097999658,None,i,0.5112115999218076,747.4107097999658,None,747.4107097999658,None,747.9695047000423,None,747.9695047000423,None,747.9695047000423,None,747.9695047000423,None,747.9695047000423,None,747.9695047000423,None,748.2593827000819,749.2432643000502,748.2593827000819,749.2432643000502,749.2793881001417,None,749.2793881001417,None,749.2793881001417,None,749.2793881001417,None,749.2793881001417,None,749.2793881001417,None,749.2793881001417,None,749.2793881001417,None,749.2793881001417,None,20,75,29,35,29,58,751.7909703999758,None,3.0,2.7063985001295805,751.7909703999758,None,751.7909703999758,None,751.7909703999758,None,751.7909703999758,None,None,None,754.5137287999969,None,,,,,,,144,f,1,2022_Dec_13_1633,RL,2021.2.3,59.992428967654995,
1,25,0,25,0,,,,,,,,,,,,,,,None,None,None,None,None,756.3175069000572,None,756.3175069000572,None,756.3175069000572,None,756.3175069000572,None,f,0.36450769985094666,756.3175069000572,None,756.3175069000572,None,756.7220014000777,None,756.7220014000777,None,756.7220014000777,None,756.7220014000777,None,756.7220014000777,None,756.7220014000777,None,757.0151174999774,None,757.0151174999774,None,757.8949162999634,None,757.8949162999634,None,757.8949162999634,None,757.8949162999634,None,757.8949162999634,None,757.8949162999634,None,757.8949162999634,None,757.8949162999634,None,757.8949162999634,None,23,79,37,33,79,65,760.4199787001126,None,7.0,2.2674237999599427,760.4199787001126,None,760.4199787001126,None,760.4199787001126,None,760.4199787001126,None,None,None,762.7019946000073,None,,,,,,,144,f,1,2022_Dec_13_1633,RL,2021.2.3,59.992428967654995,
1,26,0,26,0,,,,,,,,,,,,,,,None,None,None,None,None,764.3568118000403,None,764.3568118000403,None,764.3568118000403,None,764.3568118000403,None,f,0.4051335998810828,764.3568118000403,None,764.3568118000403,None,764.8073770001065,None,764.8073770001065,None,764.8073770001065,None,764.8073770001065,None,764.8073770001065,None,764.8073770001065,None,765.1040716001298,None,765.1040716001298,None,766.6521300999448,None,766.6521300999448,None,766.6521300999448,None,766.6521300999448,None,766.6521300999448,None,766.6521300999448,None,766.6521300999448,None,766.6521300999448,None,766.6521300999448,None,14,82,35,30,82,67,769.1749794001225,None,7.0,1.41721610003151,769.1749794001225,None,769.1749794001225,None,769.1749794001225,None,769.1749794001225,None,None,None,770.6073843000922,None,,,,,,,144,f,1,2022_Dec_13_1633,RL,2021.2.3,59.992428967654995,
1,27,0,27,0,,,,,,,,,,,,,,,None,None,None,None,None,772.1943429999519,None,772.1943429999519,None,772.1943429999519,None,772.1943429999519,None,f,0.63764309999533,772.1943429999519,None,772.1943429999519,None,772.8885588999838,None,772.8885588999838,None,772.8885588999838,None,772.8885588999838,None,772.8885588999838,None,772.8885588999838,None,773.1766294001136,None,773.1766294001136,None,774.3129986999556,None,774.3129986999556,None,774.3129986999556,None,774.3129986999556,None,774.3129986999556,None,774.3129986999556,None,774.3129986999556,None,774.3129986999556,None,774.3129986999556,None,15,84,36,35,84,73,776.830789500149,None,7.0,0.7677692000288516,776.830789500149,None,776.830789500149,None,776.830789500149,None,776.830789500149,None,None,None,777.6123228999786,None,,,,,,,144,f,1,2022_Dec_13_1633,RL,2021.2.3,59.992428967654995,
1,28,0,28,0,,,,,,,,,,,,,,,None,None,None,None,None,779.4666286001448,None,779.4666286001448,None,779.4666286001448,None,779.4666286001448,None,f,0.49527679989114404,779.4666286001448,None,779.4666286001448,None,780.002232800005,None,780.002232800005,None,780.002232800005,None,780.002232800005,None,780.002232800005,None,780.002232800005,None,780.2980144999456,None,780.2980144999456,None,781.6950708001386,None,781.6950708001386,None,781.6950708001386,None,781.6950708001386,None,781.6950708001386,None,781.6950708001386,None,781.6950708001386,None,781.6950708001386,None,781.6950708001386,None,14,76,32,24,76,39,784.2130452001002,None,7.0,1.873808200005442,784.2130452001002,None,784.2130452001002,None,784.2130452001002,None,784.2130452001002,None,None,None,786.1076185000129,None,,,,,,,144,f,1,2022_Dec_13_1633,RL,2021.2.3,59.992428967654995,
1,29,0,29,0,,,,,,,,,,,,,,,None,None,None,None,None,788.0063839999493,None,788.0063839999493,None,788.0063839999493,None,788.0063839999493,None,f,1.066864499822259,788.0063839999493,None,788.0063839999493,None,789.1259811001364,None,789.1259811001364,None,789.1259811001364,None,789.1259811001364,None,789.1259811001364,None,789.1259811001364,None,789.4210390001535,790.6716716999654,789.4210390001535,790.6716716999654,790.7032798000146,None,790.7032798000146,None,790.7032798000146,None,790.7032798000146,None,790.7032798000146,None,790.7032798000146,None,790.7032798000146,None,790.7032798000146,None,790.7032798000146,None,28,83,29,36,83,61,793.2271511999425,None,7.0,1.1984981000423431,793.2271511999425,None,793.2271511999425,None,793.2271511999425,None,793.2271511999425,None,None,None,794.4406173999887,None,,,,,,,144,f,1,2022_Dec_13_1633,RL,2021.2.3,59.992428967654995,
1,30,0,30,0,,,,,,,,,,,,,,,None,None,None,None,None,796.3426781001035,None,796.3426781001035,None,796.3426781001035,None,796.3426781001035,None,f,1.0205495001282543,796.3426781001035,None,796.3426781001035,None,797.4170921000186,None,797.4170921000186,None,797.4170921000186,None,797.4170921000186,None,797.4170921000186,None,797.4170921000186,None,797.7099595000036,None,797.7099595000036,None,798.7077752000187,None,798.7077752000187,None,798.7077752000187,None,798.7077752000187,None,798.7077752000187,None,798.7077752000187,None,798.7077752000187,None,798.7077752000187,None,798.7077752000187,None,24,83,44,35,83,62,801.232889899984,None,7.0,1.0841570999473333,801.232889899984,None,801.232889899984,None,801.232889899984,None,801.232889899984,None,None,None,802.3302229000255,None,,,,,,,144,f,1,2022_Dec_13_1633,RL,2021.2.3,59.992428967654995,
1,31,0,31,0,,,,,,,,,,,,,,,None,None,None,None,None,803.9009052000474,None,803.9009052000474,None,803.9009052000474,None,803.9009052000474,None,i,1.2125663999468088,803.9009052000474,None,803.9009052000474,None,805.1569997000042,None,805.1569997000042,None,805.1569997000042,None,805.1569997000042,None,805.1569997000042,None,805.1569997000042,None,805.4490313001443,807.1331245000474,805.4490313001443,807.1331245000474,807.1650374999736,None,807.1650374999736,None,807.1650374999736,None,807.1650374999736,None,807.1650374999736,None,807.1650374999736,None,807.1650374999736,None,807.1650374999736,None,807.1650374999736,None,17,79,32,37,32,53,809.6804772999603,None,3.0,2.072561299894005,809.6804772999603,None,809.6804772999603,None,809.6804772999603,None,809.6804772999603,None,None,None,811.7692581000738,None,,,,,,,144,f,1,2022_Dec_13_1633,RL,2021.2.3,59.992428967654995,
1,32,0,32,0,,,,,,,,,,,,,,,None,None,None,None,None,813.5899322000332,None,813.5899322000332,None,813.5899322000332,None,813.5899322000332,None,f,0.6135386000387371,813.5899322000332,None,813.5899322000332,None,814.2430843999609,None,814.2430843999609,None,814.2430843999609,None,814.2430843999609,None,814.2430843999609,None,814.2430843999609,None,814.5383631000295,816.4396319000516,814.5383631000295,816.4396319000516,816.4715740000829,None,816.4715740000829,None,816.4715740000829,None,816.4715740000829,None,816.4715740000829,None,816.4715740000829,None,816.4715740000829,None,816.4715740000829,None,816.4715740000829,None,11,76,29,34,76,41,818.9793889001012,None,7.0,2.9474808000959456,818.9793889001012,None,818.9793889001012,None,818.9793889001012,None,818.9793889001012,None,None,None,821.9431495999452,None,,,,,,,144,f,1,2022_Dec_13_1633,RL,2021.2.3,59.992428967654995,
1,33,0,33,0,,,,,,,,,,,,,,,None,None,None,None,None,823.9312027001288,None,823.9312027001288,None,823.9312027001288,None,823.9312027001288,None,f,1.0718650000635535,823.9312027001288,None,823.9312027001288,None,825.0511255001184,None,825.0511255001184,None,825.0511255001184,None,825.0511255001184,None,825.0511255001184,None,825.0511255001184,None,825.3458008000161,None,825.3458008000161,None,827.1262268000282,None,827.1262268000282,None,827.1262268000282,None,827.1262268000282,None,827.1262268000282,None,827.1262268000282,None,827.1262268000282,None,827.1262268000282,None,827.1262268000282,None,15,71,43,30,71,46,829.644337200094,None,7.0,0.7392206001095474,829.644337200094,None,829.644337200094,None,829.644337200094,None,829.644337200094,None,None,None,830.4072116001043,None,,,,,,,144,f,1,2022_Dec_13_1633,RL,2021.2.3,59.992428967654995,
1,34,0,34,0,,,,,,,,,,,,,,,None,None,None,None,None,832.270021900069,None,832.270021900069,None,832.270021900069,None,832.270021900069,None,f,0.26350579992868006,832.270021900069,None,832.270021900069,None,832.573181899963,None,832.573181899963,None,832.573181899963,None,832.573181899963,None,832.573181899963,None,832.573181899963,None,832.8678268000949,834.5688341001514,832.8678268000949,834.5688341001514,834.601731200004,None,834.601731200004,None,834.601731200004,None,834.601731200004,None,834.601731200004,None,834.601731200004,None,834.601731200004,None,834.601731200004,None,834.601731200004,None,15,74,34,33,74,61,837.1205311999656,None,7.0,0.8009736000094563,837.1205311999656,None,837.1205311999656,None,837.1205311999656,None,837.1205311999656,None,None,None,837.9373956001364,None,,,,,,,144,f,1,2022_Dec_13_1633,RL,2021.2.3,59.992428967654995,
1,35,0,35,0,,,,,,,,,,,,,,,None,None,None,None,None,839.8583144999575,None,839.8583144999575,None,839.8583144999575,None,839.8583144999575,None,f,0.43491910002194345,839.8583144999575,None,839.8583144999575,None,840.3424058000091,None,840.3424058000091,None,840.3424058000091,None,840.3424058000091,None,840.3424058000091,None,840.3424058000091,None,840.6403759000823,None,840.6403759000823,None,842.4533245000057,None,842.4533245000057,None,842.4533245000057,None,842.4533245000057,None,842.4533245000057,None,842.4533245000057,None,842.4533245000057,None,842.4533245000057,None,842.4533245000057,None,16,82,33,35,82,52,844.9740728000179,None,7.0,1.1038509998470545,844.9740728000179,None,844.9740728000179,None,844.9740728000179,None,844.9740728000179,None,None,None,846.0935913999565,None,,,,,,,144,f,1,2022_Dec_13_1633,RL,2021.2.3,59.992428967654995,
1,36,0,36,0,,,,,,,,,,,,,,,None,None,None,None,None,848.0816568001173,None,848.0816568001173,None,848.0816568001173,None,848.0816568001173,None,f,0.7818226001691073,848.0816568001173,None,848.0816568001173,None,848.9185755001381,None,848.9185755001381,None,848.9185755001381,None,848.9185755001381,None,848.9185755001381,None,848.9185755001381,None,849.1957241001073,851.1969926999882,849.1957241001073,851.1969926999882,851.2290332999546,None,851.2290332999546,None,851.2290332999546,None,851.2290332999546,None,851.2290332999546,None,851.2290332999546,None,851.2290332999546,None,851.2290332999546,None,851.2290332999546,None,22,75,37,40,75,47,853.7471692000981,None,7.0,1.0365094998851418,853.7471692000981,None,853.7471692000981,None,853.7471692000981,None,853.7471692000981,None,None,None,854.799267299939,None,,,,,,,144,f,1,2022_Dec_13_1633,RL,2021.2.3,59.992428967654995,
1,37,0,37,0,,,,,,,,,,,,,,,None,None,None,None,None,856.3872985001653,None,856.3872985001653,None,856.3872985001653,None,856.3872985001653,None,None,,856.3872985001653,None,856.3872985001653,None,None,None,None,None,None,None,None,None,None,None,None,None,None,None,None,None,None,None,None,None,None,None,None,None,None,None,None,None,None,None,None,None,None,None,20,75,35,41,0,**,None,None,None,None,None,None,None,None,None,None,None,None,857.9667847000528,None,862.4712474001572,None,,,,,,,144,f,1,2022_Dec_13_1633,RL,2021.2.3,59.992428967654995,
1,38,0,38,0,,,,,,,,,,,,,,,None,None,None,None,None,864.3091553000268,None,864.3091553000268,None,864.3091553000268,None,864.3091553000268,None,f,0.21452150004915893,864.3091553000268,None,864.3091553000268,None,864.5594079000875,None,864.5594079000875,None,864.5594079000875,None,864.5594079000875,None,864.5594079000875,None,864.5594079000875,None,864.8569668000564,None,864.8569668000564,None,866.6885248001199,None,866.6885248001199,None,866.6885248001199,None,866.6885248001199,None,866.6885248001199,None,866.6885248001199,None,866.6885248001199,None,866.6885248001199,None,866.6885248001199,None,27,84,30,45,84,58,869.208221900044,None,7.0,1.2372963998932391,869.208221900044,None,869.208221900044,None,869.208221900044,None,869.208221900044,None,None,None,870.4600768000819,None,,,,,,,144,f,1,2022_Dec_13_1633,RL,2021.2.3,59.992428967654995,
1,39,0,39,0,,,,,,,,,,,,,,,None,None,None,None,None,872.1977943000384,None,872.1977943000384,None,872.1977943000384,None,872.1977943000384,None,i,0.3356140998657793,872.1977943000384,None,872.1977943000384,None,872.5831357000861,None,872.5831357000861,None,872.5831357000861,None,872.5831357000861,None,872.5831357000861,None,872.5831357000861,None,872.8788726001512,None,872.8788726001512,None,873.9765371000394,None,873.9765371000394,None,873.9765371000394,None,873.9765371000394,None,873.9765371000394,None,873.9765371000394,None,873.9765371000394,None,873.9765371000394,None,873.9765371000394,None,34,85,39,47,39,55,876.4971090999898,None,3.0,2.5033863000571728,876.4971090999898,None,876.4971090999898,None,876.4971090999898,None,876.4971090999898,None,None,None,879.0227014000993,None,,,,,,,144,f,1,2022_Dec_13_1633,RL,2021.2.3,59.992428967654995,
1,40,0,40,0,,,,,,,,,,,,,,,None,None,None,None,None,880.7201245999895,None,880.7201245999895,None,880.7201245999895,None,880.7201245999895,None,f,0.3741236999630928,880.7201245999895,None,880.7201245999895,None,881.1403408001643,None,881.1403408001643,None,881.1403408001643,None,881.1403408001643,None,881.1403408001643,None,881.1403408001643,None,881.4348198000807,882.668830800103,881.4348198000807,882.668830800103,882.7001283001155,None,882.7001283001155,None,882.7001283001155,None,882.7001283001155,None,882.7001283001155,None,882.7001283001155,None,882.7001283001155,None,882.7001283001155,None,882.7001283001155,None,37,76,36,44,76,33,885.2242845001165,None,7.0,1.61538750003092,885.2242845001165,None,885.2242845001165,None,885.2242845001165,None,885.2242845001165,None,None,None,886.8545661999378,None,,,,,,,144,f,1,2022_Dec_13_1633,RL,2021.2.3,59.992428967654995,
1,41,0,41,0,,,,,,,,,,,,,,,None,None,None,None,None,888.7925291999709,None,888.7925291999709,None,888.7925291999709,None,888.7925291999709,None,f,0.8411753000691533,888.7925291999709,None,888.7925291999709,None,889.6806206000037,None,889.6806206000037,None,889.6806206000037,None,889.6806206000037,None,889.6806206000037,None,889.6806206000037,None,889.9572888000403,891.6084205999505,889.9572888000403,891.6084205999505,891.6406694001053,None,891.6406694001053,None,891.6406694001053,None,891.6406694001053,None,891.6406694001053,None,891.6406694001053,None,891.6406694001053,None,891.6406694001053,None,891.6406694001053,None,35,86,45,44,86,61,894.1567279000301,None,7.0,1.0864339000545442,894.1567279000301,None,894.1567279000301,None,894.1567279000301,None,894.1567279000301,None,None,None,895.2606550001074,None,,,,,,,144,f,1,2022_Dec_13_1633,RL,2021.2.3,59.992428967654995,
1,42,0,42,0,,,,,,,,,,,,,,,None,None,None,None,None,897.2321089000907,None,897.2321089000907,None,897.2321089000907,None,897.2321089000907,None,f,0.7017099999357015,897.2321089000907,None,897.2321089000907,None,897.9824926999863,None,897.9824926999863,None,897.9824926999863,None,897.9824926999863,None,897.9824926999863,None,897.9824926999863,None,898.2797308999579,None,898.2797308999579,None,899.5609804999549,None,899.5609804999549,None,899.5609804999549,None,899.5609804999549,None,899.5609804999549,None,899.5609804999549,None,899.5609804999549,None,899.5609804999549,None,899.5609804999549,None,37,86,34,44,86,56,902.0789276999421,None,7.0,0.9394981998484582,902.0789276999421,None,902.0789276999421,None,902.0789276999421,None,902.0789276999421,None,None,None,903.0335858000908,None,,,,,,,144,f,1,2022_Dec_13_1633,RL,2021.2.3,59.992428967654995,
1,43,0,43,0,,,,,,,,,,,,,,,None,None,None,None,None,905.0205443000887,None,905.0205443000887,None,905.0205443000887,None,905.0205443000887,None,f,0.32316110003739595,905.0205443000887,None,905.0205443000887,None,905.3931490001269,None,905.3931490001269,None,905.3931490001269,None,905.3931490001269,None,905.3931490001269,None,905.3931490001269,None,905.6851997999474,None,905.6851997999474,None,907.4681309000589,None,907.4681309000589,None,907.4681309000589,None,907.4681309000589,None,907.4681309000589,None,907.4681309000589,None,907.4681309000589,None,907.4681309000589,None,907.4681309000589,None,38,84,41,42,84,60,909.9854791001417,None,7.0,0.9548496999777853,909.9854791001417,None,909.9854791001417,None,909.9854791001417,None,909.9854791001417,None,None,None,910.9550159999635,None,,,,,,,144,f,1,2022_Dec_13_1633,RL,2021.2.3,59.992428967654995,
1,44,0,44,0,,,,,,,,,,,,,,,None,None,None,None,None,912.6432571001351,None,912.6432571001351,None,912.6432571001351,None,912.6432571001351,None,f,0.6507196999154985,912.6432571001351,None,912.6432571001351,None,913.3463715999387,None,913.3463715999387,None,913.3463715999387,None,913.3463715999387,None,913.3463715999387,None,913.3463715999387,None,913.6403111999389,None,913.6403111999389,None,915.0949018001556,None,915.0949018001556,None,915.0949018001556,None,915.0949018001556,None,915.0949018001556,None,915.0949018001556,None,915.0949018001556,None,915.0949018001556,None,915.0949018001556,None,40,90,45,42,90,51,917.5955412001349,None,7.0,0.7634699000045657,917.5955412001349,None,917.5955412001349,None,917.5955412001349,None,917.5955412001349,None,None,None,918.3822733999696,None,,,,,,,144,f,1,2022_Dec_13_1633,RL,2021.2.3,59.992428967654995,
1,45,0,45,0,,,,,,,,,,,,,,,None,None,None,None,None,920.3314900000114,None,920.3314900000114,None,920.3314900000114,None,920.3314900000114,None,j,0.4823684000875801,920.3314900000114,None,920.3314900000114,None,920.8680688999593,None,920.8680688999593,None,920.8680688999593,None,920.8680688999593,None,920.8680688999593,None,920.8680688999593,None,921.162661400158,None,921.162661400158,None,922.1126753001008,None,922.1126753001008,None,922.1126753001008,None,922.1126753001008,None,922.1126753001008,None,922.1126753001008,None,922.1126753001008,None,922.1126753001008,None,922.1126753001008,None,38,84,46,42,42,69,924.6303217001259,None,4.0,1.4380517001263797,924.6303217001259,None,924.6303217001259,None,924.6303217001259,None,924.6303217001259,None,None,None,926.086148600094,None,,,,,,,144,f,1,2022_Dec_13_1633,RL,2021.2.3,59.992428967654995,
1,46,0,46,0,,,,,,,,,,,,,,,None,None,None,None,None,927.819573200075,None,927.819573200075,None,927.819573200075,None,927.819573200075,None,f,0.44442509999498725,927.819573200075,None,927.819573200075,None,928.30679780012,None,928.30679780012,None,928.30679780012,None,928.30679780012,None,928.30679780012,None,928.30679780012,None,928.6007338999771,930.3185606000479,928.6007338999771,930.3185606000479,930.3494192999788,None,930.3494192999788,None,930.3494192999788,None,930.3494192999788,None,930.3494192999788,None,930.3494192999788,None,930.3494192999788,None,930.3494192999788,None,930.3494192999788,None,47,80,43,38,80,53,932.8632412999868,None,7.0,1.9750173999927938,932.8632412999868,None,932.8632412999868,None,932.8632412999868,None,932.8632412999868,None,None,None,934.8545840999577,None,,,,,,,144,f,1,2022_Dec_13_1633,RL,2021.2.3,59.992428967654995,
1,47,0,47,0,,,,,,,,,,,,,,,None,None,None,None,None,936.5261293000076,None,936.5261293000076,None,936.5261293000076,None,936.5261293000076,None,f,0.3981029000133276,936.5261293000076,None,936.5261293000076,None,936.9798669000156,None,936.9798669000156,None,936.9798669000156,None,936.9798669000156,None,936.9798669000156,None,936.9798669000156,None,937.2567473000381,938.5908908001147,937.2567473000381,938.5908908001147,938.6194470999762,None,938.6194470999762,None,938.6194470999762,None,938.6194470999762,None,938.6194470999762,None,938.6194470999762,None,938.6194470999762,None,938.6194470999762,None,938.6194470999762,None,38,87,29,38,87,65,941.1400009000208,None,7.0,2.2722743002232164,941.1400009000208,None,941.1400009000208,None,941.1400009000208,None,941.1400009000208,None,None,None,943.4273932001088,None,,,,,,,144,f,1,2022_Dec_13_1633,RL,2021.2.3,59.992428967654995,
1,48,0,48,0,,,,,,,,,,,,,,,None,None,None,None,None,944.9985007001087,None,944.9985007001087,None,944.9985007001087,None,944.9985007001087,None,f,0.3564120000228286,944.9985007001087,None,944.9985007001087,None,945.4063780000433,None,945.4063780000433,None,945.4063780000433,None,945.4063780000433,None,945.4063780000433,None,945.4063780000433,None,945.6961819999851,None,945.6961819999851,None,947.2500068999361,None,947.2500068999361,None,947.2500068999361,None,947.2500068999361,None,947.2500068999361,None,947.2500068999361,None,947.2500068999361,None,947.2500068999361,None,947.2500068999361,None,46,90,39,43,90,54,949.7852764001582,None,7.0,1.0162468999624252,949.7852764001582,None,949.7852764001582,None,949.7852764001582,None,949.7852764001582,None,None,None,950.8246277000289,None,,,,,,,144,f,1,2022_Dec_13_1633,RL,2021.2.3,59.992428967654995,
1,49,0,49,0,,,,,,,,,,,,,,,None,None,None,None,None,952.7703645001166,None,952.7703645001166,None,952.7703645001166,None,952.7703645001166,None,f,0.6251701000146568,952.7703645001166,None,952.7703645001166,None,953.4399741000962,None,953.4399741000962,None,953.4399741000962,None,953.4399741000962,None,953.4399741000962,None,953.4399741000962,None,953.7347862001043,None,953.7347862001043,None,955.6021166001447,None,955.6021166001447,None,955.6021166001447,None,955.6021166001447,None,955.6021166001447,None,955.6021166001447,None,955.6021166001447,None,955.6021166001447,None,955.6021166001447,None,47,83,40,47,83,67,958.1175450000446,None,7.0,1.0909839000087231,958.1175450000446,None,958.1175450000446,None,958.1175450000446,None,958.1175450000446,None,None,None,959.2220908999443,None,,,,,,,144,f,1,2022_Dec_13_1633,RL,2021.2.3,59.992428967654995,
1,50,0,50,0,,,,,,,,,,,,,,,None,None,None,None,None,961.109997499967,None,961.109997499967,None,961.109997499967,None,961.109997499967,None,f,0.9852394999470562,961.109997499967,None,961.109997499967,None,962.1471043999773,None,962.1471043999773,None,962.1471043999773,None,962.1471043999773,None,962.1471043999773,None,962.1471043999773,None,962.4409024999477,963.4749916000292,962.4409024999477,963.4749916000292,963.5088299999479,None,963.5088299999479,None,963.5088299999479,None,963.5088299999479,None,963.5088299999479,None,963.5088299999479,None,963.5088299999479,None,963.5088299999479,None,963.5088299999479,None,47,85,37,38,85,61,966.0239101001061,None,7.0,1.003668799996376,966.0239101001061,None,966.0239101001061,None,966.0239101001061,None,966.0239101001061,None,None,None,967.0439286001492,None,,,,,,,144,f,1,2022_Dec_13_1633,RL,2021.2.3,59.992428967654995,
1,51,0,51,0,,,,,,,,,,,,,,,None,None,None,None,None,968.6476201999467,None,968.6476201999467,None,968.6476201999467,None,968.6476201999467,None,f,1.207415500190109,968.6476201999467,None,968.6476201999467,None,969.9031343001407,None,969.9031343001407,None,969.9031343001407,None,969.9031343001407,None,969.9031343001407,None,969.9031343001407,None,970.1962435999885,None,970.1962435999885,None,971.778211100027,None,971.778211100027,None,971.778211100027,None,971.778211100027,None,971.778211100027,None,971.778211100027,None,971.778211100027,None,971.778211100027,None,971.778211100027,None,44,81,43,34,81,48,974.294582300121,None,7.0,0.7225211998447776,974.294582300121,None,974.294582300121,None,974.294582300121,None,974.294582300121,None,None,None,975.0326213999651,None,,,,,,,144,f,1,2022_Dec_13_1633,RL,2021.2.3,59.992428967654995,
1,52,0,52,0,,,,,,,,,,,,,,,None,None,None,None,None,976.7376519001555,None,976.7376519001555,None,976.7376519001555,None,976.7376519001555,None,i,0.45773699996061623,976.7376519001555,None,976.7376519001555,None,977.2378815000411,None,977.2378815000411,None,977.2378815000411,None,977.2378815000411,None,977.2378815000411,None,977.2378815000411,None,977.5347085001413,None,977.5347085001413,None,979.1862351000309,None,979.1862351000309,None,979.1862351000309,None,979.1862351000309,None,979.1862351000309,None,979.1862351000309,None,979.1862351000309,None,979.1862351000309,None,979.1862351000309,None,51,83,40,39,40,69,981.7068350999616,None,3.0,2.633477099938318,981.7068350999616,None,981.7068350999616,None,981.7068350999616,None,981.7068350999616,None,None,None,984.3555652999785,None,,,,,,,144,f,1,2022_Dec_13_1633,RL,2021.2.3,59.992428967654995,
1,53,0,53,0,,,,,,,,,,,,,,,None,None,None,None,None,986.2604754001368,None,986.2604754001368,None,986.2604754001368,None,986.2604754001368,None,f,0.41530190012417734,986.2604754001368,None,986.2604754001368,None,986.7305586000439,None,986.7305586000439,None,986.7305586000439,None,986.7305586000439,None,986.7305586000439,None,986.7305586000439,None,987.0246890999842,988.1253215000033,987.0246890999842,988.1253215000033,988.1568636000156,None,988.1568636000156,None,988.1568636000156,None,988.1568636000156,None,988.1568636000156,None,988.1568636000156,None,988.1568636000156,None,988.1568636000156,None,988.1568636000156,None,53,89,46,38,89,80,990.6729528999422,None,7.0,2.0730673000216484,990.6729528999422,None,990.6729528999422,None,990.6729528999422,None,990.6729528999422,None,None,None,992.7614891999401,None,,,,,,,144,f,1,2022_Dec_13_1633,RL,2021.2.3,59.992428967654995,
1,54,0,54,0,,,,,,,,,,,,,,,None,None,None,None,None,994.6500361999497,None,994.6500361999497,None,994.6500361999497,None,994.6500361999497,None,f,0.39545860001817346,994.6500361999497,None,994.6500361999497,None,995.0868426000234,None,995.0868426000234,None,995.0868426000234,None,995.0868426000234,None,995.0868426000234,None,995.0868426000234,None,995.3806787000503,997.1481643000152,995.3806787000503,997.1481643000152,997.1786891999654,None,997.1786891999654,None,997.1786891999654,None,997.1786891999654,None,997.1786891999654,None,997.1786891999654,None,997.1786891999654,None,997.1786891999654,None,997.1786891999654,None,60,76,44,39,76,75,999.6944832999725,None,6.0,1.4562013000249863,999.6944832999725,None,999.6944832999725,None,999.6944832999725,None,999.6944832999725,None,None,None,1001.1675094999373,None,,,,,,,144,f,1,2022_Dec_13_1633,RL,2021.2.3,59.992428967654995,
1,55,0,55,0,,,,,,,,,,,,,,,None,None,None,None,None,1002.7890538000502,None,1002.7890538000502,None,1002.7890538000502,None,1002.7890538000502,None,j,1.4762279000133276,1002.7890538000502,None,1002.7890538000502,None,1004.3143919999711,None,1004.3143919999711,None,1004.3143919999711,None,1004.3143919999711,None,1004.3143919999711,None,1004.3143919999711,None,1004.6037590000778,None,1004.6037590000778,None,1006.2744299999904,None,1006.2744299999904,None,1006.2744299999904,None,1006.2744299999904,None,1006.2744299999904,None,1006.2744299999904,None,1006.2744299999904,None,1006.2744299999904,None,1006.2744299999904,None,55,77,46,41,41,69,1008.7870988999493,None,3.0,2.5202505998313427,1008.7870988999493,None,1008.7870988999493,None,1008.7870988999493,None,1008.7870988999493,None,None,None,1011.3241501001175,None,,,,,,,144,f,1,2022_Dec_13_1633,RL,2021.2.3,59.992428967654995,
1,56,0,56,0,,,,,,,,,,,,,,,None,None,None,None,None,1013.3124598001596,None,1013.3124598001596,None,1013.3124598001596,None,1013.3124598001596,None,f,0.25268799997866154,1013.3124598001596,None,1013.3124598001596,None,1013.6196210000198,None,1013.6196210000198,None,1013.6196210000198,None,1013.6196210000198,None,1013.6196210000198,None,1013.6196210000198,None,1013.9099264999386,None,1013.9099264999386,None,1015.4905970001128,None,1015.4905970001128,None,1015.4905970001128,None,1015.4905970001128,None,1015.4905970001128,None,1015.4905970001128,None,1015.4905970001128,None,1015.4905970001128,None,1015.4905970001128,None,64,73,39,28,73,78,1018.0142810000107,None,3.0,1.365372700151056,1018.0142810000107,None,1018.0142810000107,None,1018.0142810000107,None,1018.0142810000107,None,None,None,1019.3966683000326,None,,,,,,,144,f,1,2022_Dec_13_1633,RL,2021.2.3,59.992428967654995,
1,57,0,57,0,,,,,,,,,,,,,,,None,None,None,None,None,1021.2680663999636,None,1021.2680663999636,None,1021.2680663999636,None,1021.2680663999636,None,i,0.22730899997986853,1021.2680663999636,None,1021.2680663999636,None,1021.5354136000387,None,1021.5354136000387,None,1021.5354136000387,None,1021.5354136000387,None,1021.5354136000387,None,1021.5354136000387,None,1021.8322217999958,None,1021.8322217999958,None,1023.6972960000858,None,1023.6972960000858,None,1023.6972960000858,None,1023.6972960000858,None,1023.6972960000858,None,1023.6972960000858,None,1023.6972960000858,None,1023.6972960000858,None,1023.6972960000858,None,61,69,50,29,50,78,1026.2218438000418,None,2.0,2.331050300039351,1026.2218438000418,None,1026.2218438000418,None,1026.2218438000418,None,1026.2218438000418,None,None,None,1028.5725692000706,None,,,,,,,144,f,1,2022_Dec_13_1633,RL,2021.2.3,59.992428967654995,
1,58,0,58,0,,,,,,,,,,,,,,,None,None,None,None,None,1030.2907360000536,None,1030.2907360000536,None,1030.2907360000536,None,1030.2907360000536,None,r,0.41527920006774366,1030.2907360000536,None,1030.2907360000536,None,1030.7454177001491,None,1030.7454177001491,None,1030.7454177001491,None,1030.7454177001491,None,1030.7454177001491,None,1030.7454177001491,None,1031.0385690999683,None,1031.0385690999683,None,1032.1363904001191,None,1032.1363904001191,None,1032.1363904001191,None,1032.1363904001191,None,1032.1363904001191,None,1032.1363904001191,None,1032.1363904001191,None,1032.1363904001191,None,1032.1363904001191,None,53,70,43,42,53,68,1034.653395500034,None,3.0,1.7240924001671374,1034.653395500034,None,1034.653395500034,None,1034.653395500034,None,1034.653395500034,None,None,None,1036.391476500081,None,,,,,,,144,f,1,2022_Dec_13_1633,RL,2021.2.3,59.992428967654995,
1,59,0,59,0,,,,,,,,,,,,,,,None,None,None,None,None,1038.0463642000686,None,1038.0463642000686,None,1038.0463642000686,None,1038.0463642000686,None,i,0.4793217000551522,1038.0463642000686,None,1038.0463642000686,None,1038.5673685001675,None,1038.5673685001675,None,1038.5673685001675,None,1038.5673685001675,None,1038.5673685001675,None,1038.5673685001675,None,1038.860605899943,1040.5117484000511,1038.860605899943,1040.5117484000511,1040.543687599944,None,1040.543687599944,None,1040.543687599944,None,1040.543687599944,None,1040.543687599944,None,1040.543687599944,None,1040.543687599944,None,1040.543687599944,None,1040.543687599944,None,55,67,48,39,48,53,1043.0593340999912,None,3.0,1.2402530000545084,1043.0593340999912,None,1043.0593340999912,None,1043.0593340999912,None,1043.0593340999912,None,None,None,1044.3139563000295,None,,,,,,,144,f,1,2022_Dec_13_1633,RL,2021.2.3,59.992428967654995,
1,60,0,60,0,,,,,,,,,,,,,,,None,None,None,None,None,1046.1179770000745,None,1046.1179770000745,None,1046.1179770000745,None,1046.1179770000745,None,j,0.43737730011343956,1046.1179770000745,None,1046.1179770000745,None,1046.6052610999905,None,1046.6052610999905,None,1046.6052610999905,None,1046.6052610999905,None,1046.6052610999905,None,1046.6052610999905,None,1046.8995676999912,None,1046.8995676999912,None,1048.486317700008,None,1048.486317700008,None,1048.486317700008,None,1048.486317700008,None,1048.486317700008,None,1048.486317700008,None,1048.486317700008,None,1048.486317700008,None,1048.486317700008,None,47,81,41,29,29,70,1050.9985530001577,None,2.0,2.1399670999962837,1050.9985530001577,None,1050.9985530001577,None,1050.9985530001577,None,1050.9985530001577,None,None,None,1053.1535714999773,None,,,,,,,144,f,1,2022_Dec_13_1633,RL,2021.2.3,59.992428967654995,
1,61,0,61,0,,,,,,,,,,,,,,,None,None,None,None,None,1054.7247342001647,None,1054.7247342001647,None,1054.7247342001647,None,1054.7247342001647,None,r,0.9410469001159072,1054.7247342001647,None,1054.7247342001647,None,1055.711786299944,None,1055.711786299944,None,1055.711786299944,None,1055.711786299944,None,1055.711786299944,None,1055.711786299944,None,1056.0060338000767,None,1056.0060338000767,None,1057.1194044000003,None,1057.1194044000003,None,1057.1194044000003,None,1057.1194044000003,None,1057.1194044000003,None,1057.1194044000003,None,1057.1194044000003,None,1057.1194044000003,None,1057.1194044000003,None,54,69,47,30,54,60,1059.6404570001177,None,2.0,1.4550272000487894,1059.6404570001177,None,1059.6404570001177,None,1059.6404570001177,None,1059.6404570001177,None,None,None,1061.1085955000017,None,,,,,,,144,f,1,2022_Dec_13_1633,RL,2021.2.3,59.992428967654995,
1,62,0,62,0,,,,,,,,,,,,,,,None,None,None,None,None,1063.0309290001169,None,1063.0309290001169,None,1063.0309290001169,None,1063.0309290001169,None,f,0.34508179989643395,1063.0309290001169,None,1063.0309290001169,None,1063.415634199977,None,1063.415634199977,None,1063.415634199977,None,1063.415634199977,None,1063.415634199977,None,1063.415634199977,None,1063.7110844999552,1065.4789341001306,1063.7110844999552,1065.4789341001306,1065.5102206999436,None,1065.5102206999436,None,1065.5102206999436,None,1065.5102206999436,None,1065.5102206999436,None,1065.5102206999436,None,1065.5102206999436,None,1065.5102206999436,None,1065.5102206999436,None,49,81,48,31,81,59,1068.0294198000338,None,7.0,1.801705300109461,1068.0294198000338,None,1068.0294198000338,None,1068.0294198000338,None,1068.0294198000338,None,None,None,1069.848037000047,None,,,,,,,144,f,1,2022_Dec_13_1633,RL,2021.2.3,59.992428967654995,
1,63,0,63,0,,,,,,,,,,,,,,,None,None,None,None,None,1071.7696406999603,None,1071.7696406999603,None,1071.7696406999603,None,1071.7696406999603,None,f,0.426167800091207,1071.7696406999603,None,1071.7696406999603,None,1072.2405565001536,None,1072.2405565001536,None,1072.2405565001536,None,1072.2405565001536,None,1072.2405565001536,None,1072.2405565001536,None,1072.5338798000012,1073.8846738000866,1072.5338798000012,1073.8846738000866,1073.9151566999499,None,1073.9151566999499,None,1073.9151566999499,None,1073.9151566999499,None,1073.9151566999499,None,1073.9151566999499,None,1073.9151566999499,None,1073.9151566999499,None,1073.9151566999499,None,48,85,34,31,85,75,1076.433202699991,None,7.0,1.6551238999236375,1076.433202699991,None,1076.433202699991,None,1076.433202699991,None,1076.433202699991,None,None,None,1078.103955199942,None,,,,,,,144,f,1,2022_Dec_13_1633,RL,2021.2.3,59.992428967654995,
1,64,0,64,0,,,,,,,,,,,,,,,None,None,None,None,None,1079.958138300106,None,1079.958138300106,None,1079.958138300106,None,1079.958138300106,None,f,0.5776693997904658,1079.958138300106,None,1079.958138300106,None,1080.5770392999984,None,1080.5770392999984,None,1080.5770392999984,None,1080.5770392999984,None,1080.5770392999984,None,1080.5770392999984,None,1080.8729900000617,None,1080.8729900000617,None,1082.8710308000445,None,1082.8710308000445,None,1082.8710308000445,None,1082.8710308000445,None,1082.8710308000445,None,1082.8710308000445,None,1082.8710308000445,None,1082.8710308000445,None,1082.8710308000445,None,53,85,50,29,85,70,1085.3926534999628,None,7.0,0.8867617999203503,1085.3926534999628,None,1085.3926534999628,None,1085.3926534999628,None,1085.3926534999628,None,None,None,1086.3016123999842,None,,,,,,,144,f,1,2022_Dec_13_1633,RL,2021.2.3,59.992428967654995,
1,65,0,65,0,,,,,,,,,,,,,,,None,None,None,None,None,1088.1637699999847,None,1088.1637699999847,None,1088.1637699999847,None,1088.1637699999847,None,f,0.2719926000572741,1088.1637699999847,None,1088.1637699999847,None,1088.4845448001288,None,1088.4845448001288,None,1088.4845448001288,None,1088.4845448001288,None,1088.4845448001288,None,1088.4845448001288,None,1088.778513400117,None,1088.778513400117,None,1089.9265503999777,None,1089.9265503999777,None,1089.9265503999777,None,1089.9265503999777,None,1089.9265503999777,None,1089.9265503999777,None,1089.9265503999777,None,1089.9265503999777,None,1089.9265503999777,None,56,81,43,23,81,76,1092.44416059996,None,7.0,0.9214378998149186,1092.44416059996,None,1092.44416059996,None,1092.44416059996,None,1092.44416059996,None,None,None,1093.3813710999675,None,,,,,,,144,f,1,2022_Dec_13_1633,RL,2021.2.3,59.992428967654995,
1,66,0,66,0,,,,,,,,,,,,,,,None,None,None,None,None,1095.268710799981,None,1095.268710799981,None,1095.268710799981,None,1095.268710799981,None,f,0.2972705001011491,1095.268710799981,None,1095.268710799981,None,1095.6061372000258,None,1095.6061372000258,None,1095.6061372000258,None,1095.6061372000258,None,1095.6061372000258,None,1095.6061372000258,None,1095.9003201001324,1096.7838984001428,1095.9003201001324,1096.7838984001428,1096.8161558001302,None,1096.8161558001302,None,1096.8161558001302,None,1096.8161558001302,None,1096.8161558001302,None,1096.8161558001302,None,1096.8161558001302,None,1096.8161558001302,None,1096.8161558001302,None,55,80,50,32,80,65,1099.3390163001604,None,7.0,0.8686673000920564,1099.3390163001604,None,1099.3390163001604,None,1099.3390163001604,None,1099.3390163001604,None,None,None,1100.222100800136,None,,,,,,,144,f,1,2022_Dec_13_1633,RL,2021.2.3,59.992428967654995,
1,67,0,67,0,,,,,,,,,,,,,,,None,None,None,None,None,1102.0075747999363,None,1102.0075747999363,None,1102.0075747999363,None,1102.0075747999363,None,f,0.29840969992801547,1102.0075747999363,None,1102.0075747999363,None,1102.3437810000032,None,1102.3437810000032,None,1102.3437810000032,None,1102.3437810000032,None,1102.3437810000032,None,1102.3437810000032,None,1102.6380940000527,None,1102.6380940000527,None,1103.734292200068,None,1103.734292200068,None,1103.734292200068,None,1103.734292200068,None,1103.734292200068,None,1103.734292200068,None,1103.734292200068,None,1103.734292200068,None,1103.734292200068,None,67,80,46,15,80,68,1106.2572975000367,None,7.0,0.6857378000859171,1106.2572975000367,None,1106.2572975000367,None,1106.2572975000367,None,1106.2572975000367,None,None,None,1106.956968500046,None,,,,,,,144,f,1,2022_Dec_13_1633,RL,2021.2.3,59.992428967654995,
1,68,0,68,0,,,,,,,,,,,,,,,None,None,None,None,None,1108.6288507999852,None,1108.6288507999852,None,1108.6288507999852,None,1108.6288507999852,None,f,0.716994599904865,1108.6288507999852,None,1108.6288507999852,None,1109.3990430999547,None,1109.3990430999547,None,1109.3990430999547,None,1109.3990430999547,None,1109.3990430999547,None,1109.3990430999547,None,1109.6929891000036,None,1109.6929891000036,None,1111.709514999995,None,1111.709514999995,None,1111.709514999995,None,1111.709514999995,None,1111.709514999995,None,1111.709514999995,None,1111.709514999995,None,1111.709514999995,None,1111.709514999995,None,56,78,53,14,78,61,1114.2258605000097,None,6.0,1.936770100146532,1114.2258605000097,None,1114.2258605000097,None,1114.2258605000097,None,1114.2258605000097,None,None,None,1116.180298899999,None,,,,,,,144,f,1,2022_Dec_13_1633,RL,2021.2.3,59.992428967654995,
1,69,0,69,0,,,,,,,,,,,,,,,None,None,None,None,None,1117.7512829001062,None,1117.7512829001062,None,1117.7512829001062,None,1117.7512829001062,None,f,0.825722899986431,1117.7512829001062,None,1117.7512829001062,None,1118.6208715001121,None,1118.6208715001121,None,1118.6208715001121,None,1118.6208715001121,None,1118.6208715001121,None,1118.6208715001121,None,1118.9159981999546,None,1118.9159981999546,None,1119.998580600135,None,1119.998580600135,None,1119.998580600135,None,1119.998580600135,None,1119.998580600135,None,1119.998580600135,None,1119.998580600135,None,1119.998580600135,None,1119.998580600135,None,62,72,53,33,72,70,1122.5151718000416,None,6.0,2.1053394998889416,1122.5151718000416,None,1122.5151718000416,None,1122.5151718000416,None,1122.5151718000416,None,None,None,1124.6361136999913,None,,,,,,,144,f,1,2022_Dec_13_1633,RL,2021.2.3,59.992428967654995,
1,70,0,70,0,,,,,,,,,,,,,,,None,None,None,None,None,1126.4406566000544,None,1126.4406566000544,None,1126.4406566000544,None,1126.4406566000544,None,f,0.36652899999171495,1126.4406566000544,None,1126.4406566000544,None,1126.86203570012,None,1126.86203570012,None,1126.86203570012,None,1126.86203570012,None,1126.86203570012,None,1126.86203570012,None,1127.1551227001473,None,1127.1551227001473,None,1129.1364275000524,None,1129.1364275000524,None,1129.1364275000524,None,1129.1364275000524,None,1129.1364275000524,None,1129.1364275000524,None,1129.1364275000524,None,1129.1364275000524,None,1129.1364275000524,None,63,88,50,18,88,63,1131.65668250015,None,7.0,1.1529274999629706,1131.65668250015,None,1131.65668250015,None,1131.65668250015,None,1131.65668250015,None,None,None,1132.8250460999552,None,,,,,,,144,f,1,2022_Dec_13_1633,RL,2021.2.3,59.992428967654995,
1,71,0,71,0,,,,,,,,,,,,,,,None,None,None,None,None,1134.8296014999505,None,1134.8296014999505,None,1134.8296014999505,None,1134.8296014999505,None,f,0.41761119989678264,1134.8296014999505,None,1134.8296014999505,None,1135.301586800022,None,1135.301586800022,None,1135.301586800022,None,1135.301586800022,None,1135.301586800022,None,1135.301586800022,None,1135.5777470001485,1136.8617251000833,1135.5777470001485,1136.8617251000833,1136.9149722999427,None,1136.9149722999427,None,1136.9149722999427,None,1136.9149722999427,None,1136.9149722999427,None,1136.9149722999427,None,1136.9149722999427,None,1136.9149722999427,None,1136.9149722999427,None,59,88,41,31,88,43,1139.4268610000145,None,7.0,0.7220928000751883,1139.4268610000145,None,1139.4268610000145,None,1139.4268610000145,None,1139.4268610000145,None,None,None,1140.1636250000447,None,,,,,,,144,f,1,2022_Dec_13_1633,RL,2021.2.3,59.992428967654995,
1,72,0,72,0,,,,,,,,,,,,,,,None,None,None,None,None,1142.1679444001056,None,1142.1679444001056,None,1142.1679444001056,None,1142.1679444001056,None,f,0.33927960018627346,1142.1679444001056,None,1142.1679444001056,None,1142.553271500161,None,1142.553271500161,None,1142.553271500161,None,1142.553271500161,None,1142.553271500161,None,1142.553271500161,None,1142.8492247001268,None,1142.8492247001268,None,1144.6820180001669,None,1144.6820180001669,None,1144.6820180001669,None,1144.6820180001669,None,1144.6820180001669,None,1144.6820180001669,None,1144.6820180001669,None,1144.6820180001669,None,1144.6820180001669,None,68,84,34,36,84,79,1147.1974375999998,None,7.0,0.9232224998995662,1147.1974375999998,None,1147.1974375999998,None,1147.1974375999998,None,1147.1974375999998,None,None,None,1148.1367935000453,None,,,,,,,144,f,1,2022_Dec_13_1633,RL,2021.2.3,59.992428967654995,
1,73,0,73,0,,,,,,,,,,,,,,,None,None,None,None,None,1150.1400633000303,None,1150.1400633000303,None,1150.1400633000303,None,1150.1400633000303,None,f,0.4472389000002295,1150.1400633000303,None,1150.1400633000303,None,1150.6332235001028,None,1150.6332235001028,None,1150.6332235001028,None,1150.6332235001028,None,1150.6332235001028,None,1150.6332235001028,None,1150.9216684000567,1152.872710000025,1150.9216684000567,1152.872710000025,1152.9061859999783,None,1152.9061859999783,None,1152.9061859999783,None,1152.9061859999783,None,1152.9061859999783,None,1152.9061859999783,None,1152.9061859999783,None,1152.9061859999783,None,1152.9061859999783,None,73,98,36,33,98,73,1155.4200242001098,None,7.0,0.6726977999787778,1155.4200242001098,None,1155.4200242001098,None,1155.4200242001098,None,1155.4200242001098,None,None,None,1156.1080493000336,None,,,,,,,144,f,1,2022_Dec_13_1633,RL,2021.2.3,59.992428967654995,
1,74,0,74,0,,,,,,,,,,,,,,,None,None,None,None,None,1157.9295835001394,None,1157.9295835001394,None,1157.9295835001394,None,1157.9295835001394,None,f,0.30758409993723035,1157.9295835001394,None,1157.9295835001394,None,1158.2835208000615,None,1158.2835208000615,None,1158.2835208000615,None,1158.2835208000615,None,1158.2835208000615,None,1158.2835208000615,None,1158.5602278001606,1160.3113941999618,1158.5602278001606,1160.3113941999618,1160.342364500044,None,1160.342364500044,None,1160.342364500044,None,1160.342364500044,None,1160.342364500044,None,1160.342364500044,None,1160.342364500044,None,1160.342364500044,None,1160.342364500044,None,55,95,38,40,95,64,1162.8583005000837,None,7.0,0.9056957000866532,1162.8583005000837,None,1162.8583005000837,None,1162.8583005000837,None,1162.8583005000837,None,None,None,1163.7800197000615,None,,,,,,,144,f,1,2022_Dec_13_1633,RL,2021.2.3,59.992428967654995,
1,75,0,75,0,,,,,,,,,,,,,,,1165.5982612001244,None,q,1165.5982612001244,None,1204.944372799946,None,1204.944372799946,None,1204.944372799946,None,1204.944372799946,None,f,0.8771599000319839,1204.944372799946,None,1204.944372799946,None,1205.8624299999792,None,1205.8624299999792,None,1205.8624299999792,None,1205.8624299999792,None,1205.8624299999792,None,1205.8624299999792,None,1206.1599400001578,None,1206.1599400001578,None,1207.091285099974,None,1207.091285099974,None,1207.091285099974,None,1207.091285099974,None,1207.091285099974,None,1207.091285099974,None,1207.091285099974,None,1207.091285099974,None,1207.091285099974,None,57,96,46,42,96,74,1209.6087295000907,None,7.0,0.7064672999549657,1209.6087295000907,None,1209.6087295000907,None,1209.6087295000907,None,1209.6087295000907,None,None,None,1210.336023400072,None,39.31505430000834,,,,,,144,f,1,2022_Dec_13_1633,RL,2021.2.3,59.992428967654995,
1,76,0,76,0,,,,,,,,,,,,,,,None,None,None,None,None,1212.1670534999575,None,1212.1670534999575,None,1212.1670534999575,None,1212.1670534999575,None,f,0.28453589999116957,1212.1670534999575,None,1212.1670534999575,None,1212.5034982999787,None,1212.5034982999787,None,1212.5034982999787,None,1212.5034982999787,None,1212.5034982999787,None,1212.5034982999787,None,1212.797832600074,1214.4657028999645,1212.797832600074,1214.4657028999645,1214.499922499992,None,1214.499922499992,None,1214.499922499992,None,1214.499922499992,None,1214.499922499992,None,1214.499922499992,None,1214.499922499992,None,1214.499922499992,None,1214.499922499992,None,57,82,42,47,82,75,1217.0235644001514,None,7.0,0.6631928998976946,1217.0235644001514,None,1217.0235644001514,None,1217.0235644001514,None,1217.0235644001514,None,None,None,1217.7008500001393,None,,,,,,,144,f,1,2022_Dec_13_1633,RL,2021.2.3,59.992428967654995,
1,77,0,77,0,,,,,,,,,,,,,,,None,None,None,None,None,1219.3719481001608,None,1219.3719481001608,None,1219.3719481001608,None,1219.3719481001608,None,f,0.43961460003629327,1219.3719481001608,None,1219.3719481001608,None,1219.8581445999444,None,1219.8581445999444,None,1219.8581445999444,None,1219.8581445999444,None,1219.8581445999444,None,1219.8581445999444,None,1220.1529084001668,None,1220.1529084001668,None,1222.0189450001344,None,1222.0189450001344,None,1222.0189450001344,None,1222.0189450001344,None,1222.0189450001344,None,1222.0189450001344,None,1222.0189450001344,None,1222.0189450001344,None,1222.0189450001344,None,51,93,42,50,93,68,1224.5375014999881,None,7.0,0.6695090001448989,1224.5375014999881,None,1224.5375014999881,None,1224.5375014999881,None,1224.5375014999881,None,None,None,1225.2226116000675,None,,,,,,,144,f,1,2022_Dec_13_1633,RL,2021.2.3,59.992428967654995,
1,78,0,78,0,,,,,,,,,,,,,,,None,None,None,None,None,1226.8603161000647,None,1226.8603161000647,None,1226.8603161000647,None,1226.8603161000647,None,f,0.4113004000391811,1226.8603161000647,None,1226.8603161000647,None,1227.3121490001213,None,1227.3121490001213,None,1227.3121490001213,None,1227.3121490001213,None,1227.3121490001213,None,1227.3121490001213,None,1227.6080354000442,1228.9922166001052,1227.6080354000442,1228.9922166001052,1229.0224542000797,None,1229.0224542000797,None,1229.0224542000797,None,1229.0224542000797,None,1229.0224542000797,None,1229.0224542000797,None,1229.0224542000797,None,1229.0224542000797,None,1229.0224542000797,None,49,95,40,53,95,71,1231.539916699985,None,7.0,0.6227645000908524,1231.539916699985,None,1231.539916699985,None,1231.539916699985,None,1231.539916699985,None,None,None,1232.1837261000182,None,,,,,,,144,f,1,2022_Dec_13_1633,RL,2021.2.3,59.992428967654995,
1,79,0,79,0,,,,,,,,,,,,,,,None,None,None,None,None,1234.1164552001283,None,1234.1164552001283,None,1234.1164552001283,None,1234.1164552001283,None,f,0.4949264000169933,1234.1164552001283,None,1234.1164552001283,None,1234.6521128001623,None,1234.6521128001623,None,1234.6521128001623,None,1234.6521128001623,None,1234.6521128001623,None,1234.6521128001623,None,1234.9464038000442,None,1234.9464038000442,None,1235.8617817000486,None,1235.8617817000486,None,1235.8617817000486,None,1235.8617817000486,None,1235.8617817000486,None,1235.8617817000486,None,1235.8617817000486,None,1235.8617817000486,None,1235.8617817000486,None,49,94,41,58,94,53,1238.3783919000998,None,7.0,0.6535023998003453,1238.3783919000998,None,1238.3783919000998,None,1238.3783919000998,None,1238.3783919000998,None,None,None,1239.0486537001561,None,,,,,,,144,f,1,2022_Dec_13_1633,RL,2021.2.3,59.992428967654995,
1,80,0,80,0,,,,,,,,,,,,,,,None,None,None,None,None,1240.5699688999448,None,1240.5699688999448,None,1240.5699688999448,None,1240.5699688999448,None,f,0.4918935000896454,1240.5699688999448,None,1240.5699688999448,None,1241.1068107001483,None,1241.1068107001483,None,1241.1068107001483,None,1241.1068107001483,None,1241.1068107001483,None,1241.1068107001483,None,1241.4009589999914,1243.368984800065,1241.4009589999914,1243.368984800065,1243.4020778001286,None,1243.4020778001286,None,1243.4020778001286,None,1243.4020778001286,None,1243.4020778001286,None,1243.4020778001286,None,1243.4020778001286,None,1243.4020778001286,None,1243.4020778001286,None,60,82,46,56,82,46,1245.9160949001089,None,6.0,1.172933000139892,1245.9160949001089,None,1245.9160949001089,None,1245.9160949001089,None,1245.9160949001089,None,None,None,1247.1049399001058,None,,,,,,,144,f,1,2022_Dec_13_1633,RL,2021.2.3,59.992428967654995,
1,81,0,81,0,,,,,,,,,,,,,,,None,None,None,None,None,1248.8758704999927,None,1248.8758704999927,None,1248.8758704999927,None,1248.8758704999927,None,f,1.3157583000138402,1248.8758704999927,None,1248.8758704999927,None,1250.2389659001492,None,1250.2389659001492,None,1250.2389659001492,None,1250.2389659001492,None,1250.2389659001492,None,1250.2389659001492,None,1250.5240061001386,1251.5080165001564,1250.5240061001386,1251.5080165001564,1251.539865900064,None,1251.539865900064,None,1251.539865900064,None,1251.539865900064,None,1251.539865900064,None,1251.539865900064,None,1251.539865900064,None,1251.539865900064,None,1251.539865900064,None,54,77,45,64,77,63,1254.0607257999945,None,6.0,0.8497964001726359,1254.0607257999945,None,1254.0607257999945,None,1254.0607257999945,None,1254.0607257999945,None,None,None,1254.9270695000887,None,,,,,,,144,f,1,2022_Dec_13_1633,RL,2021.2.3,59.992428967654995,
1,82,0,82,0,,,,,,,,,,,,,,,None,None,None,None,None,1256.6814391000662,None,1256.6814391000662,None,1256.6814391000662,None,1256.6814391000662,None,f,0.450237900018692,1256.6814391000662,None,1256.6814391000662,None,1257.1825983000454,None,1257.1825983000454,None,1257.1825983000454,None,1257.1825983000454,None,1257.1825983000454,None,1257.1825983000454,None,1257.4790626999456,None,1257.4790626999456,None,1258.909495000029,None,1258.909495000029,None,1258.909495000029,None,1258.909495000029,None,1258.909495000029,None,1258.909495000029,None,1258.909495000029,None,1258.909495000029,None,1258.909495000029,None,56,78,46,63,78,75,1261.4279388999566,None,6.0,0.8055646000429988,1261.4279388999566,None,1261.4279388999566,None,1261.4279388999566,None,1261.4279388999566,None,None,None,1262.24830690003,None,,,,,,,144,f,1,2022_Dec_13_1633,RL,2021.2.3,59.992428967654995,
1,83,0,83,0,,,,,,,,,,,,,,,None,None,None,None,None,1264.136210600147,None,1264.136210600147,None,1264.136210600147,None,1264.136210600147,None,f,0.31555739999748766,1264.136210600147,None,1264.136210600147,None,1264.5097676999867,None,1264.5097676999867,None,1264.5097676999867,None,1264.5097676999867,None,1264.5097676999867,None,1264.5097676999867,None,1264.8008898000699,1265.917874700157,1264.8008898000699,1265.917874700157,1265.9486446999945,None,1265.9486446999945,None,1265.9486446999945,None,1265.9486446999945,None,1265.9486446999945,None,1265.9486446999945,None,1265.9486446999945,None,1265.9486446999945,None,1265.9486446999945,None,45,81,44,68,81,66,1268.4665080001578,None,7.0,1.2031849001068622,1268.4665080001578,None,1268.4665080001578,None,1268.4665080001578,None,1268.4665080001578,None,None,None,1269.6866862000898,None,,,,,,,144,f,1,2022_Dec_13_1633,RL,2021.2.3,59.992428967654995,
1,84,0,84,0,,,,,,,,,,,,,,,None,None,None,None,None,1271.2916250000708,None,1271.2916250000708,None,1271.2916250000708,None,1271.2916250000708,None,f,0.29036920005455613,1271.2916250000708,None,1271.2916250000708,None,1271.628186300164,None,1271.628186300164,None,1271.628186300164,None,1271.628186300164,None,1271.628186300164,None,1271.628186300164,None,1271.9222524000797,1272.855902499985,1271.9222524000797,1272.855902499985,1272.8856880001258,None,1272.8856880001258,None,1272.8856880001258,None,1272.8856880001258,None,1272.8856880001258,None,1272.8856880001258,None,1272.8856880001258,None,1272.8856880001258,None,1272.8856880001258,None,53,81,55,74,81,65,1275.4040494000074,None,7.0,0.5896570000331849,1275.4040494000074,None,1275.4040494000074,None,1275.4040494000074,None,1275.4040494000074,None,None,None,1276.00785490009,None,,,,,,,144,f,1,2022_Dec_13_1633,RL,2021.2.3,59.992428967654995,
1,85,0,85,0,,,,,,,,,,,,,,,None,None,None,None,None,1277.6620074000675,None,1277.6620074000675,None,1277.6620074000675,None,1277.6620074000675,None,f,0.3598949001170695,1277.6620074000675,None,1277.6620074000675,None,1278.0629050999414,None,1278.0629050999414,None,1278.0629050999414,None,1278.0629050999414,None,1278.0629050999414,None,1278.0629050999414,None,1278.3600103000645,None,1278.3600103000645,None,1279.2730392999947,None,1279.2730392999947,None,1279.2730392999947,None,1279.2730392999947,None,1279.2730392999947,None,1279.2730392999947,None,1279.2730392999947,None,1279.2730392999947,None,1279.2730392999947,None,49,92,48,70,92,66,1281.7909448000137,None,7.0,0.7550132998730987,1281.7909448000137,None,1281.7909448000137,None,1281.7909448000137,None,1281.7909448000137,None,None,None,1282.562498900108,None,,,,,,,144,f,1,2022_Dec_13_1633,RL,2021.2.3,59.992428967654995,
1,86,0,86,0,,,,,,,,,,,,,,,None,None,None,None,None,1284.2333641999867,None,1284.2333641999867,None,1284.2333641999867,None,1284.2333641999867,None,f,0.3184481000062078,1284.2333641999867,None,1284.2333641999867,None,1284.6028800001368,None,1284.6028800001368,None,1284.6028800001368,None,1284.6028800001368,None,1284.6028800001368,None,1284.6028800001368,None,1284.8978063000832,None,1284.8978063000832,None,1286.445253000129,None,1286.445253000129,None,1286.445253000129,None,1286.445253000129,None,1286.445253000129,None,1286.445253000129,None,1286.445253000129,None,1286.445253000129,None,1286.445253000129,None,48,91,50,74,91,64,1288.969028700143,None,7.0,0.6353889000602067,1288.969028700143,None,1288.969028700143,None,1288.969028700143,None,1288.969028700143,None,None,None,1289.6171930001583,None,,,,,,,144,f,1,2022_Dec_13_1633,RL,2021.2.3,59.992428967654995,
1,87,0,87,0,,,,,,,,,,,,,,,None,None,None,None,None,1291.4216979001649,None,1291.4216979001649,None,1291.4216979001649,None,1291.4216979001649,None,f,0.4613188998773694,1291.4216979001649,None,1291.4216979001649,None,1291.9228368001059,None,1291.9228368001059,None,1291.9228368001059,None,1291.9228368001059,None,1291.9228368001059,None,1291.9228368001059,None,1292.2194674999919,None,1292.2194674999919,None,1293.1337844000664,None,1293.1337844000664,None,1293.1337844000664,None,1293.1337844000664,None,1293.1337844000664,None,1293.1337844000664,None,1293.1337844000664,None,1293.1337844000664,None,1293.1337844000664,None,49,93,48,68,93,66,1295.6539171000477,None,7.0,0.9364597001112998,1295.6539171000477,None,1295.6539171000477,None,1295.6539171000477,None,1295.6539171000477,None,None,None,1296.61560010002,None,,,,,,,144,f,1,2022_Dec_13_1633,RL,2021.2.3,59.992428967654995,
1,88,0,88,0,,,,,,,,,,,,,,,None,None,None,None,None,1298.4098501000553,None,1298.4098501000553,None,1298.4098501000553,None,1298.4098501000553,None,f,0.48355509992688894,1298.4098501000553,None,1298.4098501000553,None,1298.9495292000938,None,1298.9495292000938,None,1298.9495292000938,None,1298.9495292000938,None,1298.9495292000938,None,1298.9495292000938,None,1299.24112910009,1300.9588123001158,1299.24112910009,1300.9588123001158,1300.9931036001071,None,1300.9931036001071,None,1300.9931036001071,None,1300.9931036001071,None,1300.9931036001071,None,1300.9931036001071,None,1300.9931036001071,None,1300.9931036001071,None,1300.9931036001071,None,44,98,54,70,98,68,1303.5069573000073,None,7.0,0.6208339999429882,1303.5069573000073,None,1303.5069573000073,None,1303.5069573000073,None,1303.5069573000073,None,None,None,1304.1439988000784,None,,,,,,,144,f,1,2022_Dec_13_1633,RL,2021.2.3,59.992428967654995,
1,89,0,89,0,,,,,,,,,,,,,,,None,None,None,None,None,1306.098706100136,None,1306.098706100136,None,1306.098706100136,None,1306.098706100136,None,f,0.2745918999426067,1306.098706100136,None,1306.098706100136,None,1306.4200734000187,None,1306.4200734000187,None,1306.4200734000187,None,1306.4200734000187,None,1306.4200734000187,None,1306.4200734000187,None,1306.7128183001187,1308.5641787000932,1306.7128183001187,1308.5641787000932,1308.5985249001533,None,1308.5985249001533,None,1308.5985249001533,None,1308.5985249001533,None,1308.5985249001533,None,1308.5985249001533,None,1308.5985249001533,None,1308.5985249001533,None,1308.5985249001533,None,46,88,52,63,88,74,1311.1153623000719,None,7.0,0.603520100004971,1311.1153623000719,None,1311.1153623000719,None,1311.1153623000719,None,1311.1153623000719,None,None,None,1311.7325738000218,None,,,,,,,144,f,1,2022_Dec_13_1633,RL,2021.2.3,59.992428967654995,
1,90,0,90,0,,,,,,,,,,,,,,,None,None,None,None,None,1313.6537554999813,None,1313.6537554999813,None,1313.6537554999813,None,1313.6537554999813,None,f,0.41928980010561645,1313.6537554999813,None,1313.6537554999813,None,1314.123818699969,None,1314.123818699969,None,1314.123818699969,None,1314.123818699969,None,1314.123818699969,None,1314.123818699969,None,1314.4182679001242,1315.6188080001157,1314.4182679001242,1315.6188080001157,1315.6488989000209,None,1315.6488989000209,None,1315.6488989000209,None,1315.6488989000209,None,1315.6488989000209,None,1315.6488989000209,None,1315.6488989000209,None,1315.6488989000209,None,1315.6488989000209,None,51,86,50,69,86,75,1318.167833799962,None,6.0,1.2696788001339883,1318.167833799962,None,1318.167833799962,None,1318.167833799962,None,1318.167833799962,None,None,None,1319.454596400028,None,,,,,,,144,f,1,2022_Dec_13_1633,RL,2021.2.3,59.992428967654995,
1,91,0,91,0,,,,,,,,,,,,,,,None,None,None,None,None,1321.0257431000937,None,1321.0257431000937,None,1321.0257431000937,None,1321.0257431000937,None,f,0.35727989999577403,1321.0257431000937,None,1321.0257431000937,None,1321.4276179999579,None,1321.4276179999579,None,1321.4276179999579,None,1321.4276179999579,None,1321.4276179999579,None,1321.4276179999579,None,1321.7231819001026,None,1321.7231819001026,None,1323.0716586001217,None,1323.0716586001217,None,1323.0716586001217,None,1323.0716586001217,None,1323.0716586001217,None,1323.0716586001217,None,1323.0716586001217,None,1323.0716586001217,None,1323.0716586001217,None,42,90,50,65,90,80,1325.5899313001428,None,7.0,1.2059724999126047,1325.5899313001428,None,1325.5899313001428,None,1325.5899313001428,None,1325.5899313001428,None,None,None,1326.809653100092,None,,,,,,,144,f,1,2022_Dec_13_1633,RL,2021.2.3,59.992428967654995,
1,92,0,92,0,,,,,,,,,,,,,,,None,None,None,None,None,1328.4307006001472,None,1328.4307006001472,None,1328.4307006001472,None,1328.4307006001472,None,f,0.3224581000395119,1328.4307006001472,None,1328.4307006001472,None,1328.7992776001338,None,1328.7992776001338,None,1328.7992776001338,None,1328.7992776001338,None,1328.7992776001338,None,1328.7992776001338,None,1329.094930600142,None,1329.094930600142,None,1330.2294590999372,None,1330.2294590999372,None,1330.2294590999372,None,1330.2294590999372,None,1330.2294590999372,None,1330.2294590999372,None,1330.2294590999372,None,1330.2294590999372,None,1330.2294590999372,None,48,84,41,69,84,65,1332.7442666001152,None,6.0,1.6381314999889582,1332.7442666001152,None,1332.7442666001152,None,1332.7442666001152,None,1332.7442666001152,None,None,None,1334.3983922000043,None,,,,,,,144,f,1,2022_Dec_13_1633,RL,2021.2.3,59.992428967654995,
1,93,0,93,0,,,,,,,,,,,,,,,None,None,None,None,None,1336.2697644000873,None,1336.2697644000873,None,1336.2697644000873,None,1336.2697644000873,None,f,0.5033513000234962,1336.2697644000873,None,1336.2697644000873,None,1336.8203404999804,None,1336.8203404999804,None,1336.8203404999804,None,1336.8203404999804,None,1336.8203404999804,None,1336.8203404999804,None,1337.1171671000775,None,1337.1171671000775,None,1338.4900392000563,None,1338.4900392000563,None,1338.4900392000563,None,1338.4900392000563,None,1338.4900392000563,None,1338.4900392000563,None,1338.4900392000563,None,1338.4900392000563,None,1338.4900392000563,None,45,79,36,62,79,60,1341.0159028000198,None,5.0,1.723008600063622,1341.0159028000198,None,1341.0159028000198,None,1341.0159028000198,None,1341.0159028000198,None,None,None,1342.7542344999965,None,,,,,,,144,f,1,2022_Dec_13_1633,RL,2021.2.3,59.992428967654995,
1,94,0,94,0,,,,,,,,,,,,,,,None,None,None,None,None,1344.2915439000353,None,1344.2915439000353,None,1344.2915439000353,None,1344.2915439000353,None,f,0.31159189995378256,1344.2915439000353,None,1344.2915439000353,None,1344.6439664999489,None,1344.6439664999489,None,1344.6439664999489,None,1344.6439664999489,None,1344.6439664999489,None,1344.6439664999489,None,1344.9394631001633,1346.106982700061,1344.9394631001633,1346.106982700061,1346.1384195000865,None,1346.1384195000865,None,1346.1384195000865,None,1346.1384195000865,None,1346.1384195000865,None,1346.1384195000865,None,1346.1384195000865,None,1346.1384195000865,None,1346.1384195000865,None,51,85,40,61,85,76,1348.6553001001012,None,5.0,1.5912925999145955,1348.6553001001012,None,1348.6553001001012,None,1348.6553001001012,None,1348.6553001001012,None,None,None,1350.2594197001308,None,,,,,,,144,f,1,2022_Dec_13_1633,RL,2021.2.3,59.992428967654995,
1,95,0,95,0,,,,,,,,,,,,,,,None,None,None,None,None,1351.7801266000606,None,1351.7801266000606,None,1351.7801266000606,None,1351.7801266000606,None,f,0.4131630000192672,1351.7801266000606,None,1351.7801266000606,None,1352.235453600064,None,1352.235453600064,None,1352.235453600064,None,1352.235453600064,None,1352.235453600064,None,1352.235453600064,None,1352.5281118000858,None,1352.5281118000858,None,1353.6940059000626,None,1353.6940059000626,None,1353.6940059000626,None,1353.6940059000626,None,1353.6940059000626,None,1353.6940059000626,None,1353.6940059000626,None,1353.6940059000626,None,1353.6940059000626,None,63,78,45,65,78,86,1356.2099983999506,None,4.0,1.3208954001311213,1356.2099983999506,None,1356.2099983999506,None,1356.2099983999506,None,1356.2099983999506,None,None,None,1357.5473784001078,None,,,,,,,144,f,1,2022_Dec_13_1633,RL,2021.2.3,59.992428967654995,
1,96,0,96,0,,,,,,,,,,,,,,,None,None,None,None,None,1359.1858161001,None,1359.1858161001,None,1359.1858161001,None,1359.1858161001,None,i,0.3676678999327123,1359.1858161001,None,1359.1858161001,None,1359.6077499000821,None,1359.6077499000821,None,1359.6077499000821,None,1359.6077499000821,None,1359.6077499000821,None,1359.6077499000821,None,1359.8998283999972,None,1359.8998283999972,None,1361.4883328999858,None,1361.4883328999858,None,1361.4883328999858,None,1361.4883328999858,None,1361.4883328999858,None,1361.4883328999858,None,1361.4883328999858,None,1361.4883328999858,None,1361.4883328999858,None,64,78,48,64,48,79,1363.9991093999706,None,5.0,2.2890292000956833,1363.9991093999706,None,1363.9991093999706,None,1363.9991093999706,None,1363.9991093999706,None,None,None,1366.304068400059,None,,,,,,,144,f,1,2022_Dec_13_1633,RL,2021.2.3,59.992428967654995,
1,97,0,97,0,,,,,,,,,,,,,,,None,None,None,None,None,1367.824659800157,None,1367.824659800157,None,1367.824659800157,None,1367.824659800157,None,i,0.39870539982803166,1367.824659800157,None,1367.824659800157,None,1368.2623714001384,None,1368.2623714001384,None,1368.2623714001384,None,1368.2623714001384,None,1368.2623714001384,None,1368.2623714001384,None,1368.5556765999645,None,1368.5556765999645,None,1370.4371462001,None,1370.4371462001,None,1370.4371462001,None,1370.4371462001,None,1370.4371462001,None,1370.4371462001,None,1370.4371462001,None,1370.4371462001,None,1370.4371462001,None,60,83,49,60,49,69,1372.9555476999376,None,2.0,1.9069313001818955,1372.9555476999376,None,1372.9555476999376,None,1372.9555476999376,None,1372.9555476999376,None,None,None,1374.8781235001516,None,,,,,,,144,f,1,2022_Dec_13_1633,RL,2021.2.3,59.992428967654995,
1,98,0,98,0,,,,,,,,,,,,,,,None,None,None,None,None,1376.6142772000749,None,1376.6142772000749,None,1376.6142772000749,None,1376.6142772000749,None,f,0.34909990010783076,1376.6142772000749,None,1376.6142772000749,None,1377.000545399962,None,1377.000545399962,None,1377.000545399962,None,1377.000545399962,None,1377.000545399962,None,1377.000545399962,None,1377.2951297000982,None,1377.2951297000982,None,1378.7593716999982,None,1378.7593716999982,None,1378.7593716999982,None,1378.7593716999982,None,1378.7593716999982,None,1378.7593716999982,None,1378.7593716999982,None,1378.7593716999982,None,1378.7593716999982,None,60,80,48,60,80,77,1381.2857938001398,None,7.0,1.4995528999716043,1381.2857938001398,None,1381.2857938001398,None,1381.2857938001398,None,1381.2857938001398,None,None,None,1382.8026539001148,None,,,,,,,144,f,1,2022_Dec_13_1633,RL,2021.2.3,59.992428967654995,
1,99,0,99,0,,,,,,,,,,,,,,,None,None,None,None,None,1384.62001459999,None,1384.62001459999,None,1384.62001459999,None,1384.62001459999,None,f,0.28363330010324717,1384.62001459999,None,1384.62001459999,None,1384.9567365001421,None,1384.9567365001421,None,1384.9567365001421,None,1384.9567365001421,None,1384.9567365001421,None,1384.9567365001421,None,1385.2505622999743,1386.5180204999633,1385.2505622999743,1386.5180204999633,1386.5543637000956,None,1386.5543637000956,None,1386.5543637000956,None,1386.5543637000956,None,1386.5543637000956,None,1386.5543637000956,None,1386.5543637000956,None,1386.5543637000956,None,1386.5543637000956,None,65,79,36,57,79,71,1389.0775743999984,None,5.0,1.3165974000003189,1389.0775743999984,None,1389.0775743999984,None,1389.0775743999984,None,1389.0775743999984,None,None,None,1390.405314899981,None,,,,,,,144,f,1,2022_Dec_13_1633,RL,2021.2.3,59.992428967654995,
1,100,0,100,0,,,,,,,,,,,,,,,None,None,None,None,None,1392.358935000142,None,1392.358935000142,None,1392.358935000142,None,1392.358935000142,None,f,0.3649864001199603,1392.358935000142,None,1392.358935000142,None,1392.7835179001559,None,1392.7835179001559,None,1392.7835179001559,None,1392.7835179001559,None,1392.7835179001559,None,1392.7835179001559,None,1393.0728436000645,None,1393.0728436000645,None,1394.7202409000602,None,1394.7202409000602,None,1394.7202409000602,None,1394.7202409000602,None,1394.7202409000602,None,1394.7202409000602,None,1394.7202409000602,None,1394.7202409000602,None,1394.7202409000602,None,63,80,37,61,80,55,1397.238363899989,None,7.0,1.1568327001295984,1397.238363899989,None,1397.238363899989,None,1397.238363899989,None,1397.238363899989,None,None,None,1398.4096752000041,None,,,,,,,144,f,1,2022_Dec_13_1633,RL,2021.2.3,59.992428967654995,
1,101,0,101,0,,,,,,,,,,,,,,,None,None,None,None,None,1400.36429710011,None,1400.36429710011,None,1400.36429710011,None,1400.36429710011,None,f,0.38978349999524653,1400.36429710011,None,1400.36429710011,None,1400.799888700014,None,1400.799888700014,None,1400.799888700014,None,1400.799888700014,None,1400.799888700014,None,1400.799888700014,None,1401.0949446000159,1401.9790143000428,1401.0949446000159,1401.9790143000428,1402.009923200123,None,1402.009923200123,None,1402.009923200123,None,1402.009923200123,None,1402.009923200123,None,1402.009923200123,None,1402.009923200123,None,1402.009923200123,None,1402.009923200123,None,60,77,46,65,77,78,1404.5353647000156,None,5.0,0.33252079994417727,1404.5353647000156,None,1404.5353647000156,None,1404.5353647000156,None,1404.5353647000156,None,None,None,1404.881075500045,None,,,,,,,144,f,1,2022_Dec_13_1633,RL,2021.2.3,59.992428967654995,
1,102,0,102,0,,,,,,,,,,,,,,,None,None,None,None,None,1406.80175470002,None,1406.80175470002,None,1406.80175470002,None,1406.80175470002,None,f,0.6017634999006987,1406.80175470002,None,1406.80175470002,None,1407.4528892999515,None,1407.4528892999515,None,1407.4528892999515,None,1407.4528892999515,None,1407.4528892999515,None,1407.4528892999515,None,1407.7495572001208,None,1407.7495572001208,None,1408.8989961999469,None,1408.8989961999469,None,1408.8989961999469,None,1408.8989961999469,None,1408.8989961999469,None,1408.8989961999469,None,1408.8989961999469,None,1408.8989961999469,None,1408.8989961999469,None,62,80,51,51,80,43,1411.4152643000707,None,7.0,1.1534568998031318,1411.4152643000707,None,1411.4152643000707,None,1411.4152643000707,None,1411.4152643000707,None,None,None,1412.5860664001666,None,,,,,,,144,f,1,2022_Dec_13_1633,RL,2021.2.3,59.992428967654995,
1,103,0,103,0,,,,,,,,,,,,,,,None,None,None,None,None,1414.5741261001676,None,1414.5741261001676,None,1414.5741261001676,None,1414.5741261001676,None,f,0.4498152998276055,1414.5741261001676,None,1414.5741261001676,None,1415.0764723999891,None,1415.0764723999891,None,1415.0764723999891,None,1415.0764723999891,None,1415.0764723999891,None,1415.0764723999891,None,1415.371594000142,None,1415.371594000142,None,1417.301596299978,None,1417.301596299978,None,1417.301596299978,None,1417.301596299978,None,1417.301596299978,None,1417.301596299978,None,1417.301596299978,None,1417.301596299978,None,1417.301596299978,None,62,68,47,61,68,86,1419.8257343000732,None,3.0,1.0159339001402259,1419.8257343000732,None,1419.8257343000732,None,1419.8257343000732,None,1419.8257343000732,None,None,None,1420.8584209000692,None,,,,,,,144,f,1,2022_Dec_13_1633,RL,2021.2.3,59.992428967654995,
1,104,0,104,0,,,,,,,,,,,,,,,None,None,None,None,None,1422.4454771999735,None,1422.4454771999735,None,1422.4454771999735,None,1422.4454771999735,None,f,0.2483967998996377,1422.4454771999735,None,1422.4454771999735,None,1422.7404591999948,None,1422.7404591999948,None,1422.7404591999948,None,1422.7404591999948,None,1422.7404591999948,None,1422.7404591999948,None,1423.0268510000315,1423.8607000999618,1423.0268510000315,1423.8607000999618,1423.8923293000553,None,1423.8923293000553,None,1423.8923293000553,None,1423.8923293000553,None,1423.8923293000553,None,1423.8923293000553,None,1423.8923293000553,None,1423.8923293000553,None,1423.8923293000553,None,71,74,36,55,74,66,1426.410806100117,None,7.0,0.9030761001631618,1426.410806100117,None,1426.410806100117,None,1426.410806100117,None,1426.410806100117,None,None,None,1427.3295531000476,None,,,,,,,144,f,1,2022_Dec_13_1633,RL,2021.2.3,59.992428967654995,
1,105,0,105,0,,,,,,,,,,,,,,,None,None,None,None,None,1429.0172919000033,None,1429.0172919000033,None,1429.0172919000033,None,1429.0172919000033,None,f,0.29642649996094406,1429.0172919000033,None,1429.0172919000033,None,1429.3536580000073,None,1429.3536580000073,None,1429.3536580000073,None,1429.3536580000073,None,1429.3536580000073,None,1429.3536580000073,None,1429.648260800168,None,1429.648260800168,None,1430.7638455000706,None,1430.7638455000706,None,1430.7638455000706,None,1430.7638455000706,None,1430.7638455000706,None,1430.7638455000706,None,1430.7638455000706,None,1430.7638455000706,None,1430.7638455000706,None,67,69,41,56,69,68,1433.2819030000828,None,7.0,0.9706883998587728,1433.2819030000828,None,1433.2819030000828,None,1433.2819030000828,None,1433.2819030000828,None,None,None,1434.2677052000072,None,,,,,,,144,f,1,2022_Dec_13_1633,RL,2021.2.3,59.992428967654995,
1,106,0,106,0,,,,,,,,,,,,,,,None,None,None,None,None,1436.1225376001094,None,1436.1225376001094,None,1436.1225376001094,None,1436.1225376001094,None,f,0.2814968000166118,1436.1225376001094,None,1436.1225376001094,None,1436.4614858001005,None,1436.4614858001005,None,1436.4614858001005,None,1436.4614858001005,None,1436.4614858001005,None,1436.4614858001005,None,1436.7530012000352,None,1436.7530012000352,None,1437.5834014001302,None,1437.5834014001302,None,1437.5834014001302,None,1437.5834014001302,None,1437.5834014001302,None,1437.5834014001302,None,1437.5834014001302,None,1437.5834014001302,None,1437.5834014001302,None,60,69,49,54,69,89,1440.10081860004,None,3.0,1.45586230000481,1440.10081860004,None,1440.10081860004,None,1440.10081860004,None,1440.10081860004,None,None,None,1441.5779606001452,None,,,,,,,144,f,1,2022_Dec_13_1633,RL,2021.2.3,59.992428967654995,
1,107,0,107,0,,,,,,,,,,,,,,,None,None,None,None,None,1443.3770979000255,None,1443.3770979000255,None,1443.3770979000255,None,1443.3770979000255,None,i,0.26680470001883805,1443.3770979000255,None,1443.3770979000255,None,1443.6962755999994,None,1443.6962755999994,None,1443.6962755999994,None,1443.6962755999994,None,1443.6962755999994,None,1443.6962755999994,None,1443.9914208999835,None,1443.9914208999835,None,1445.821417100029,None,1445.821417100029,None,1445.821417100029,None,1445.821417100029,None,1445.821417100029,None,1445.821417100029,None,1445.821417100029,None,1445.821417100029,None,1445.821417100029,None,69,79,47,52,47,71,1448.3412472000346,None,2.0,1.4391866000369191,1448.3412472000346,None,1448.3412472000346,None,1448.3412472000346,None,1448.3412472000346,None,None,None,1449.8032516001258,None,,,,,,,144,f,1,2022_Dec_13_1633,RL,2021.2.3,59.992428967654995,
1,108,0,108,0,,,,,,,,,,,,,,,None,None,None,None,None,1451.4493027999997,None,1451.4493027999997,None,1451.4493027999997,None,1451.4493027999997,None,f,0.3556121001020074,1451.4493027999997,None,1451.4493027999997,None,1451.8521543000825,None,1451.8521543000825,None,1451.8521543000825,None,1451.8521543000825,None,1451.8521543000825,None,1451.8521543000825,None,1452.147025299957,1453.7147011000197,1452.147025299957,1453.7147011000197,1453.7454552999698,None,1453.7454552999698,None,1453.7454552999698,None,1453.7454552999698,None,1453.7454552999698,None,1453.7454552999698,None,1453.7454552999698,None,1453.7454552999698,None,1453.7454552999698,None,66,73,49,55,73,88,1456.2656487999484,None,2.0,1.1517928999383003,1456.2656487999484,None,1456.2656487999484,None,1456.2656487999484,None,1456.2656487999484,None,None,None,1457.4336061000358,None,,,,,,,144,f,1,2022_Dec_13_1633,RL,2021.2.3,59.992428967654995,
1,109,0,109,0,,,,,,,,,,,,,,,None,None,None,None,None,1459.0716067999601,None,1459.0716067999601,None,1459.0716067999601,None,1459.0716067999601,None,r,0.45326209999620914,1459.0716067999601,None,1459.0716067999601,None,1459.5782818000298,None,1459.5782818000298,None,1459.5782818000298,None,1459.5782818000298,None,1459.5782818000298,None,1459.5782818000298,None,1459.8691132001113,None,1459.8691132001113,None,1461.4526756999549,None,1461.4526756999549,None,1461.4526756999549,None,1461.4526756999549,None,1461.4526756999549,None,1461.4526756999549,None,1461.4526756999549,None,1461.4526756999549,None,1461.4526756999549,None,54,68,47,63,54,82,1463.968194999965,None,1.0,1.2395208000671118,1463.968194999965,None,1463.968194999965,None,1463.968194999965,None,1463.968194999965,None,None,None,1465.2308980999514,None,,,,,,,144,f,1,2022_Dec_13_1633,RL,2021.2.3,59.992428967654995,
1,110,0,110,0,,,,,,,,,,,,,,,None,None,None,None,None,1467.1603459001053,None,1467.1603459001053,None,1467.1603459001053,None,1467.1603459001053,None,f,0.3545544999651611,1467.1603459001053,None,1467.1603459001053,None,1467.5626910999417,None,1467.5626910999417,None,1467.5626910999417,None,1467.5626910999417,None,1467.5626910999417,None,1467.5626910999417,None,1467.8579158000648,None,1467.8579158000648,None,1468.9392323000357,None,1468.9392323000357,None,1468.9392323000357,None,1468.9392323000357,None,1468.9392323000357,None,1468.9392323000357,None,1468.9392323000357,None,1468.9392323000357,None,1468.9392323000357,None,62,74,50,71,74,63,1471.4582479000092,None,7.0,1.2864904999732971,1471.4582479000092,None,1471.4582479000092,None,1471.4582479000092,None,1471.4582479000092,None,None,None,1472.760728900088,None,,,,,,,144,f,1,2022_Dec_13_1633,RL,2021.2.3,59.992428967654995,
1,111,0,111,0,,,,,,,,,,,,,,,None,None,None,None,None,1474.6989515000023,None,1474.6989515000023,None,1474.6989515000023,None,1474.6989515000023,None,i,0.6261128999758512,1474.6989515000023,None,1474.6989515000023,None,1475.3741063000634,None,1475.3741063000634,None,1475.3741063000634,None,1475.3741063000634,None,1475.3741063000634,None,1475.3741063000634,None,1475.646607000148,1477.3477113000117,1475.646607000148,1477.3477113000117,1477.3809936000034,None,1477.3809936000034,None,1477.3809936000034,None,1477.3809936000034,None,1477.3809936000034,None,1477.3809936000034,None,1477.3809936000034,None,1477.3809936000034,None,1477.3809936000034,None,61,74,51,75,51,72,1479.8951229001395,None,4.0,1.3388924000319093,1479.8951229001395,None,1479.8951229001395,None,1479.8951229001395,None,1479.8951229001395,None,None,None,1481.2512255001348,None,,,,,,,144,f,1,2022_Dec_13_1633,RL,2021.2.3,59.992428967654995,
1,112,0,112,0,,,,,,,,,,,,,,,None,None,None,None,None,1482.787784700049,None,1482.787784700049,None,1482.787784700049,None,1482.787784700049,None,f,0.3173432999756187,1482.787784700049,None,1482.787784700049,None,1483.156621800037,None,1483.156621800037,None,1483.156621800037,None,1483.156621800037,None,1483.156621800037,None,1483.156621800037,None,1483.452205199981,None,1483.452205199981,None,1484.9174854999874,None,1484.9174854999874,None,1484.9174854999874,None,1484.9174854999874,None,1484.9174854999874,None,1484.9174854999874,None,1484.9174854999874,None,1484.9174854999874,None,1484.9174854999874,None,56,62,53,64,62,83,1487.4344464000314,None,2.0,1.4363000998273492,1487.4344464000314,None,1487.4344464000314,None,1487.4344464000314,None,1487.4344464000314,None,None,None,1488.888791800011,None,,,,,,,144,f,1,2022_Dec_13_1633,RL,2021.2.3,59.992428967654995,
