bandit,trials.thisRepN,trials.thisTrialN,trials.thisN,trials.thisIndex,instru_img1.started,instru_img1.stopped,instru_resp.keys,instru_resp.rt,instru_resp.started,instru_resp.stopped,instru_img2.started,instru_img2.stopped,instru_resp2.keys,instru_resp2.rt,instru_resp2.started,instru_resp2.stopped,fixbefore_2.started,fixbefore_2.stopped,rest_image.started,rest_image.stopped,rest_response.keys,rest_response.started,rest_response.stopped,red.started,red.stopped,green.started,green.stopped,yellow.started,yellow.stopped,blue.started,blue.stopped,choose_bandit.keys,choose_bandit.rt,choose_bandit.started,choose_bandit.stopped,Fixation.started,Fixation.stopped,black.started,black.stopped,red_2.started,red_2.stopped,green_2.started,green_2.stopped,yellow_2.started,yellow_2.stopped,blue_2.started,blue_2.stopped,fixation_2.started,fixation_2.stopped,docs.started,docs.stopped,image_2.started,image_2.stopped,black_com.started,black_com.stopped,reward_sub.started,reward_sub.stopped,palyerb.started,palyerb.stopped,reward__sub.started,reward__sub.stopped,compare.started,compare.stopped,red_compare.started,red_compare.stopped,green_com.started,green_com.stopped,yellow_com.started,yellow_com.stopped,blue_com.started,blue_com.stopped,rewardyellow,rewardred,rewardblue,rewardgreen,subchoose,playerb,image_3.started,image_3.stopped,slider.response,slider.rt,slider.started,slider.stopped,text.started,text.stopped,image_4.started,image_4.stopped,image_5.started,image_5.stopped,bigx.started,bigx.stopped,intertrialfix.started,intertrialfix.stopped,rest_response.rt,image.started,image.stopped,key_resp.keys,key_resp.started,key_resp.stopped,participant,Gender,Age,date,expName,psychopyVersion,frameRate,
,,,,,32.044357100035995,None,space,38.652160400059074,32.044357100035995,None,,,,,,,,,,,,,,,,,,,,,,,,,,,,,,,,,,,,,,,,,,,,,,,,,,,,,,,,,,,,,,,,,,,,,,,,,,,,,,,,,,,,,,,,,,145,f,1,2022_Dec_13_1800,RL,2021.2.3,59.944203873054235,
,,,,,,,,,,,70.72054930008017,None,space,58.11535830004141,70.72054930008017,None,,,,,,,,,,,,,,,,,,,,,,,,,,,,,,,,,,,,,,,,,,,,,,,,,,,,,,,,,,,,,,,,,,,,,,,,,,,,,,,,,,,,145,f,1,2022_Dec_13_1800,RL,2021.2.3,59.944203873054235,
1,0,0,0,0,,,,,,,,,,,,,128.87670750007965,None,None,None,None,None,None,129.90088390000165,None,129.90088390000165,None,129.90088390000165,None,129.90088390000165,None,i,0.8320211002137512,129.90088390000165,None,129.90088390000165,None,130.79486969998106,None,130.79486969998106,None,130.79486969998106,None,130.79486969998106,None,130.79486969998106,None,130.79486969998106,None,131.09377090004273,None,131.09377090004273,None,132.37496899999678,None,132.37496899999678,None,132.37496899999678,None,132.37496899999678,None,132.37496899999678,None,132.37496899999678,None,132.37496899999678,None,132.37496899999678,None,132.37496899999678,None,55,55,76,45,76,68,134.90884310007095,None,6.0,3.831360900076106,134.90884310007095,None,134.90884310007095,None,134.90884310007095,None,134.90884310007095,None,None,None,138.77974670007825,None,,,,,,,145,f,1,2022_Dec_13_1800,RL,2021.2.3,59.944203873054235,
1,1,0,1,0,,,,,,,,,,,,,,,None,None,None,None,None,140.46981280017644,None,140.46981280017644,None,140.46981280017644,None,140.46981280017644,None,i,0.9635685998946428,140.46981280017644,None,140.46981280017644,None,141.47404680005275,None,141.47404680005275,None,141.47404680005275,None,141.47404680005275,None,141.47404680005275,None,141.47404680005275,None,141.75120189995505,143.71940209995955,141.75120189995505,143.71940209995955,143.77187249995768,None,143.77187249995768,None,143.77187249995768,None,143.77187249995768,None,143.77187249995768,None,143.77187249995768,None,143.77187249995768,None,143.77187249995768,None,143.77187249995768,None,54,52,87,43,87,45,146.28435970004648,None,7.0,2.487925000023097,146.28435970004648,None,146.28435970004648,None,146.28435970004648,None,146.28435970004648,None,None,None,148.78894000011496,None,,,,,,,145,f,1,2022_Dec_13_1800,RL,2021.2.3,59.944203873054235,
1,2,0,2,0,,,,,,,,,,,,,,,None,None,None,None,None,150.74381810007617,None,150.74381810007617,None,150.74381810007617,None,150.74381810007617,None,i,1.2992694000713527,150.74381810007617,None,150.74381810007617,None,152.09592030011117,None,152.09592030011117,None,152.09592030011117,None,152.09592030011117,None,152.09592030011117,None,152.09592030011117,None,152.39198910002597,None,152.39198910002597,None,153.34508330002427,None,153.34508330002427,None,153.34508330002427,None,153.34508330002427,None,153.34508330002427,None,153.34508330002427,None,153.34508330002427,None,153.34508330002427,None,153.34508330002427,None,51,50,76,45,76,83,155.85881710005924,None,5.0,2.0393703000154346,155.85881710005924,None,155.85881710005924,None,155.85881710005924,None,155.85881710005924,None,None,None,157.91650449996814,None,,,,,,,145,f,1,2022_Dec_13_1800,RL,2021.2.3,59.944203873054235,
1,3,0,3,0,,,,,,,,,,,,,,,None,None,None,None,None,159.86790090007707,None,159.86790090007707,None,159.86790090007707,None,159.86790090007707,None,j,1.12516720010899,159.86790090007707,None,159.86790090007707,None,161.03775090002455,None,161.03775090002455,None,161.03775090002455,None,161.03775090002455,None,161.03775090002455,None,161.03775090002455,None,161.33134960010648,None,161.33134960010648,None,162.78078639996238,None,162.78078639996238,None,162.78078639996238,None,162.78078639996238,None,162.78078639996238,None,162.78078639996238,None,162.78078639996238,None,162.78078639996238,None,162.78078639996238,None,46,56,71,42,42,68,165.29635750013404,None,4.0,1.8190512999426574,165.29635750013404,None,165.29635750013404,None,165.29635750013404,None,165.29635750013404,None,None,None,167.13474370003678,None,,,,,,,145,f,1,2022_Dec_13_1800,RL,2021.2.3,59.944203873054235,
1,4,0,4,0,,,,,,,,,,,,,,,None,None,None,None,None,168.90338350017555,None,168.90338350017555,None,168.90338350017555,None,168.90338350017555,None,r,0.8796191001310945,168.90338350017555,None,168.90338350017555,None,169.82675470015965,None,169.82675470015965,None,169.82675470015965,None,169.82675470015965,None,169.82675470015965,None,169.82675470015965,None,170.12098190002143,None,170.12098190002143,None,171.81817890005186,None,171.81817890005186,None,171.81817890005186,None,171.81817890005186,None,171.81817890005186,None,171.81817890005186,None,171.81817890005186,None,171.81817890005186,None,171.81817890005186,None,55,68,78,47,55,47,174.33696530014277,None,5.0,1.7034877999685705,174.33696530014277,None,174.33696530014277,None,174.33696530014277,None,174.33696530014277,None,None,None,176.05888410005718,None,,,,,,,145,f,1,2022_Dec_13_1800,RL,2021.2.3,59.944203873054235,
1,5,0,5,0,,,,,,,,,,,,,,,None,None,None,None,None,177.91243709996343,None,177.91243709996343,None,177.91243709996343,None,177.91243709996343,None,f,1.1005212999880314,177.91243709996343,None,177.91243709996343,None,179.06435310002416,None,179.06435310002416,None,179.06435310002416,None,179.06435310002416,None,179.06435310002416,None,179.06435310002416,None,179.36058740015142,None,179.36058740015142,None,181.15891380002722,None,181.15891380002722,None,181.15891380002722,None,181.15891380002722,None,181.15891380002722,None,181.15891380002722,None,181.15891380002722,None,181.15891380002722,None,181.15891380002722,None,49,57,85,44,57,74,183.68169770017266,None,3.0,2.702451200224459,183.68169770017266,None,183.68169770017266,None,183.68169770017266,None,183.68169770017266,None,None,None,186.404687799979,None,,,,,,,145,f,1,2022_Dec_13_1800,RL,2021.2.3,59.944203873054235,
1,6,0,6,0,,,,,,,,,,,,,,,None,None,None,None,None,187.9692667000927,None,187.9692667000927,None,187.9692667000927,None,187.9692667000927,None,i,0.703969300026074,187.9692667000927,None,187.9692667000927,None,188.7272427000571,None,188.7272427000571,None,188.7272427000571,None,188.7272427000571,None,188.7272427000571,None,188.7272427000571,None,189.0173313000705,None,189.0173313000705,None,190.90250180009753,None,190.90250180009753,None,190.90250180009753,None,190.90250180009753,None,190.90250180009753,None,190.90250180009753,None,190.90250180009753,None,190.90250180009753,None,190.90250180009753,None,47,62,79,37,79,47,193.4155864000786,None,6.0,1.9396369999740273,193.4155864000786,None,193.4155864000786,None,193.4155864000786,None,193.4155864000786,None,None,None,195.37135080015287,None,,,,,,,145,f,1,2022_Dec_13_1800,RL,2021.2.3,59.944203873054235,
1,7,0,7,0,,,,,,,,,,,,,,,None,None,None,None,None,197.07631639996544,None,197.07631639996544,None,197.07631639996544,None,197.07631639996544,None,r,1.3570416001603007,197.07631639996544,None,197.07631639996544,None,198.48174459999427,None,198.48174459999427,None,198.48174459999427,None,198.48174459999427,None,198.48174459999427,None,198.48174459999427,None,198.77401950000785,None,198.77401950000785,None,200.24031250015832,None,200.24031250015832,None,200.24031250015832,None,200.24031250015832,None,200.24031250015832,None,200.24031250015832,None,200.24031250015832,None,200.24031250015832,None,200.24031250015832,None,41,64,85,35,41,79,202.74607870006002,None,1.0,1.7817927999421954,202.74607870006002,None,202.74607870006002,None,202.74607870006002,None,202.74607870006002,None,None,None,204.5443830001168,None,,,,,,,145,f,1,2022_Dec_13_1800,RL,2021.2.3,59.944203873054235,
1,8,0,8,0,,,,,,,,,,,,,,,None,None,None,None,None,206.16518580005504,None,206.16518580005504,None,206.16518580005504,None,206.16518580005504,None,j,0.9483543999958783,206.16518580005504,None,206.16518580005504,None,207.15417680004612,None,207.15417680004612,None,207.15417680004612,None,207.15417680004612,None,207.15417680004612,None,207.15417680004612,None,207.44687280012295,None,207.44687280012295,None,208.31750130001456,None,208.31750130001456,None,208.31750130001456,None,208.31750130001456,None,208.31750130001456,None,208.31750130001456,None,208.31750130001456,None,208.31750130001456,None,208.31750130001456,None,46,59,84,47,47,73,210.8318678000942,None,2.0,1.6694094000849873,210.8318678000942,None,210.8318678000942,None,210.8318678000942,None,210.8318678000942,None,None,None,212.51650499994867,None,,,,,,,145,f,1,2022_Dec_13_1800,RL,2021.2.3,59.944203873054235,
1,9,0,9,0,,,,,,,,,,,,,,,None,None,None,None,None,214.03737000003457,None,214.03737000003457,None,214.03737000003457,None,214.03737000003457,None,r,1.2559717998374254,214.03737000003457,None,214.03737000003457,None,215.341307700146,None,215.341307700146,None,215.341307700146,None,215.341307700146,None,215.341307700146,None,215.341307700146,None,215.6358809999656,217.01986919995397,215.6358809999656,217.01986919995397,217.05129530001432,None,217.05129530001432,None,217.05129530001432,None,217.05129530001432,None,217.05129530001432,None,217.05129530001432,None,217.05129530001432,None,217.05129530001432,None,217.05129530001432,None,53,60,93,37,53,49,219.5688029001467,None,3.0,1.4034967999905348,219.5688029001467,None,219.5688029001467,None,219.5688029001467,None,219.5688029001467,None,None,None,220.9955009999685,None,,,,,,,145,f,1,2022_Dec_13_1800,RL,2021.2.3,59.944203873054235,
1,10,0,10,0,,,,,,,,,,,,,,,None,None,None,None,None,222.79368290002458,None,222.79368290002458,None,222.79368290002458,None,222.79368290002458,None,i,0.6298086000606418,222.79368290002458,None,222.79368290002458,None,223.46298660011962,None,223.46298660011962,None,223.46298660011962,None,223.46298660011962,None,223.46298660011962,None,223.46298660011962,None,223.7580405001063,None,223.7580405001063,None,224.81059770006686,None,224.81059770006686,None,224.81059770006686,None,224.81059770006686,None,224.81059770006686,None,224.81059770006686,None,224.81059770006686,None,224.81059770006686,None,224.81059770006686,None,42,55,90,35,90,75,227.32317940006033,None,4.0,1.9068515999242663,227.32317940006033,None,227.32317940006033,None,227.32317940006033,None,227.32317940006033,None,None,None,229.24454610003158,None,,,,,,,145,f,1,2022_Dec_13_1800,RL,2021.2.3,59.944203873054235,
1,11,0,11,0,,,,,,,,,,,,,,,None,None,None,None,None,230.9167647000868,None,230.9167647000868,None,230.9167647000868,None,230.9167647000868,None,f,0.3667685999535024,230.9167647000868,None,230.9167647000868,None,231.33442810014822,None,231.33442810014822,None,231.33442810014822,None,231.33442810014822,None,231.33442810014822,None,231.33442810014822,None,231.63016830012202,None,231.63016830012202,None,232.86190230003558,None,232.86190230003558,None,232.86190230003558,None,232.86190230003558,None,232.86190230003558,None,232.86190230003558,None,232.86190230003558,None,232.86190230003558,None,232.86190230003558,None,44,55,80,36,55,74,235.380009500077,None,3.0,1.4534954000264406,235.380009500077,None,235.380009500077,None,235.380009500077,None,235.380009500077,None,None,None,236.84975020005368,None,,,,,,,145,f,1,2022_Dec_13_1800,RL,2021.2.3,59.944203873054235,
1,12,0,12,0,,,,,,,,,,,,,,,None,None,None,None,None,238.50510059995577,None,238.50510059995577,None,238.50510059995577,None,238.50510059995577,None,i,0.5785913001745939,238.50510059995577,None,238.50510059995577,None,239.12669629999436,None,239.12669629999436,None,239.12669629999436,None,239.12669629999436,None,239.12669629999436,None,239.12669629999436,None,239.41904660011642,240.28639100003056,239.41904660011642,240.28639100003056,240.3189352999907,None,240.3189352999907,None,240.3189352999907,None,240.3189352999907,None,240.3189352999907,None,240.3189352999907,None,240.3189352999907,None,240.3189352999907,None,240.3189352999907,None,49,55,87,39,87,73,242.83426679996774,None,5.0,1.4212595000863075,242.83426679996774,None,242.83426679996774,None,242.83426679996774,None,242.83426679996774,None,None,None,244.2716272000689,None,,,,,,,145,f,1,2022_Dec_13_1800,RL,2021.2.3,59.944203873054235,
1,13,0,13,0,,,,,,,,,,,,,,,None,None,None,None,None,245.89266810007393,None,245.89266810007393,None,245.89266810007393,None,245.89266810007393,None,j,0.4309551001060754,245.89266810007393,None,245.89266810007393,None,246.37421420007013,None,246.37421420007013,None,246.37421420007013,None,246.37421420007013,None,246.37421420007013,None,246.37421420007013,None,246.65718720015138,248.40840540011413,246.65718720015138,248.40840540011413,248.44739900017157,None,248.44739900017157,None,248.44739900017157,None,248.44739900017157,None,248.44739900017157,None,248.44739900017157,None,248.44739900017157,None,248.44739900017157,None,248.44739900017157,None,55,50,80,37,37,67,250.95849480014294,None,1.0,1.1361452999990433,250.95849480014294,None,250.95849480014294,None,250.95849480014294,None,250.95849480014294,None,None,None,252.11063720006496,None,,,,,,,145,f,1,2022_Dec_13_1800,RL,2021.2.3,59.944203873054235,
1,14,0,14,0,,,,,,,,,,,,,,,None,None,None,None,None,253.9169217001181,None,253.9169217001181,None,253.9169217001181,None,253.9169217001181,None,r,0.6970510999672115,253.9169217001181,None,253.9169217001181,None,254.66801699995995,None,254.66801699995995,None,254.66801699995995,None,254.66801699995995,None,254.66801699995995,None,254.66801699995995,None,254.96305070002563,None,254.96305070002563,None,256.5974397000391,None,256.5974397000391,None,256.5974397000391,None,256.5974397000391,None,256.5974397000391,None,256.5974397000391,None,256.5974397000391,None,256.5974397000391,None,256.5974397000391,None,54,59,84,41,54,41,259.11794960009865,None,4.0,2.0833910999353975,259.11794960009865,None,259.11794960009865,None,259.11794960009865,None,259.11794960009865,None,None,None,261.2170453001745,None,,,,,,,145,f,1,2022_Dec_13_1800,RL,2021.2.3,59.944203873054235,
1,15,0,15,0,,,,,,,,,,,,,,,None,None,None,None,None,263.0552863001358,None,263.0552863001358,None,263.0552863001358,None,263.0552863001358,None,i,0.5387624001596123,263.0552863001358,None,263.0552863001358,None,263.64185470016673,None,263.64185470016673,None,263.64185470016673,None,263.64185470016673,None,263.64185470016673,None,263.64185470016673,None,263.9358749000821,None,263.9358749000821,None,265.76850220002234,None,265.76850220002234,None,265.76850220002234,None,265.76850220002234,None,265.76850220002234,None,265.76850220002234,None,265.76850220002234,None,265.76850220002234,None,265.76850220002234,None,56,50,81,48,81,56,268.2858544001356,None,5.0,1.0041551999747753,268.2858544001356,None,268.2858544001356,None,268.2858544001356,None,268.2858544001356,None,None,None,269.30580330011435,None,,,,,,,145,f,1,2022_Dec_13_1800,RL,2021.2.3,59.944203873054235,
1,16,0,16,0,,,,,,,,,,,,,,,None,None,None,None,None,270.8441862000618,None,270.8441862000618,None,270.8441862000618,None,270.8441862000618,None,i,0.4595135001000017,270.8441862000618,None,270.8441862000618,None,271.351238100091,None,271.351238100091,None,271.351238100091,None,271.351238100091,None,271.351238100091,None,271.351238100091,None,271.6412305999547,272.7919585001655,271.6412305999547,272.7919585001655,272.8238138000015,None,272.8238138000015,None,272.8238138000015,None,272.8238138000015,None,272.8238138000015,None,272.8238138000015,None,272.8238138000015,None,272.8238138000015,None,272.8238138000015,None,58,56,77,47,77,70,275.342153100064,None,5.0,0.4535970001015812,275.342153100064,None,275.342153100064,None,275.342153100064,None,275.342153100064,None,None,None,275.81223110016435,None,,,,,,,145,f,1,2022_Dec_13_1800,RL,2021.2.3,59.944203873054235,
1,17,0,17,0,,,,,,,,,,,,,,,None,None,None,None,None,277.74862079997547,None,277.74862079997547,None,277.74862079997547,None,277.74862079997547,None,j,0.4349728999659419,277.74862079997547,None,277.74862079997547,None,278.23424530006014,None,278.23424530006014,None,278.23424530006014,None,278.23424530006014,None,278.23424530006014,None,278.23424530006014,None,278.5293932000641,None,278.5293932000641,None,279.9607200000901,None,279.9607200000901,None,279.9607200000901,None,279.9607200000901,None,279.9607200000901,None,279.9607200000901,None,279.9607200000901,None,279.9607200000901,None,279.9607200000901,None,58,60,79,47,47,72,282.47803710005246,None,2.0,0.8908462000545114,282.47803710005246,None,282.47803710005246,None,282.47803710005246,None,282.47803710005246,None,None,None,283.3828594000079,None,,,,,,,145,f,1,2022_Dec_13_1800,RL,2021.2.3,59.944203873054235,
1,18,0,18,0,,,,,,,,,,,,,,,None,None,None,None,None,285.2705965000205,None,285.2705965000205,None,285.2705965000205,None,285.2705965000205,None,f,0.5231560999527574,285.2705965000205,None,285.2705965000205,None,285.83964670007117,None,285.83964670007117,None,285.83964670007117,None,285.83964670007117,None,285.83964670007117,None,285.83964670007117,None,286.13462460017763,None,286.13462460017763,None,288.00015230011195,None,288.00015230011195,None,288.00015230011195,None,288.00015230011195,None,288.00015230011195,None,288.00015230011195,None,288.00015230011195,None,288.00015230011195,None,288.00015230011195,None,56,58,91,47,58,47,290.521878400119,None,4.0,1.0681054000742733,290.521878400119,None,290.521878400119,None,290.521878400119,None,290.521878400119,None,None,None,291.6045441001188,None,,,,,,,145,f,1,2022_Dec_13_1800,RL,2021.2.3,59.944203873054235,
1,19,0,19,0,,,,,,,,,,,,,,,None,None,None,None,None,293.50965859997086,None,293.50965859997086,None,293.50965859997086,None,293.50965859997086,None,f,0.8945192999672145,293.50965859997086,None,293.50965859997086,None,294.44715710007586,None,294.44715710007586,None,294.44715710007586,None,294.44715710007586,None,294.44715710007586,None,294.44715710007586,None,294.7405954999849,None,294.7405954999849,None,296.6396298999898,None,296.6396298999898,None,296.6396298999898,None,296.6396298999898,None,296.6396298999898,None,296.6396298999898,None,296.6396298999898,None,296.6396298999898,None,296.6396298999898,None,50,61,80,46,61,62,299.1644256999716,None,3.0,1.716725799953565,299.1644256999716,None,299.1644256999716,None,299.1644256999716,None,299.1644256999716,None,None,None,300.89676450006664,None,,,,,,,145,f,1,2022_Dec_13_1800,RL,2021.2.3,59.944203873054235,
1,20,0,20,0,,,,,,,,,,,,,,,None,None,None,None,None,302.6154020000249,None,302.6154020000249,None,302.6154020000249,None,302.6154020000249,None,r,0.5884453998878598,302.6154020000249,None,302.6154020000249,None,303.2619382000994,None,303.2619382000994,None,303.2619382000994,None,303.2619382000994,None,303.2619382000994,None,303.2619382000994,None,303.5466593001038,304.54737920011394,303.5466593001038,304.54737920011394,304.5835679001175,None,304.5835679001175,None,304.5835679001175,None,304.5835679001175,None,304.5835679001175,None,304.5835679001175,None,304.5835679001175,None,304.5835679001175,None,304.5835679001175,None,54,57,79,41,54,72,307.1121903001331,None,2.0,1.1380749000236392,307.1121903001331,None,307.1121903001331,None,307.1121903001331,None,307.1121903001331,None,None,None,308.26610850007273,None,,,,,,,145,f,1,2022_Dec_13_1800,RL,2021.2.3,59.944203873054235,
1,21,0,21,0,,,,,,,,,,,,,,,None,None,None,None,None,309.92092920001596,None,309.92092920001596,None,309.92092920001596,None,309.92092920001596,None,i,0.5732147998642176,309.92092920001596,None,309.92092920001596,None,310.5428596001584,None,310.5428596001584,None,310.5428596001584,None,310.5428596001584,None,310.5428596001584,None,310.5428596001584,None,310.8350442000665,None,310.8350442000665,None,312.6029024000745,None,312.6029024000745,None,312.6029024000745,None,312.6029024000745,None,312.6029024000745,None,312.6029024000745,None,312.6029024000745,None,312.6029024000745,None,312.6029024000745,None,64,57,73,40,73,61,315.1177680999972,None,5.0,2.2385701001621783,315.1177680999972,None,315.1177680999972,None,315.1177680999972,None,315.1177680999972,None,None,None,317.3724549000617,None,,,,,,,145,f,1,2022_Dec_13_1800,RL,2021.2.3,59.944203873054235,
1,22,0,22,0,,,,,,,,,,,,,,,None,None,None,None,None,319.3099374000449,None,319.3099374000449,None,319.3099374000449,None,319.3099374000449,None,i,0.5951147000305355,319.3099374000449,None,319.3099374000449,None,319.94799969997257,None,319.94799969997257,None,319.94799969997257,None,319.94799969997257,None,319.94799969997257,None,319.94799969997257,None,320.2415708999615,321.64236559998244,320.2415708999615,321.64236559998244,321.67567900009453,None,321.67567900009453,None,321.67567900009453,None,321.67567900009453,None,321.67567900009453,None,321.67567900009453,None,321.67567900009453,None,321.67567900009453,None,321.67567900009453,None,67,65,74,39,74,49,324.19094560015947,None,5.0,0.8725680999923497,324.19094560015947,None,324.19094560015947,None,324.19094560015947,None,324.19094560015947,None,None,None,325.0780464001,None,,,,,,,145,f,1,2022_Dec_13_1800,RL,2021.2.3,59.944203873054235,
1,23,0,23,0,,,,,,,,,,,,,,,None,None,None,None,None,326.8662181000691,None,326.8662181000691,None,326.8662181000691,None,326.8662181000691,None,i,0.2891754999291152,326.8662181000691,None,326.8662181000691,None,327.20511110010557,None,327.20511110010557,None,327.20511110010557,None,327.20511110010557,None,327.20511110010557,None,327.20511110010557,None,327.49665560014546,328.864042500034,327.49665560014546,328.864042500034,328.8972350000404,None,328.8972350000404,None,328.8972350000404,None,328.8972350000404,None,328.8972350000404,None,328.8972350000404,None,328.8972350000404,None,328.8972350000404,None,328.8972350000404,None,59,61,78,44,78,54,331.41237190016545,None,5.0,0.9066705999430269,331.41237190016545,None,331.41237190016545,None,331.41237190016545,None,331.41237190016545,None,None,None,332.33317929995246,None,,,,,,,145,f,1,2022_Dec_13_1800,RL,2021.2.3,59.944203873054235,
1,24,0,24,0,,,,,,,,,,,,,,,None,None,None,None,None,333.9358431000728,None,333.9358431000728,None,333.9358431000728,None,333.9358431000728,None,i,0.36922500003129244,333.9358431000728,None,333.9358431000728,None,334.3541792000178,None,334.3541792000178,None,334.3541792000178,None,334.3541792000178,None,334.3541792000178,None,334.3541792000178,None,334.65171080012806,None,334.65171080012806,None,336.66638340009376,None,336.66638340009376,None,336.66638340009376,None,336.66638340009376,None,336.66638340009376,None,336.66638340009376,None,336.66638340009376,None,336.66638340009376,None,336.66638340009376,None,65,54,83,42,83,60,339.1848005000502,None,5.0,0.7212684999685735,339.1848005000502,None,339.1848005000502,None,339.1848005000502,None,339.1848005000502,None,None,None,339.9213231999893,None,,,,,,,145,f,1,2022_Dec_13_1800,RL,2021.2.3,59.944203873054235,
1,25,0,25,0,,,,,,,,,,,,,,,None,None,None,None,None,341.7261010000948,None,341.7261010000948,None,341.7261010000948,None,341.7261010000948,None,i,0.3386853002011776,341.7261010000948,None,341.7261010000948,None,342.1103593001608,None,342.1103593001608,None,342.1103593001608,None,342.1103593001608,None,342.1103593001608,None,342.1103593001608,None,342.4069193000905,343.5909361001104,342.4069193000905,343.5909361001104,343.6202198001556,None,343.6202198001556,None,343.6202198001556,None,343.6202198001556,None,343.6202198001556,None,343.6202198001556,None,343.6202198001556,None,343.6202198001556,None,343.6202198001556,None,60,47,79,50,79,63,346.13855449995026,None,6.0,0.7581021001096815,346.13855449995026,None,346.13855449995026,None,346.13855449995026,None,346.13855449995026,None,None,None,346.91298350016586,None,,,,,,,145,f,1,2022_Dec_13_1800,RL,2021.2.3,59.944203873054235,
1,26,0,26,0,,,,,,,,,,,,,,,None,None,None,None,None,348.7144404000137,None,348.7144404000137,None,348.7144404000137,None,348.7144404000137,None,i,0.3407951998524368,348.7144404000137,None,348.7144404000137,None,349.0979588001501,None,349.0979588001501,None,349.0979588001501,None,349.0979588001501,None,349.0979588001501,None,349.0979588001501,None,349.3953776000999,351.2128616999835,349.3953776000999,351.2128616999835,351.2499547000043,None,351.2499547000043,None,351.2499547000043,None,351.2499547000043,None,351.2499547000043,None,351.2499547000043,None,351.2499547000043,None,351.2499547000043,None,351.2499547000043,None,53,47,63,41,63,51,353.7599053001031,None,6.0,0.6727956999093294,353.7599053001031,None,353.7599053001031,None,353.7599053001031,None,353.7599053001031,None,None,None,354.4484025000129,None,,,,,,,145,f,1,2022_Dec_13_1800,RL,2021.2.3,59.944203873054235,
1,27,0,27,0,,,,,,,,,,,,,,,None,None,None,None,None,356.30426100012846,None,356.30426100012846,None,356.30426100012846,None,356.30426100012846,None,i,0.3211016000714153,356.30426100012846,None,356.30426100012846,None,356.67280400008895,None,356.67280400008895,None,356.67280400008895,None,356.67280400008895,None,356.67280400008895,None,356.67280400008895,None,356.9670186000876,358.68475820007734,356.9670186000876,358.68475820007734,358.7176559001673,None,358.7176559001673,None,358.7176559001673,None,358.7176559001673,None,358.7176559001673,None,358.7176559001673,None,358.7176559001673,None,358.7176559001673,None,358.7176559001673,None,54,50,66,41,66,61,361.2373592001386,None,6.0,0.7849229001440108,361.2373592001386,None,361.2373592001386,None,361.2373592001386,None,361.2373592001386,None,None,None,362.03659899998456,None,,,,,,,145,f,1,2022_Dec_13_1800,RL,2021.2.3,59.944203873054235,
1,28,0,28,0,,,,,,,,,,,,,,,None,None,None,None,None,363.82474770001136,None,363.82474770001136,None,363.82474770001136,None,363.82474770001136,None,i,0.34034629981033504,363.82474770001136,None,363.82474770001136,None,364.2138422001153,None,364.2138422001153,None,364.2138422001153,None,364.2138422001153,None,364.2138422001153,None,364.2138422001153,None,364.50549879996106,None,364.50549879996106,None,365.835492500104,None,365.835492500104,None,365.835492500104,None,365.835492500104,None,365.835492500104,None,365.835492500104,None,365.835492500104,None,365.835492500104,None,365.835492500104,None,52,59,69,42,69,49,368.35992310009897,None,7.0,1.0317396998871118,368.35992310009897,None,368.35992310009897,None,368.35992310009897,None,368.35992310009897,None,None,None,369.40956149995327,None,,,,,,,145,f,1,2022_Dec_13_1800,RL,2021.2.3,59.944203873054235,
1,29,0,29,0,,,,,,,,,,,,,,,None,None,None,None,None,371.04636010015383,None,371.04636010015383,None,371.04636010015383,None,371.04636010015383,None,i,0.45902769989334047,371.04636010015383,None,371.04636010015383,None,371.55556780006737,None,371.55556780006737,None,371.55556780006737,None,371.55556780006737,None,371.55556780006737,None,371.55556780006737,None,371.8441457001027,373.5450420000125,371.8441457001027,373.5450420000125,373.5752894000616,None,373.5752894000616,None,373.5752894000616,None,373.5752894000616,None,373.5752894000616,None,373.5752894000616,None,373.5752894000616,None,373.5752894000616,None,373.5752894000616,None,56,57,69,45,69,51,376.0925744001288,None,6.0,1.4725146000273526,376.0925744001288,None,376.0925744001288,None,376.0925744001288,None,376.0925744001288,None,None,None,377.5808455001097,None,,,,,,,145,f,1,2022_Dec_13_1800,RL,2021.2.3,59.944203873054235,
1,30,0,30,0,,,,,,,,,,,,,,,None,None,None,None,None,379.5694220000878,None,379.5694220000878,None,379.5694220000878,None,379.5694220000878,None,i,0.21604200010187924,379.5694220000878,None,379.5694220000878,None,379.83801289997064,None,379.83801289997064,None,379.83801289997064,None,379.83801289997064,None,379.83801289997064,None,379.83801289997064,None,380.13309959997423,381.71752250008285,380.13309959997423,381.71752250008285,381.75038750004023,None,381.75038750004023,None,381.75038750004023,None,381.75038750004023,None,381.75038750004023,None,381.75038750004023,None,381.75038750004023,None,381.75038750004023,None,381.75038750004023,None,58,62,73,36,73,59,384.2673613000661,None,5.0,0.8539124999660999,384.2673613000661,None,384.2673613000661,None,384.2673613000661,None,384.2673613000661,None,None,None,385.1361404999625,None,,,,,,,145,f,1,2022_Dec_13_1800,RL,2021.2.3,59.944203873054235,
1,31,0,31,0,,,,,,,,,,,,,,,None,None,None,None,None,386.92264769994654,None,386.92264769994654,None,386.92264769994654,None,386.92264769994654,None,i,0.39274969999678433,386.92264769994654,None,386.92264769994654,None,387.3608868001029,None,387.3608868001029,None,387.3608868001029,None,387.3608868001029,None,387.3608868001029,None,387.3608868001029,None,387.6549536001403,None,387.6549536001403,None,389.2533489000052,None,389.2533489000052,None,389.2533489000052,None,389.2533489000052,None,389.2533489000052,None,389.2533489000052,None,389.2533489000052,None,389.2533489000052,None,389.2533489000052,None,57,62,73,37,73,62,391.76927340007387,None,7.0,1.3922083999495953,391.76927340007387,None,391.76927340007387,None,391.76927340007387,None,391.76927340007387,None,None,None,393.1822093001101,None,,,,,,,145,f,1,2022_Dec_13_1800,RL,2021.2.3,59.944203873054235,
1,32,0,32,0,,,,,,,,,,,,,,,None,None,None,None,None,394.8799762001727,None,394.8799762001727,None,394.8799762001727,None,394.8799762001727,None,i,0.4454008999746293,394.8799762001727,None,394.8799762001727,None,395.3746842001565,None,395.3746842001565,None,395.3746842001565,None,395.3746842001565,None,395.3746842001565,None,395.3746842001565,None,395.66090980009176,397.37822000007145,395.66090980009176,397.37822000007145,397.411355700111,None,397.411355700111,None,397.411355700111,None,397.411355700111,None,397.411355700111,None,397.411355700111,None,397.411355700111,None,397.411355700111,None,397.411355700111,None,51,62,75,37,75,54,399.93484200001694,None,6.0,1.5977791999466717,399.93484200001694,None,399.93484200001694,None,399.93484200001694,None,399.93484200001694,None,None,None,401.54878630000167,None,,,,,,,145,f,1,2022_Dec_13_1800,RL,2021.2.3,59.944203873054235,
1,33,0,33,0,,,,,,,,,,,,,,,None,None,None,None,None,403.0844124001451,None,403.0844124001451,None,403.0844124001451,None,403.0844124001451,None,i,0.3710517999716103,403.0844124001451,None,403.0844124001451,None,403.5044573000632,None,403.5044573000632,None,403.5044573000632,None,403.5044573000632,None,403.5044573000632,None,403.5044573000632,None,403.7996106001083,None,403.7996106001083,None,405.65399609995075,None,405.65399609995075,None,405.65399609995075,None,405.65399609995075,None,405.65399609995075,None,405.65399609995075,None,405.65399609995075,None,405.65399609995075,None,405.65399609995075,None,57,63,72,39,72,55,408.169844500022,None,6.0,0.6183992999140173,408.169844500022,None,408.169844500022,None,408.169844500022,None,408.169844500022,None,None,None,408.8023882000707,None,,,,,,,145,f,1,2022_Dec_13_1800,RL,2021.2.3,59.944203873054235,
1,34,0,34,0,,,,,,,,,,,,,,,None,None,None,None,None,410.540581200039,None,410.540581200039,None,410.540581200039,None,410.540581200039,None,i,0.6651294999755919,410.540581200039,None,410.540581200039,None,411.24484289996326,None,411.24484289996326,None,411.24484289996326,None,411.24484289996326,None,411.24484289996326,None,411.24484289996326,None,411.52146050008014,413.1393057999667,411.52146050008014,413.1393057999667,413.17055260017514,None,413.17055260017514,None,413.17055260017514,None,413.17055260017514,None,413.17055260017514,None,413.17055260017514,None,413.17055260017514,None,413.17055260017514,None,413.17055260017514,None,60,66,68,44,68,60,415.6859290001448,None,6.0,1.0066740999463946,415.6859290001448,None,415.6859290001448,None,415.6859290001448,None,415.6859290001448,None,None,None,416.7079771000426,None,,,,,,,145,f,1,2022_Dec_13_1800,RL,2021.2.3,59.944203873054235,
1,35,0,35,0,,,,,,,,,,,,,,,None,None,None,None,None,418.5792521999683,None,418.5792521999683,None,418.5792521999683,None,418.5792521999683,None,i,0.7063733998220414,418.5792521999683,None,418.5792521999683,None,419.33259800006635,None,419.33259800006635,None,419.33259800006635,None,419.33259800006635,None,419.33259800006635,None,419.33259800006635,None,419.62739180005156,None,419.62739180005156,None,421.18502390012145,None,421.18502390012145,None,421.18502390012145,None,421.18502390012145,None,421.18502390012145,None,421.18502390012145,None,421.18502390012145,None,421.18502390012145,None,421.18502390012145,None,63,67,74,47,74,45,423.7147522000596,None,7.0,1.3511095999274403,423.7147522000596,None,423.7147522000596,None,423.7147522000596,None,423.7147522000596,None,None,None,425.0807728001382,None,,,,,,,145,f,1,2022_Dec_13_1800,RL,2021.2.3,59.944203873054235,
1,36,0,36,0,,,,,,,,,,,,,,,None,None,None,None,None,426.68493650015444,None,426.68493650015444,None,426.68493650015444,None,426.68493650015444,None,i,0.5507193999364972,426.68493650015444,None,426.68493650015444,None,427.2881861999631,None,427.2881861999631,None,427.2881861999631,None,427.2881861999631,None,427.2881861999631,None,427.2881861999631,None,427.58265630016103,429.45056320005096,427.58265630016103,429.45056320005096,429.48083660006523,None,429.48083660006523,None,429.48083660006523,None,429.48083660006523,None,429.48083660006523,None,429.48083660006523,None,429.48083660006523,None,429.48083660006523,None,429.48083660006523,None,63,61,59,52,59,47,431.99770940002054,None,6.0,1.174220000160858,431.99770940002054,None,431.99770940002054,None,431.99770940002054,None,431.99770940002054,None,None,None,433.1890022000298,None,,,,,,,145,f,1,2022_Dec_13_1800,RL,2021.2.3,59.944203873054235,
1,37,0,37,0,,,,,,,,,,,,,,,None,None,None,None,None,434.80692819994874,None,434.80692819994874,None,434.80692819994874,None,434.80692819994874,None,i,0.4188417000696063,434.80692819994874,None,434.80692819994874,None,435.27738450001925,None,435.27738450001925,None,435.27738450001925,None,435.27738450001925,None,435.27738450001925,None,435.27738450001925,None,435.5715834000148,436.70568420016207,435.5715834000148,436.70568420016207,436.73810830013826,None,436.73810830013826,None,436.73810830013826,None,436.73810830013826,None,436.73810830013826,None,436.73810830013826,None,436.73810830013826,None,436.73810830013826,None,436.73810830013826,None,62,66,69,54,69,48,439.25227149995044,None,5.0,0.9411087001208216,439.25227149995044,None,439.25227149995044,None,439.25227149995044,None,439.25227149995044,None,None,None,440.2121644001454,None,,,,,,,145,f,1,2022_Dec_13_1800,RL,2021.2.3,59.944203873054235,
1,38,0,38,0,,,,,,,,,,,,,,,None,None,None,None,None,441.845546600176,None,441.845546600176,None,441.845546600176,None,441.845546600176,None,i,0.37041629990562797,441.845546600176,None,441.845546600176,None,442.2653606000822,None,442.2653606000822,None,442.2653606000822,None,442.2653606000822,None,442.2653606000822,None,442.2653606000822,None,442.5597082001623,443.96062300004996,442.5597082001623,443.96062300004996,443.9966541000176,None,443.9966541000176,None,443.9966541000176,None,443.9966541000176,None,443.9966541000176,None,443.9966541000176,None,443.9966541000176,None,443.9966541000176,None,443.9966541000176,None,68,77,59,44,59,68,446.50921340007335,None,4.0,1.2890476000029594,446.50921340007335,None,446.50921340007335,None,446.50921340007335,None,446.50921340007335,None,None,None,447.8129054000601,None,,,,,,,145,f,1,2022_Dec_13_1800,RL,2021.2.3,59.944203873054235,
1,39,0,39,0,,,,,,,,,,,,,,,None,None,None,None,None,449.6510559001472,None,449.6510559001472,None,449.6510559001472,None,449.6510559001472,None,r,0.4138511000201106,449.6510559001472,None,449.6510559001472,None,450.0879171001725,None,450.0879171001725,None,450.0879171001725,None,450.0879171001725,None,450.0879171001725,None,450.0879171001725,None,450.3817658999469,None,450.3817658999469,None,452.0692174001597,None,452.0692174001597,None,452.0692174001597,None,452.0692174001597,None,452.0692174001597,None,452.0692174001597,None,452.0692174001597,None,452.0692174001597,None,452.0692174001597,None,69,70,69,51,69,46,454.59703910001554,None,7.0,1.4582226001657546,454.59703910001554,None,454.59703910001554,None,454.59703910001554,None,454.59703910001554,None,None,None,456.0686278999783,None,,,,,,,145,f,1,2022_Dec_13_1800,RL,2021.2.3,59.944203873054235,
1,40,0,40,0,,,,,,,,,,,,,,,None,None,None,None,None,457.94073519995436,None,457.94073519995436,None,457.94073519995436,None,457.94073519995436,None,r,0.30517710000276566,457.94073519995436,None,457.94073519995436,None,458.29426640016027,None,458.29426640016027,None,458.29426640016027,None,458.29426640016027,None,458.29426640016027,None,458.29426640016027,None,458.5875373000745,459.55472620017827,458.5875373000745,459.55472620017827,459.58547369996086,None,459.58547369996086,None,459.58547369996086,None,459.58547369996086,None,459.58547369996086,None,459.58547369996086,None,459.58547369996086,None,459.58547369996086,None,459.58547369996086,None,70,66,65,45,70,40,462.1028181000147,None,7.0,1.3716206999961287,462.1028181000147,None,462.1028181000147,None,462.1028181000147,None,462.1028181000147,None,None,None,463.49662970006466,None,,,,,,,145,f,1,2022_Dec_13_1800,RL,2021.2.3,59.944203873054235,
1,41,0,41,0,,,,,,,,,,,,,,,None,None,None,None,None,465.4786494001746,None,465.4786494001746,None,465.4786494001746,None,465.4786494001746,None,r,0.4174059999641031,465.4786494001746,None,465.4786494001746,None,465.94897050014697,None,465.94897050014697,None,465.94897050014697,None,465.94897050014697,None,465.94897050014697,None,465.94897050014697,None,466.2429231000133,None,466.2429231000133,None,467.76496689999476,None,467.76496689999476,None,467.76496689999476,None,467.76496689999476,None,467.76496689999476,None,467.76496689999476,None,467.76496689999476,None,467.76496689999476,None,467.76496689999476,None,74,57,68,43,74,46,470.27807820006274,None,7.0,0.4851697999984026,470.27807820006274,None,470.27807820006274,None,470.27807820006274,None,470.27807820006274,None,None,None,470.78209250001237,None,,,,,,,145,f,1,2022_Dec_13_1800,RL,2021.2.3,59.944203873054235,
1,42,0,42,0,,,,,,,,,,,,,,,None,None,None,None,None,472.497096600011,None,472.497096600011,None,472.497096600011,None,472.497096600011,None,None,,472.497096600011,None,472.497096600011,None,None,None,None,None,None,None,None,None,None,None,None,None,None,None,None,None,None,None,None,None,None,None,None,None,None,None,None,None,None,None,None,None,None,None,64,77,67,39,0,**,None,None,None,None,None,None,None,None,None,None,None,None,474.04519440000877,None,478.5509832999669,None,,,,,,,145,f,1,2022_Dec_13_1800,RL,2021.2.3,59.944203873054235,
1,43,0,43,0,,,,,,,,,,,,,,,None,None,None,None,None,480.23921030014753,None,480.23921030014753,None,480.23921030014753,None,480.23921030014753,None,r,0.41651719994843006,480.23921030014753,None,480.23921030014753,None,480.7084602001123,None,480.7084602001123,None,480.7084602001123,None,480.7084602001123,None,480.7084602001123,None,480.7084602001123,None,481.0030610000249,482.92099929996766,481.0030610000249,482.92099929996766,482.95508079999126,None,482.95508079999126,None,482.95508079999126,None,482.95508079999126,None,482.95508079999126,None,482.95508079999126,None,482.95508079999126,None,482.95508079999126,None,482.95508079999126,None,67,66,62,36,67,51,485.4681304001715,None,5.0,1.0385358000639826,485.4681304001715,None,485.4681304001715,None,485.4681304001715,None,485.4681304001715,None,None,None,486.52302290010266,None,,,,,,,145,f,1,2022_Dec_13_1800,RL,2021.2.3,59.944203873054235,
1,44,0,44,0,,,,,,,,,,,,,,,None,None,None,None,None,488.3605401001405,None,488.3605401001405,None,488.3605401001405,None,488.3605401001405,None,r,0.3754944000393152,488.3605401001405,None,488.3605401001405,None,488.781062199967,None,488.781062199967,None,488.781062199967,None,488.781062199967,None,488.781062199967,None,488.781062199967,None,489.0753032001667,490.5595052000135,489.0753032001667,490.5595052000135,490.58067429997027,None,490.58067429997027,None,490.58067429997027,None,490.58067429997027,None,490.58067429997027,None,490.58067429997027,None,490.58067429997027,None,490.58067429997027,None,490.58067429997027,None,62,66,61,38,62,48,493.10375800007023,None,6.0,0.9470486999489367,493.10375800007023,None,493.10375800007023,None,493.10375800007023,None,493.10375800007023,None,None,None,494.0615181000903,None,,,,,,,145,f,1,2022_Dec_13_1800,RL,2021.2.3,59.944203873054235,
1,45,0,45,0,,,,,,,,,,,,,,,None,None,None,None,None,495.98296930012293,None,495.98296930012293,None,495.98296930012293,None,495.98296930012293,None,r,0.47408899990841746,495.98296930012293,None,495.98296930012293,None,496.50034920009784,None,496.50034920009784,None,496.50034920009784,None,496.50034920009784,None,496.50034920009784,None,496.50034920009784,None,496.79743270017207,None,496.79743270017207,None,498.5453274999745,None,498.5453274999745,None,498.5453274999745,None,498.5453274999745,None,498.5453274999745,None,498.5453274999745,None,498.5453274999745,None,498.5453274999745,None,498.5453274999745,None,74,73,64,35,74,53,501.06312080007046,None,6.0,0.7207067999988794,501.06312080007046,None,501.06312080007046,None,501.06312080007046,None,501.06312080007046,None,None,None,501.800249800086,None,,,,,,,145,f,1,2022_Dec_13_1800,RL,2021.2.3,59.944203873054235,
1,46,0,46,0,,,,,,,,,,,,,,,None,None,None,None,None,503.4551059999503,None,503.4551059999503,None,503.4551059999503,None,503.4551059999503,None,r,0.3417301999870688,503.4551059999503,None,503.4551059999503,None,503.8423248999752,None,503.8423248999752,None,503.8423248999752,None,503.8423248999752,None,503.8423248999752,None,503.8423248999752,None,504.11895270016976,505.1697142999619,504.11895270016976,505.1697142999619,505.2008237000555,None,505.2008237000555,None,505.2008237000555,None,505.2008237000555,None,505.2008237000555,None,505.2008237000555,None,505.2008237000555,None,505.2008237000555,None,505.2008237000555,None,67,65,73,44,67,44,507.72201380017214,None,6.0,0.44872310012578964,507.72201380017214,None,507.72201380017214,None,507.72201380017214,None,507.72201380017214,None,None,None,508.18808360002004,None,,,,,,,145,f,1,2022_Dec_13_1800,RL,2021.2.3,59.944203873054235,
1,47,0,47,0,,,,,,,,,,,,,,,None,None,None,None,None,509.84338170010597,None,509.84338170010597,None,509.84338170010597,None,509.84338170010597,None,r,0.31392830004915595,509.84338170010597,None,509.84338170010597,None,510.1960362000391,None,510.1960362000391,None,510.1960362000391,None,510.1960362000391,None,510.1960362000391,None,510.1960362000391,None,510.47341189999133,512.3913873999845,510.47341189999133,512.3913873999845,512.4286307999864,None,512.4286307999864,None,512.4286307999864,None,512.4286307999864,None,512.4286307999864,None,512.4286307999864,None,512.4286307999864,None,512.4286307999864,None,512.4286307999864,None,67,68,69,36,67,54,514.939845800167,None,6.0,0.9384358001407236,514.939845800167,None,514.939845800167,None,514.939845800167,None,514.939845800167,None,None,None,515.8934757001698,None,,,,,,,145,f,1,2022_Dec_13_1800,RL,2021.2.3,59.944203873054235,
1,48,0,48,0,,,,,,,,,,,,,,,None,None,None,None,None,517.4480951000005,None,517.4480951000005,None,517.4480951000005,None,517.4480951000005,None,r,0.4592639999464154,517.4480951000005,None,517.4480951000005,None,517.950890300097,None,517.950890300097,None,517.950890300097,None,517.950890300097,None,517.950890300097,None,517.950890300097,None,518.2456819999497,None,518.2456819999497,None,519.1290283000562,None,519.1290283000562,None,519.1290283000562,None,519.1290283000562,None,519.1290283000562,None,519.1290283000562,None,519.1290283000562,None,519.1290283000562,None,519.1290283000562,None,72,80,69,38,72,42,521.643734900048,None,7.0,0.7380538999568671,521.643734900048,None,521.643734900048,None,521.643734900048,None,521.643734900048,None,None,None,522.4031212001573,None,,,,,,,145,f,1,2022_Dec_13_1800,RL,2021.2.3,59.944203873054235,
1,49,0,49,0,,,,,,,,,,,,,,,None,None,None,None,None,524.1359623000026,None,524.1359623000026,None,524.1359623000026,None,524.1359623000026,None,r,0.4412114000879228,524.1359623000026,None,524.1359623000026,None,524.6229873001575,None,524.6229873001575,None,524.6229873001575,None,524.6229873001575,None,524.6229873001575,None,524.6229873001575,None,524.916954500135,526.6681139001157,524.916954500135,526.6681139001157,526.6981715001166,None,526.6981715001166,None,526.6981715001166,None,526.6981715001166,None,526.6981715001166,None,526.6981715001166,None,526.6981715001166,None,526.6981715001166,None,526.6981715001166,None,64,71,65,42,64,40,529.2171704999637,None,6.0,0.7712407000362873,529.2171704999637,None,529.2171704999637,None,529.2171704999637,None,529.2171704999637,None,None,None,530.0107655001339,None,,,,,,,145,f,1,2022_Dec_13_1800,RL,2021.2.3,59.944203873054235,
1,50,0,50,0,,,,,,,,,,,,,,,None,None,None,None,None,531.7412841999903,None,531.7412841999903,None,531.7412841999903,None,531.7412841999903,None,r,0.41582260001450777,531.7412841999903,None,531.7412841999903,None,532.2099709999748,None,532.2099709999748,None,532.2099709999748,None,532.2099709999748,None,532.2099709999748,None,532.2099709999748,None,532.5054005000275,533.5226827000733,532.5054005000275,533.5226827000733,533.5544806001708,None,533.5544806001708,None,533.5544806001708,None,533.5544806001708,None,533.5544806001708,None,533.5544806001708,None,533.5544806001708,None,533.5544806001708,None,533.5544806001708,None,72,69,73,50,72,42,536.0700855001342,None,7.0,0.7545626000501215,536.0700855001342,None,536.0700855001342,None,536.0700855001342,None,536.0700855001342,None,None,None,536.8412995000836,None,,,,,,,145,f,1,2022_Dec_13_1800,RL,2021.2.3,59.944203873054235,
1,51,0,51,0,,,,,,,,,,,,,,,None,None,None,None,None,538.5454027999658,None,538.5454027999658,None,538.5454027999658,None,538.5454027999658,None,r,0.4318475998006761,538.5454027999658,None,538.5454027999658,None,539.0153573001735,None,539.0153573001735,None,539.0153573001735,None,539.0153573001735,None,539.0153573001735,None,539.0153573001735,None,539.3102080000099,None,539.3102080000099,None,540.4078198999632,None,540.4078198999632,None,540.4078198999632,None,540.4078198999632,None,540.4078198999632,None,540.4078198999632,None,540.4078198999632,None,540.4078198999632,None,540.4078198999632,None,79,63,69,40,79,53,542.9277582999784,None,7.0,1.117840699851513,542.9277582999784,None,542.9277582999784,None,542.9277582999784,None,542.9277582999784,None,None,None,544.0626735000405,None,,,,,,,145,f,1,2022_Dec_13_1800,RL,2021.2.3,59.944203873054235,
1,52,0,52,0,,,,,,,,,,,,,,,None,None,None,None,None,545.9352460999507,None,545.9352460999507,None,545.9352460999507,None,545.9352460999507,None,r,0.5617152999620885,545.9352460999507,None,545.9352460999507,None,546.5373564001638,None,546.5373564001638,None,546.5373564001638,None,546.5373564001638,None,546.5373564001638,None,546.5373564001638,None,546.8319836000446,None,546.8319836000446,None,548.3293461001012,None,548.3293461001012,None,548.3293461001012,None,548.3293461001012,None,548.3293461001012,None,548.3293461001012,None,548.3293461001012,None,548.3293461001012,None,548.3293461001012,None,76,76,72,34,76,43,550.8489841001574,None,7.0,0.988870200002566,550.8489841001574,None,550.8489841001574,None,550.8489841001574,None,550.8489841001574,None,None,None,551.8516383999959,None,,,,,,,145,f,1,2022_Dec_13_1800,RL,2021.2.3,59.944203873054235,
1,53,0,53,0,,,,,,,,,,,,,,,None,None,None,None,None,553.6062356000766,None,553.6062356000766,None,553.6062356000766,None,553.6062356000766,None,r,0.38134069996885955,553.6062356000766,None,553.6062356000766,None,554.0267320000567,None,554.0267320000567,None,554.0267320000567,None,554.0267320000567,None,554.0267320000567,None,554.0267320000567,None,554.3205276001245,None,554.3205276001245,None,556.1714629000053,None,556.1714629000053,None,556.1714629000053,None,556.1714629000053,None,556.1714629000053,None,556.1714629000053,None,556.1714629000053,None,556.1714629000053,None,556.1714629000053,None,63,82,66,32,63,40,558.6870778000448,None,6.0,1.6064772999379784,558.6870778000448,None,558.6870778000448,None,558.6870778000448,None,558.6870778000448,None,None,None,560.3083129001316,None,,,,,,,145,f,1,2022_Dec_13_1800,RL,2021.2.3,59.944203873054235,
1,54,0,54,0,,,,,,,,,,,,,,,None,None,None,None,None,561.862074200064,None,561.862074200064,None,561.862074200064,None,561.862074200064,None,r,0.3153874999843538,561.862074200064,None,561.862074200064,None,562.236904800171,None,562.236904800171,None,562.236904800171,None,562.236904800171,None,562.236904800171,None,562.236904800171,None,562.5261966001708,None,562.5261966001708,None,563.9559263000265,None,563.9559263000265,None,563.9559263000265,None,563.9559263000265,None,563.9559263000265,None,563.9559263000265,None,563.9559263000265,None,563.9559263000265,None,563.9559263000265,None,62,80,65,42,62,47,566.4743266999722,None,7.0,0.956472699996084,566.4743266999722,None,566.4743266999722,None,566.4743266999722,None,566.4743266999722,None,None,None,567.4459880001377,None,,,,,,,145,f,1,2022_Dec_13_1800,RL,2021.2.3,59.944203873054235,
1,55,0,55,0,,,,,,,,,,,,,,,None,None,None,None,None,569.0998953999951,None,569.0998953999951,None,569.0998953999951,None,569.0998953999951,None,r,0.5875798999331892,569.0998953999951,None,569.0998953999951,None,569.741387499962,None,569.741387499962,None,569.741387499962,None,569.741387499962,None,569.741387499962,None,569.741387499962,None,570.0315233999863,None,570.0315233999863,None,571.1624618000351,None,571.1624618000351,None,571.1624618000351,None,571.1624618000351,None,571.1624618000351,None,571.1624618000351,None,571.1624618000351,None,571.1624618000351,None,571.1624618000351,None,70,75,73,46,70,40,573.6850756001659,None,7.0,0.7677355001214892,573.6850756001659,None,573.6850756001659,None,573.6850756001659,None,573.6850756001659,None,None,None,574.4675189000554,None,,,,,,,145,f,1,2022_Dec_13_1800,RL,2021.2.3,59.944203873054235,
1,56,0,56,0,,,,,,,,,,,,,,,None,None,None,None,None,576.4720006000716,None,576.4720006000716,None,576.4720006000716,None,576.4720006000716,None,r,0.32556040002964437,576.4720006000716,None,576.4720006000716,None,576.839187100064,None,576.839187100064,None,576.839187100064,None,576.839187100064,None,576.839187100064,None,576.839187100064,None,577.1365233999677,None,577.1365233999677,None,578.4176350999624,None,578.4176350999624,None,578.4176350999624,None,578.4176350999624,None,578.4176350999624,None,578.4176350999624,None,578.4176350999624,None,578.4176350999624,None,578.4176350999624,None,73,79,68,44,73,27,580.9344812000636,None,7.0,0.5717568001709878,580.9344812000636,None,580.9344812000636,None,580.9344812000636,None,580.9344812000636,None,None,None,581.5221545000095,None,,,,,,,145,f,1,2022_Dec_13_1800,RL,2021.2.3,59.944203873054235,
1,57,0,57,0,,,,,,,,,,,,,,,None,None,None,None,None,583.4427523000631,None,583.4427523000631,None,583.4427523000631,None,583.4427523000631,None,r,0.32481010002084076,583.4427523000631,None,583.4427523000631,None,583.8172073999885,None,583.8172073999885,None,583.8172073999885,None,583.8172073999885,None,583.8172073999885,None,583.8172073999885,None,584.1081126001664,None,584.1081126001664,None,585.0556233001407,None,585.0556233001407,None,585.0556233001407,None,585.0556233001407,None,585.0556233001407,None,585.0556233001407,None,585.0556233001407,None,585.0556233001407,None,585.0556233001407,None,75,77,67,42,75,53,587.5740068999585,None,5.0,0.77228599996306,587.5740068999585,None,587.5740068999585,None,587.5740068999585,None,587.5740068999585,None,None,None,588.3682469001506,None,,,,,,,145,f,1,2022_Dec_13_1800,RL,2021.2.3,59.944203873054235,
1,58,0,58,0,,,,,,,,,,,,,,,None,None,None,None,None,589.9310002999846,None,589.9310002999846,None,589.9310002999846,None,589.9310002999846,None,r,0.42668400006368756,589.9310002999846,None,589.9310002999846,None,590.4018639000133,None,590.4018639000133,None,590.4018639000133,None,590.4018639000133,None,590.4018639000133,None,590.4018639000133,None,590.6957451000344,591.69638580014,590.6957451000344,591.69638580014,591.7281860001385,None,591.7281860001385,None,591.7281860001385,None,591.7281860001385,None,591.7281860001385,None,591.7281860001385,None,591.7281860001385,None,591.7281860001385,None,591.7281860001385,None,78,80,59,36,78,45,594.2456398000941,None,6.0,1.488490500021726,594.2456398000941,None,594.2456398000941,None,594.2456398000941,None,594.2456398000941,None,None,None,595.7486567001324,None,,,,,,,145,f,1,2022_Dec_13_1800,RL,2021.2.3,59.944203873054235,
1,59,0,59,0,,,,,,,,,,,,,,,None,None,None,None,None,597.6697362000123,None,597.6697362000123,None,597.6697362000123,None,597.6697362000123,None,r,0.6779610000085086,597.6697362000123,None,597.6697362000123,None,598.3886023000814,None,598.3886023000814,None,598.3886023000814,None,598.3886023000814,None,598.3886023000814,None,598.3886023000814,None,598.6846390999854,None,598.6846390999854,None,599.8023801001254,None,599.8023801001254,None,599.8023801001254,None,599.8023801001254,None,599.8023801001254,None,599.8023801001254,None,599.8023801001254,None,599.8023801001254,None,599.8023801001254,None,77,75,55,42,77,41,602.3150985001121,None,7.0,1.585662700003013,602.3150985001121,None,602.3150985001121,None,602.3150985001121,None,602.3150985001121,None,None,None,603.9268225999549,None,,,,,,,145,f,1,2022_Dec_13_1800,RL,2021.2.3,59.944203873054235,
1,60,0,60,0,,,,,,,,,,,,,,,None,None,None,None,None,605.4757928000763,None,605.4757928000763,None,605.4757928000763,None,605.4757928000763,None,r,0.7618263999465853,605.4757928000763,None,605.4757928000763,None,606.2795843000058,None,606.2795843000058,None,606.2795843000058,None,606.2795843000058,None,606.2795843000058,None,606.2795843000058,None,606.5734682001639,None,606.5734682001639,None,608.1441428000107,None,608.1441428000107,None,608.1441428000107,None,608.1441428000107,None,608.1441428000107,None,608.1441428000107,None,608.1441428000107,None,608.1441428000107,None,608.1441428000107,None,85,75,54,28,85,45,610.6555665000342,None,7.0,1.2216685998719186,610.6555665000342,None,610.6555665000342,None,610.6555665000342,None,610.6555665000342,None,None,None,611.8937238999642,None,,,,,,,145,f,1,2022_Dec_13_1800,RL,2021.2.3,59.944203873054235,
1,61,0,61,0,,,,,,,,,,,,,,,None,None,None,None,None,613.7644609999843,None,613.7644609999843,None,613.7644609999843,None,613.7644609999843,None,r,0.4332781999837607,613.7644609999843,None,613.7644609999843,None,614.2490420001559,None,614.2490420001559,None,614.2490420001559,None,614.2490420001559,None,614.2490420001559,None,614.2490420001559,None,614.5456582000479,None,614.5456582000479,None,616.4751800000668,None,616.4751800000668,None,616.4751800000668,None,616.4751800000668,None,616.4751800000668,None,616.4751800000668,None,616.4751800000668,None,616.4751800000668,None,616.4751800000668,None,78,71,53,33,78,44,618.9940533000045,None,7.0,0.6401742999441922,618.9940533000045,None,618.9940533000045,None,618.9940533000045,None,618.9940533000045,None,None,None,619.6486456999555,None,,,,,,,145,f,1,2022_Dec_13_1800,RL,2021.2.3,59.944203873054235,
1,62,0,62,0,,,,,,,,,,,,,,,None,None,None,None,None,621.5699098000769,None,621.5699098000769,None,621.5699098000769,None,621.5699098000769,None,r,0.3379357000812888,621.5699098000769,None,621.5699098000769,None,621.9610632001422,None,621.9610632001422,None,621.9610632001422,None,621.9610632001422,None,621.9610632001422,None,621.9610632001422,None,622.2509510000236,624.0519596000668,622.2509510000236,624.0519596000668,624.084831800079,None,624.084831800079,None,624.084831800079,None,624.084831800079,None,624.084831800079,None,624.084831800079,None,624.084831800079,None,624.084831800079,None,624.084831800079,None,83,71,59,29,83,44,626.6008717999794,None,5.0,0.8545649999286979,626.6008717999794,None,626.6008717999794,None,626.6008717999794,None,626.6008717999794,None,None,None,627.4706540999468,None,,,,,,,145,f,1,2022_Dec_13_1800,RL,2021.2.3,59.944203873054235,
1,63,0,63,0,,,,,,,,,,,,,,,None,None,None,None,None,629.4756647001486,None,629.4756647001486,None,629.4756647001486,None,629.4756647001486,None,r,0.4421198000200093,629.4756647001486,None,629.4756647001486,None,629.9613942999858,None,629.9613942999858,None,629.9613942999858,None,629.9613942999858,None,629.9613942999858,None,629.9613942999858,None,630.2564417000394,None,630.2564417000394,None,632.1548242000863,None,632.1548242000863,None,632.1548242000863,None,632.1548242000863,None,632.1548242000863,None,632.1548242000863,None,632.1548242000863,None,632.1548242000863,None,632.1548242000863,None,86,68,58,34,86,46,634.6731209000573,None,7.0,1.75440390012227,634.6731209000573,None,634.6731209000573,None,634.6731209000573,None,634.6731209000573,None,None,None,636.4435374999885,None,,,,,,,145,f,1,2022_Dec_13_1800,RL,2021.2.3,59.944203873054235,
1,64,0,64,0,,,,,,,,,,,,,,,None,None,None,None,None,638.2815252,None,638.2815252,None,638.2815252,None,638.2815252,None,r,0.6462725000455976,638.2815252,None,638.2815252,None,638.9691165001132,None,638.9691165001132,None,638.9691165001132,None,638.9691165001132,None,638.9691165001132,None,638.9691165001132,None,639.2626317001414,None,639.2626317001414,None,640.1768535999581,None,640.1768535999581,None,640.1768535999581,None,640.1768535999581,None,640.1768535999581,None,640.1768535999581,None,640.1768535999581,None,640.1768535999581,None,640.1768535999581,None,87,69,58,16,87,45,642.6941412000451,None,6.0,1.139400899875909,642.6941412000451,None,642.6941412000451,None,642.6941412000451,None,642.6941412000451,None,None,None,643.8487697001547,None,,,,,,,145,f,1,2022_Dec_13_1800,RL,2021.2.3,59.944203873054235,
1,65,0,65,0,,,,,,,,,,,,,,,None,None,None,None,None,645.6870256999973,None,645.6870256999973,None,645.6870256999973,None,645.6870256999973,None,r,0.34086519991979003,645.6870256999973,None,645.6870256999973,None,646.0722753000446,None,646.0722753000446,None,646.0722753000446,None,646.0722753000446,None,646.0722753000446,None,646.0722753000446,None,646.3676661001518,648.15237110015,646.3676661001518,648.15237110015,648.1840639000293,None,648.1840639000293,None,648.1840639000293,None,648.1840639000293,None,648.1840639000293,None,648.1840639000293,None,648.1840639000293,None,648.1840639000293,None,648.1840639000293,None,77,65,63,22,77,43,650.7066343000624,None,6.0,1.3323719000909477,650.7066343000624,None,650.7066343000624,None,650.7066343000624,None,650.7066343000624,None,None,None,652.0608886999544,None,,,,,,,145,f,1,2022_Dec_13_1800,RL,2021.2.3,59.944203873054235,
1,66,0,66,0,,,,,,,,,,,,,,,None,None,None,None,None,653.7250687000342,None,653.7250687000342,None,653.7250687000342,None,653.7250687000342,None,r,0.4224175999406725,653.7250687000342,None,653.7250687000342,None,654.1945076000411,None,654.1945076000411,None,654.1945076000411,None,654.1945076000411,None,654.1945076000411,None,654.1945076000411,None,654.4898912999779,None,654.4898912999779,None,655.6705225999467,None,655.6705225999467,None,655.6705225999467,None,655.6705225999467,None,655.6705225999467,None,655.6705225999467,None,655.6705225999467,None,655.6705225999467,None,655.6705225999467,None,77,64,62,27,77,40,658.1904377001338,None,7.0,0.9862406998872757,658.1904377001338,None,658.1904377001338,None,658.1904377001338,None,658.1904377001338,None,None,None,659.192876300076,None,,,,,,,145,f,1,2022_Dec_13_1800,RL,2021.2.3,59.944203873054235,
1,67,0,67,0,,,,,,,,,,,,,,,None,None,None,None,None,660.9468998000957,None,660.9468998000957,None,660.9468998000957,None,660.9468998000957,None,r,0.2910104999318719,660.9468998000957,None,660.9468998000957,None,661.2827858000528,None,661.2827858000528,None,661.2827858000528,None,661.2827858000528,None,661.2827858000528,None,661.2827858000528,None,661.5782139999792,None,661.5782139999792,None,662.6412728000432,None,662.6412728000432,None,662.6412728000432,None,662.6412728000432,None,662.6412728000432,None,662.6412728000432,None,662.6412728000432,None,662.6412728000432,None,662.6412728000432,None,73,62,53,22,73,34,665.1587855999824,None,7.0,1.241423900006339,665.1587855999824,None,665.1587855999824,None,665.1587855999824,None,665.1587855999824,None,None,None,666.4218596001156,None,,,,,,,145,f,1,2022_Dec_13_1800,RL,2021.2.3,59.944203873054235,
1,68,0,68,0,,,,,,,,,,,,,,,None,None,None,None,None,668.0860572999809,None,668.0860572999809,None,668.0860572999809,None,668.0860572999809,None,r,0.4130255999043584,668.0860572999809,None,668.0860572999809,None,668.5422907001339,None,668.5422907001339,None,668.5422907001339,None,668.5422907001339,None,668.5422907001339,None,668.5422907001339,None,668.8335627000779,None,668.8335627000779,None,670.6508271000348,None,670.6508271000348,None,670.6508271000348,None,670.6508271000348,None,670.6508271000348,None,670.6508271000348,None,670.6508271000348,None,670.6508271000348,None,670.6508271000348,None,75,64,61,26,75,26,673.1663655999582,None,7.0,0.5367959998548031,673.1663655999582,None,673.1663655999582,None,673.1663655999582,None,673.1663655999582,None,None,None,673.7195042001549,None,,,,,,,145,f,1,2022_Dec_13_1800,RL,2021.2.3,59.944203873054235,
1,69,0,69,0,,,,,,,,,,,,,,,None,None,None,None,None,675.4574206001125,None,675.4574206001125,None,675.4574206001125,None,675.4574206001125,None,r,0.40159209980629385,675.4574206001125,None,675.4574206001125,None,675.9112756000832,None,675.9112756000832,None,675.9112756000832,None,675.9112756000832,None,675.9112756000832,None,675.9112756000832,None,676.1883650999516,677.7393531999551,676.1883650999516,677.7393531999551,677.7721309000626,None,677.7721309000626,None,677.7721309000626,None,677.7721309000626,None,677.7721309000626,None,677.7721309000626,None,677.7721309000626,None,677.7721309000626,None,677.7721309000626,None,71,70,65,20,71,49,680.2882825001143,None,6.0,0.5215380000881851,680.2882825001143,None,680.2882825001143,None,680.2882825001143,None,680.2882825001143,None,None,None,680.8310291001108,None,,,,,,,145,f,1,2022_Dec_13_1800,RL,2021.2.3,59.944203873054235,
1,70,0,70,0,,,,,,,,,,,,,,,None,None,None,None,None,682.7287247001659,None,682.7287247001659,None,682.7287247001659,None,682.7287247001659,None,r,0.6803566999733448,682.7287247001659,None,682.7287247001659,None,683.4468160001561,None,683.4468160001561,None,683.4468160001561,None,683.4468160001561,None,683.4468160001561,None,683.4468160001561,None,683.7437414000742,685.4279653001577,683.7437414000742,685.4279653001577,685.4626015000977,None,685.4626015000977,None,685.4626015000977,None,685.4626015000977,None,685.4626015000977,None,685.4626015000977,None,685.4626015000977,None,685.4626015000977,None,685.4626015000977,None,69,65,66,20,69,38,687.9751508000772,None,6.0,1.305721800075844,687.9751508000772,None,687.9751508000772,None,687.9751508000772,None,687.9751508000772,None,None,None,689.2970269001089,None,,,,,,,145,f,1,2022_Dec_13_1800,RL,2021.2.3,59.944203873054235,
1,71,0,71,0,,,,,,,,,,,,,,,None,None,None,None,None,690.8848282999825,None,690.8848282999825,None,690.8848282999825,None,690.8848282999825,None,None,,690.8848282999825,None,690.8848282999825,None,None,None,None,None,None,None,None,None,None,None,None,None,None,None,None,None,None,None,None,None,None,None,None,None,None,None,None,None,None,None,None,None,None,None,72,69,73,24,0,**,None,None,None,None,None,None,None,None,None,None,None,None,692.4410743000917,None,696.952261300059,None,,,,,,,145,f,1,2022_Dec_13_1800,RL,2021.2.3,59.944203873054235,
1,72,0,72,0,,,,,,,,,,,,,,,None,None,None,None,None,698.5569989001378,None,698.5569989001378,None,698.5569989001378,None,698.5569989001378,None,r,0.4723451999016106,698.5569989001378,None,698.5569989001378,None,699.0749503001571,None,699.0749503001571,None,699.0749503001571,None,699.0749503001571,None,699.0749503001571,None,699.0749503001571,None,699.3708595000207,None,699.3708595000207,None,701.0699297999963,None,701.0699297999963,None,701.0699297999963,None,701.0699297999963,None,701.0699297999963,None,701.0699297999963,None,701.0699297999963,None,701.0699297999963,None,701.0699297999963,None,70,78,68,26,70,29,703.5880987001583,None,7.0,1.1054747998714447,703.5880987001583,None,703.5880987001583,None,703.5880987001583,None,703.5880987001583,None,None,None,704.7111293000635,None,,,,,,,145,f,1,2022_Dec_13_1800,RL,2021.2.3,59.944203873054235,
1,73,0,73,0,,,,,,,,,,,,,,,None,None,None,None,None,706.4452569000423,None,706.4452569000423,None,706.4452569000423,None,706.4452569000423,None,r,0.3537796998862177,706.4452569000423,None,706.4452569000423,None,706.848322100006,None,706.848322100006,None,706.848322100006,None,706.848322100006,None,706.848322100006,None,706.848322100006,None,707.1430081001017,708.710782899987,707.1430081001017,708.710782899987,708.7423098001163,None,708.7423098001163,None,708.7423098001163,None,708.7423098001163,None,708.7423098001163,None,708.7423098001163,None,708.7423098001163,None,708.7423098001163,None,708.7423098001163,None,72,75,58,18,72,44,711.2579336999916,None,6.0,0.5876594001892954,711.2579336999916,None,711.2579336999916,None,711.2579336999916,None,711.2579336999916,None,None,None,711.8624919001013,None,,,,,,,145,f,1,2022_Dec_13_1800,RL,2021.2.3,59.944203873054235,
1,74,0,74,0,,,,,,,,,,,,,,,None,None,None,None,None,713.7004809000064,None,713.7004809000064,None,713.7004809000064,None,713.7004809000064,None,r,0.29848239989951253,713.7004809000064,None,713.7004809000064,None,714.0442047000397,None,714.0442047000397,None,714.0442047000397,None,714.0442047000397,None,714.0442047000397,None,714.0442047000397,None,714.331518100109,716.2493807000574,714.331518100109,716.2493807000574,716.2822581999935,None,716.2822581999935,None,716.2822581999935,None,716.2822581999935,None,716.2822581999935,None,716.2822581999935,None,716.2822581999935,None,716.2822581999935,None,716.2822581999935,None,67,75,64,16,67,42,718.7966473000124,None,6.0,1.2086227999534458,718.7966473000124,None,718.7966473000124,None,718.7966473000124,None,718.7966473000124,None,None,None,720.0200501000509,None,,,,,,,145,f,1,2022_Dec_13_1800,RL,2021.2.3,59.944203873054235,
1,75,0,75,0,,,,,,,,,,,,,,,721.8864248001482,None,q,721.8864248001482,None,916.6413553999737,None,916.6413553999737,None,916.6413553999737,None,916.6413553999737,None,i,0.9949648999609053,916.6413553999737,None,916.6413553999737,None,917.6781246000901,None,917.6781246000901,None,917.6781246000901,None,917.6781246000901,None,917.6781246000901,None,917.6781246000901,None,917.9725834000856,919.9738372000866,917.9725834000856,919.9738372000866,920.0057957000099,None,920.0057957000099,None,920.0057957000099,None,920.0057957000099,None,920.0057957000099,None,920.0057957000099,None,920.0057957000099,None,920.0057957000099,None,920.0057957000099,None,76,65,59,22,59,44,922.5223275001626,None,6.0,1.6539062999654561,922.5223275001626,None,922.5223275001626,None,922.5223275001626,None,922.5223275001626,None,None,None,924.1930808001198,None,194.73198100016452,,,,,,145,f,1,2022_Dec_13_1800,RL,2021.2.3,59.944203873054235,
1,76,0,76,0,,,,,,,,,,,,,,,None,None,None,None,None,925.8143220001366,None,925.8143220001366,None,925.8143220001366,None,925.8143220001366,None,i,0.3921095000114292,925.8143220001366,None,925.8143220001366,None,926.2521927000489,None,926.2521927000489,None,926.2521927000489,None,926.2521927000489,None,926.2521927000489,None,926.2521927000489,None,926.5286116001662,927.5623870000709,926.5286116001662,927.5623870000709,927.5942172999494,None,927.5942172999494,None,927.5942172999494,None,927.5942172999494,None,927.5942172999494,None,927.5942172999494,None,927.5942172999494,None,927.5942172999494,None,927.5942172999494,None,64,63,60,23,60,44,930.1099982000887,None,6.0,1.2051923999097198,930.1099982000887,None,930.1099982000887,None,930.1099982000887,None,930.1099982000887,None,None,None,931.3318366999738,None,,,,,,,145,f,1,2022_Dec_13_1800,RL,2021.2.3,59.944203873054235,
1,77,0,77,0,,,,,,,,,,,,,,,None,None,None,None,None,933.2701580000576,None,933.2701580000576,None,933.2701580000576,None,933.2701580000576,None,r,0.6062164998147637,933.2701580000576,None,933.2701580000576,None,933.9178300001658,None,933.9178300001658,None,933.9178300001658,None,933.9178300001658,None,933.9178300001658,None,933.9178300001658,None,934.2172265001573,None,934.2172265001573,None,936.0655433000065,None,936.0655433000065,None,936.0655433000065,None,936.0655433000065,None,936.0655433000065,None,936.0655433000065,None,936.0655433000065,None,936.0655433000065,None,936.0655433000065,None,63,57,64,33,63,48,938.5829459000379,None,6.0,1.3215873998124152,938.5829459000379,None,938.5829459000379,None,938.5829459000379,None,938.5829459000379,None,None,None,939.9209370999597,None,,,,,,,145,f,1,2022_Dec_13_1800,RL,2021.2.3,59.944203873054235,
1,78,0,78,0,,,,,,,,,,,,,,,None,None,None,None,None,941.6753434999846,None,941.6753434999846,None,941.6753434999846,None,941.6753434999846,None,r,0.5315163999330252,941.6753434999846,None,941.6753434999846,None,942.2440895000473,None,942.2440895000473,None,942.2440895000473,None,942.2440895000473,None,942.2440895000473,None,942.2440895000473,None,942.5398872001097,None,942.5398872001097,None,944.4715395001695,None,944.4715395001695,None,944.4715395001695,None,944.4715395001695,None,944.4715395001695,None,944.4715395001695,None,944.4715395001695,None,944.4715395001695,None,944.4715395001695,None,60,60,67,34,60,49,946.9958949000575,None,6.0,1.5500817000865936,946.9958949000575,None,946.9958949000575,None,946.9958949000575,None,946.9958949000575,None,None,None,948.5621090000495,None,,,,,,,145,f,1,2022_Dec_13_1800,RL,2021.2.3,59.944203873054235,
1,79,0,79,0,,,,,,,,,,,,,,,None,None,None,None,None,950.3645731001161,None,950.3645731001161,None,950.3645731001161,None,950.3645731001161,None,i,0.5621440000832081,950.3645731001161,None,950.3645731001161,None,950.9682128999848,None,950.9682128999848,None,950.9682128999848,None,950.9682128999848,None,950.9682128999848,None,950.9682128999848,None,951.262522000121,None,951.262522000121,None,953.0163215000648,None,953.0163215000648,None,953.0163215000648,None,953.0163215000648,None,953.0163215000648,None,953.0163215000648,None,953.0163215000648,None,953.0163215000648,None,953.0163215000648,None,63,54,67,28,67,47,955.5259086999577,None,6.0,1.5081146999727935,955.5259086999577,None,955.5259086999577,None,955.5259086999577,None,955.5259086999577,None,None,None,957.0496044000611,None,,,,,,,145,f,1,2022_Dec_13_1800,RL,2021.2.3,59.944203873054235,
1,80,0,80,0,,,,,,,,,,,,,,,None,None,None,None,None,958.8044054000638,None,958.8044054000638,None,958.8044054000638,None,958.8044054000638,None,i,1.102031100075692,958.8044054000638,None,958.8044054000638,None,959.9572477000766,None,959.9572477000766,None,959.9572477000766,None,959.9572477000766,None,959.9572477000766,None,959.9572477000766,None,960.2519930000417,962.103130799951,960.2519930000417,962.103130799951,962.1330139001366,None,962.1330139001366,None,962.1330139001366,None,962.1330139001366,None,962.1330139001366,None,962.1330139001366,None,962.1330139001366,None,962.1330139001366,None,962.1330139001366,None,74,59,58,15,58,28,964.6500602001324,None,6.0,1.639536299975589,964.6500602001324,None,964.6500602001324,None,964.6500602001324,None,964.6500602001324,None,None,None,966.3153236999642,None,,,,,,,145,f,1,2022_Dec_13_1800,RL,2021.2.3,59.944203873054235,
1,81,0,81,0,,,,,,,,,,,,,,,None,None,None,None,None,968.1768889999948,None,968.1768889999948,None,968.1768889999948,None,968.1768889999948,None,i,0.4196983000729233,968.1768889999948,None,968.1768889999948,None,968.6488302000798,None,968.6488302000798,None,968.6488302000798,None,968.6488302000798,None,968.6488302000798,None,968.6488302000798,None,968.9412096999586,None,968.9412096999586,None,970.3914314000867,None,970.3914314000867,None,970.3914314000867,None,970.3914314000867,None,970.3914314000867,None,970.3914314000867,None,970.3914314000867,None,970.3914314000867,None,970.3914314000867,None,66,58,68,16,68,49,972.9113636000548,None,6.0,0.9364430999848992,972.9113636000548,None,972.9113636000548,None,972.9113636000548,None,972.9113636000548,None,None,None,973.8617881999817,None,,,,,,,145,f,1,2022_Dec_13_1800,RL,2021.2.3,59.944203873054235,
1,82,0,82,0,,,,,,,,,,,,,,,None,None,None,None,None,975.7827912999783,None,975.7827912999783,None,975.7827912999783,None,975.7827912999783,None,i,0.34381510014645755,975.7827912999783,None,975.7827912999783,None,976.1694865999743,None,976.1694865999743,None,976.1694865999743,None,976.1694865999743,None,976.1694865999743,None,976.1694865999743,None,976.4632007000037,978.3810103000142,976.4632007000037,978.3810103000142,978.4117411000188,None,978.4117411000188,None,978.4117411000188,None,978.4117411000188,None,978.4117411000188,None,978.4117411000188,None,978.4117411000188,None,978.4117411000188,None,978.4117411000188,None,66,55,73,26,73,28,980.9286257999483,None,7.0,0.6538949999958277,980.9286257999483,None,980.9286257999483,None,980.9286257999483,None,980.9286257999483,None,None,None,981.6050351001322,None,,,,,,,145,f,1,2022_Dec_13_1800,RL,2021.2.3,59.944203873054235,
1,83,0,83,0,,,,,,,,,,,,,,,None,None,None,None,None,983.6045898001175,None,983.6045898001175,None,983.6045898001175,None,983.6045898001175,None,i,0.3521710999775678,983.6045898001175,None,983.6045898001175,None,984.0078625001479,None,984.0078625001479,None,984.0078625001479,None,984.0078625001479,None,984.0078625001479,None,984.0078625001479,None,984.3018388999626,None,984.3018388999626,None,986.1376553000882,None,986.1376553000882,None,986.1376553000882,None,986.1376553000882,None,986.1376553000882,None,986.1376553000882,None,986.1376553000882,None,986.1376553000882,None,986.1376553000882,None,67,59,63,20,63,67,988.6533185001463,None,4.0,1.0526670999825,988.6533185001463,None,988.6533185001463,None,988.6533185001463,None,988.6533185001463,None,None,None,989.7217805001419,None,,,,,,,145,f,1,2022_Dec_13_1800,RL,2021.2.3,59.944203873054235,
1,84,0,84,0,,,,,,,,,,,,,,,None,None,None,None,None,991.4596588001586,None,991.4596588001586,None,991.4596588001586,None,991.4596588001586,None,r,0.5171225001104176,991.4596588001586,None,991.4596588001586,None,992.0335297000129,None,992.0335297000129,None,992.0335297000129,None,992.0335297000129,None,992.0335297000129,None,992.0335297000129,None,992.3243732999545,993.5083417999558,992.3243732999545,993.5083417999558,993.5416725000832,None,993.5416725000832,None,993.5416725000832,None,993.5416725000832,None,993.5416725000832,None,993.5416725000832,None,993.5416725000832,None,993.5416725000832,None,993.5416725000832,None,64,55,70,31,64,26,996.0555021001492,None,6.0,0.7873219000175595,996.0555021001492,None,996.0555021001492,None,996.0555021001492,None,996.0555021001492,None,None,None,996.860569700133,None,,,,,,,145,f,1,2022_Dec_13_1800,RL,2021.2.3,59.944203873054235,
1,85,0,85,0,,,,,,,,,,,,,,,None,None,None,None,None,998.4314468000084,None,998.4314468000084,None,998.4314468000084,None,998.4314468000084,None,r,0.5048603999894112,998.4314468000084,None,998.4314468000084,None,998.9838535001036,None,998.9838535001036,None,998.9838535001036,None,998.9838535001036,None,998.9838535001036,None,998.9838535001036,None,999.278915700037,None,999.278915700037,None,1000.3593850999605,None,1000.3593850999605,None,1000.3593850999605,None,1000.3593850999605,None,1000.3593850999605,None,1000.3593850999605,None,1000.3593850999605,None,1000.3593850999605,None,1000.3593850999605,None,69,58,75,34,69,41,1002.8782606001478,None,6.0,0.9053214001469314,1002.8782606001478,None,1002.8782606001478,None,1002.8782606001478,None,1002.8782606001478,None,None,None,1003.7982568000443,None,,,,,,,145,f,1,2022_Dec_13_1800,RL,2021.2.3,59.944203873054235,
1,86,0,86,0,,,,,,,,,,,,,,,None,None,None,None,None,1005.3522469000891,None,1005.3522469000891,None,1005.3522469000891,None,1005.3522469000891,None,r,0.5839509000070393,1005.3522469000891,None,1005.3522469000891,None,1005.9813797001261,None,1005.9813797001261,None,1005.9813797001261,None,1005.9813797001261,None,1005.9813797001261,None,1005.9813797001261,None,1006.2670469000004,1007.3180674000178,1006.2670469000004,1007.3180674000178,1007.3515378001612,None,1007.3515378001612,None,1007.3515378001612,None,1007.3515378001612,None,1007.3515378001612,None,1007.3515378001612,None,1007.3515378001612,None,1007.3515378001612,None,1007.3515378001612,None,70,52,68,31,70,48,1009.8671492000576,None,7.0,0.7523581997957081,1009.8671492000576,None,1009.8671492000576,None,1009.8671492000576,None,1009.8671492000576,None,None,None,1010.6363956001587,None,,,,,,,145,f,1,2022_Dec_13_1800,RL,2021.2.3,59.944203873054235,
1,87,0,87,0,,,,,,,,,,,,,,,None,None,None,None,None,1012.3622403000481,None,1012.3622403000481,None,1012.3622403000481,None,1012.3622403000481,None,r,0.5948032001033425,1012.3622403000481,None,1012.3622403000481,None,1013.0155404000543,None,1013.0155404000543,None,1013.0155404000543,None,1013.0155404000543,None,1013.0155404000543,None,1013.0155404000543,None,1013.3053713999689,1015.2565308001358,1013.3053713999689,1015.2565308001358,1015.2918948000297,None,1015.2918948000297,None,1015.2918948000297,None,1015.2918948000297,None,1015.2918948000297,None,1015.2918948000297,None,1015.2918948000297,None,1015.2918948000297,None,1015.2918948000297,None,68,53,72,28,68,46,1017.8049769001082,None,6.0,0.7028091000393033,1017.8049769001082,None,1017.8049769001082,None,1017.8049769001082,None,1017.8049769001082,None,None,None,1018.5251958000008,None,,,,,,,145,f,1,2022_Dec_13_1800,RL,2021.2.3,59.944203873054235,
1,88,0,88,0,,,,,,,,,,,,,,,None,None,None,None,None,1020.1455197001342,None,1020.1455197001342,None,1020.1455197001342,None,1020.1455197001342,None,r,0.9711647001095116,1020.1455197001342,None,1020.1455197001342,None,1021.165445700055,None,1021.165445700055,None,1021.165445700055,None,1021.165445700055,None,1021.165445700055,None,1021.165445700055,None,1021.4609271001536,None,1021.4609271001536,None,1023.150494400179,None,1023.150494400179,None,1023.150494400179,None,1023.150494400179,None,1023.150494400179,None,1023.150494400179,None,1023.150494400179,None,1023.150494400179,None,1023.150494400179,None,65,63,73,20,65,51,1025.6786436999682,None,5.0,0.6045939000323415,1025.6786436999682,None,1025.6786436999682,None,1025.6786436999682,None,1025.6786436999682,None,None,None,1026.3078640000895,None,,,,,,,145,f,1,2022_Dec_13_1800,RL,2021.2.3,59.944203873054235,
1,89,0,89,0,,,,,,,,,,,,,,,None,None,None,None,None,1027.9853566000238,None,1027.9853566000238,None,1027.9853566000238,None,1027.9853566000238,None,r,0.6417851999867707,1027.9853566000238,None,1027.9853566000238,None,1028.6717260000296,None,1028.6717260000296,None,1028.6717260000296,None,1028.6717260000296,None,1028.6717260000296,None,1028.6717260000296,None,1028.9661898999475,None,1028.9661898999475,None,1030.6781202000566,None,1030.6781202000566,None,1030.6781202000566,None,1030.6781202000566,None,1030.6781202000566,None,1030.6781202000566,None,1030.6781202000566,None,1030.6781202000566,None,1030.6781202000566,None,63,65,64,34,63,55,1033.1987668001093,None,5.0,1.307931800140068,1033.1987668001093,None,1033.1987668001093,None,1033.1987668001093,None,1033.1987668001093,None,None,None,1034.5231741999742,None,,,,,,,145,f,1,2022_Dec_13_1800,RL,2021.2.3,59.944203873054235,
1,90,0,90,0,,,,,,,,,,,,,,,None,None,None,None,None,1036.1740463001188,None,1036.1740463001188,None,1036.1740463001188,None,1036.1740463001188,None,r,0.5831216999795288,1036.1740463001188,None,1036.1740463001188,None,1036.8103952000383,None,1036.8103952000383,None,1036.8103952000383,None,1036.8103952000383,None,1036.8103952000383,None,1036.8103952000383,None,1037.1051853999961,1038.205747900065,1037.1051853999961,1038.205747900065,1038.2366188000888,None,1038.2366188000888,None,1038.2366188000888,None,1038.2366188000888,None,1038.2366188000888,None,1038.2366188000888,None,1038.2366188000888,None,1038.2366188000888,None,1038.2366188000888,None,66,55,67,37,66,53,1040.7527220000047,None,5.0,1.2231352999806404,1040.7527220000047,None,1040.7527220000047,None,1040.7527220000047,None,1040.7527220000047,None,None,None,1041.9935322999954,None,,,,,,,145,f,1,2022_Dec_13_1800,RL,2021.2.3,59.944203873054235,
1,91,0,91,0,,,,,,,,,,,,,,,None,None,None,None,None,1043.546229199972,None,1043.546229199972,None,1043.546229199972,None,1043.546229199972,None,r,1.2418283999431878,1043.546229199972,None,1043.546229199972,None,1044.8336445000023,None,1044.8336445000023,None,1044.8336445000023,None,1044.8336445000023,None,1044.8336445000023,None,1044.8336445000023,None,1045.1276070000604,None,1045.1276070000604,None,1046.3404340001289,None,1046.3404340001289,None,1046.3404340001289,None,1046.3404340001289,None,1046.3404340001289,None,1046.3404340001289,None,1046.3404340001289,None,1046.3404340001289,None,1046.3404340001289,None,67,51,70,23,67,27,1048.86177580012,None,7.0,0.870018299901858,1048.86177580012,None,1048.86177580012,None,1048.86177580012,None,1048.86177580012,None,None,None,1049.746838600142,None,,,,,,,145,f,1,2022_Dec_13_1800,RL,2021.2.3,59.944203873054235,
1,92,0,92,0,,,,,,,,,,,,,,,None,None,None,None,None,1051.500875200145,None,1051.500875200145,None,1051.500875200145,None,1051.500875200145,None,r,0.40740719996392727,1051.500875200145,None,1051.500875200145,None,1051.9558757999912,None,1051.9558757999912,None,1051.9558757999912,None,1051.9558757999912,None,1051.9558757999912,None,1051.9558757999912,None,1052.23212280008,1053.7667972999625,1052.23212280008,1053.7667972999625,1053.7986257001758,None,1053.7986257001758,None,1053.7986257001758,None,1053.7986257001758,None,1053.7986257001758,None,1053.7986257001758,None,1053.7986257001758,None,1053.7986257001758,None,1053.7986257001758,None,75,58,70,48,75,68,1056.3138449001126,None,6.0,0.6543980001006275,1056.3138449001126,None,1056.3138449001126,None,1056.3138449001126,None,1056.3138449001126,None,None,None,1056.9855274001602,None,,,,,,,145,f,1,2022_Dec_13_1800,RL,2021.2.3,59.944203873054235,
1,93,0,93,0,,,,,,,,,,,,,,,None,None,None,None,None,1058.939348099986,None,1058.939348099986,None,1058.939348099986,None,1058.939348099986,None,i,0.6189898001030087,1058.939348099986,None,1058.939348099986,None,1059.6087828001473,None,1059.6087828001473,None,1059.6087828001473,None,1059.6087828001473,None,1059.6087828001473,None,1059.6087828001473,None,1059.9043567001354,None,1059.9043567001354,None,1060.9685510001145,None,1060.9685510001145,None,1060.9685510001145,None,1060.9685510001145,None,1060.9685510001145,None,1060.9685510001145,None,1060.9685510001145,None,1060.9685510001145,None,1060.9685510001145,None,72,47,65,35,65,54,1063.486051300075,None,6.0,1.287339000031352,1063.486051300075,None,1063.486051300075,None,1063.486051300075,None,1063.486051300075,None,None,None,1064.7907279001083,None,,,,,,,145,f,1,2022_Dec_13_1800,RL,2021.2.3,59.944203873054235,
1,94,0,94,0,,,,,,,,,,,,,,,None,None,None,None,None,1066.5954375001602,None,1066.5954375001602,None,1066.5954375001602,None,1066.5954375001602,None,r,0.3633196000009775,1066.5954375001602,None,1066.5954375001602,None,1066.997462600004,None,1066.997462600004,None,1066.997462600004,None,1066.997462600004,None,1066.997462600004,None,1066.997462600004,None,1067.2927066001575,None,1067.2927066001575,None,1068.5918489999603,None,1068.5918489999603,None,1068.5918489999603,None,1068.5918489999603,None,1068.5918489999603,None,1068.5918489999603,None,1068.5918489999603,None,1068.5918489999603,None,1068.5918489999603,None,61,41,59,41,61,37,1071.1161173,None,7.0,1.2978514998685569,1071.1161173,None,1071.1161173,None,1071.1161173,None,1071.1161173,None,None,None,1072.4295210000128,None,,,,,,,145,f,1,2022_Dec_13_1800,RL,2021.2.3,59.944203873054235,
1,95,0,95,0,,,,,,,,,,,,,,,None,None,None,None,None,1074.1171236999799,None,1074.1171236999799,None,1074.1171236999799,None,1074.1171236999799,None,r,0.4211078002117574,1074.1171236999799,None,1074.1171236999799,None,1074.5857414000202,None,1074.5857414000202,None,1074.5857414000202,None,1074.5857414000202,None,1074.5857414000202,None,1074.5857414000202,None,1074.8815024001524,None,1074.8815024001524,None,1076.529305000091,None,1076.529305000091,None,1076.529305000091,None,1076.529305000091,None,1076.529305000091,None,1076.529305000091,None,1076.529305000091,None,1076.529305000091,None,1076.529305000091,None,76,48,59,40,76,63,1079.0485233000945,None,5.0,0.6183219000231475,1079.0485233000945,None,1079.0485233000945,None,1079.0485233000945,None,1079.0485233000945,None,None,None,1079.684340900043,None,,,,,,,145,f,1,2022_Dec_13_1800,RL,2021.2.3,59.944203873054235,
1,96,0,96,0,,,,,,,,,,,,,,,None,None,None,None,None,1081.656073300168,None,1081.656073300168,None,1081.656073300168,None,1081.656073300168,None,r,0.4923511000815779,1081.656073300168,None,1081.656073300168,None,1082.1913238000125,None,1082.1913238000125,None,1082.1913238000125,None,1082.1913238000125,None,1082.1913238000125,None,1082.1913238000125,None,1082.4865350001492,None,1082.4865350001492,None,1083.5168733999599,None,1083.5168733999599,None,1083.5168733999599,None,1083.5168733999599,None,1083.5168733999599,None,1083.5168733999599,None,1083.5168733999599,None,1083.5168733999599,None,1083.5168733999599,None,69,42,61,39,69,42,1086.0351116999518,None,5.0,0.5530103000346571,1086.0351116999518,None,1086.0351116999518,None,1086.0351116999518,None,1086.0351116999518,None,None,None,1086.6069110999815,None,,,,,,,145,f,1,2022_Dec_13_1800,RL,2021.2.3,59.944203873054235,
1,97,0,97,0,,,,,,,,,,,,,,,None,None,None,None,None,1088.1434997001197,None,1088.1434997001197,None,1088.1434997001197,None,1088.1434997001197,None,r,0.49510050006210804,1088.1434997001197,None,1088.1434997001197,None,1088.677608200116,None,1088.677608200116,None,1088.677608200116,None,1088.677608200116,None,1088.677608200116,None,1088.677608200116,None,1088.9744317999575,None,1088.9744317999575,None,1090.8578580999747,None,1090.8578580999747,None,1090.8578580999747,None,1090.8578580999747,None,1090.8578580999747,None,1090.8578580999747,None,1090.8578580999747,None,1090.8578580999747,None,1090.8578580999747,None,67,45,64,28,67,56,1093.3763395999558,None,4.0,0.7369498000480235,1093.3763395999558,None,1093.3763395999558,None,1093.3763395999558,None,1093.3763395999558,None,None,None,1094.1278517001774,None,,,,,,,145,f,1,2022_Dec_13_1800,RL,2021.2.3,59.944203873054235,
1,98,0,98,0,,,,,,,,,,,,,,,None,None,None,None,None,1095.8502440000884,None,1095.8502440000884,None,1095.8502440000884,None,1095.8502440000884,None,r,0.38850450003519654,1095.8502440000884,None,1095.8502440000884,None,1096.2843987001106,None,1096.2843987001106,None,1096.2843987001106,None,1096.2843987001106,None,1096.2843987001106,None,1096.2843987001106,None,1096.5799049001653,None,1096.5799049001653,None,1098.4470607000403,None,1098.4470607000403,None,1098.4470607000403,None,1098.4470607000403,None,1098.4470607000403,None,1098.4470607000403,None,1098.4470607000403,None,1098.4470607000403,None,1098.4470607000403,None,66,46,70,28,66,59,1100.9610961000435,None,3.0,0.7218210001010448,1100.9610961000435,None,1100.9610961000435,None,1100.9610961000435,None,1100.9610961000435,None,None,None,1101.6996959000826,None,,,,,,,145,f,1,2022_Dec_13_1800,RL,2021.2.3,59.944203873054235,
1,99,0,99,0,,,,,,,,,,,,,,,None,None,None,None,None,1103.6208520999644,None,1103.6208520999644,None,1103.6208520999644,None,1103.6208520999644,None,i,0.5076262000948191,1103.6208520999644,None,1103.6208520999644,None,1104.17464750004,None,1104.17464750004,None,1104.17464750004,None,1104.17464750004,None,1104.17464750004,None,1104.17464750004,None,1104.4685593000613,None,1104.4685593000613,None,1106.2832194000948,None,1106.2832194000948,None,1106.2832194000948,None,1106.2832194000948,None,1106.2832194000948,None,1106.2832194000948,None,1106.2832194000948,None,1106.2832194000948,None,1106.2832194000948,None,49,40,71,32,71,57,1108.802188300062,None,5.0,0.8712308001704514,1108.802188300062,None,1108.802188300062,None,1108.802188300062,None,1108.802188300062,None,None,None,1109.688507300103,None,,,,,,,145,f,1,2022_Dec_13_1800,RL,2021.2.3,59.944203873054235,
1,100,0,100,0,,,,,,,,,,,,,,,None,None,None,None,None,1111.5595534001477,None,1111.5595534001477,None,1111.5595534001477,None,1111.5595534001477,None,r,1.0690648001618683,1111.5595534001477,None,1111.5595534001477,None,1112.686842800118,None,1112.686842800118,None,1112.686842800118,None,1112.686842800118,None,1112.686842800118,None,1112.686842800118,None,1112.9744496999774,1114.4919426999986,1112.9744496999774,1114.4919426999986,1114.5256521000993,None,1114.5256521000993,None,1114.5256521000993,None,1114.5256521000993,None,1114.5256521000993,None,1114.5256521000993,None,1114.5256521000993,None,1114.5256521000993,None,1114.5256521000993,None,58,46,65,28,58,35,1117.0399164999835,None,5.0,0.7232949999161065,1117.0399164999835,None,1117.0399164999835,None,1117.0399164999835,None,1117.0399164999835,None,None,None,1117.7775690001436,None,,,,,,,145,f,1,2022_Dec_13_1800,RL,2021.2.3,59.944203873054235,
1,101,0,101,0,,,,,,,,,,,,,,,None,None,None,None,None,1119.6493228999898,None,1119.6493228999898,None,1119.6493228999898,None,1119.6493228999898,None,r,0.35939820017665625,1119.6493228999898,None,1119.6493228999898,None,1120.0475062001497,None,1120.0475062001497,None,1120.0475062001497,None,1120.0475062001497,None,1120.0475062001497,None,1120.0475062001497,None,1120.3461361001246,None,1120.3461361001246,None,1121.6603606999852,None,1121.6603606999852,None,1121.6603606999852,None,1121.6603606999852,None,1121.6603606999852,None,1121.6603606999852,None,1121.6603606999852,None,1121.6603606999852,None,1121.6603606999852,None,64,50,60,24,64,44,1124.1792754000053,None,5.0,0.9697110000997782,1124.1792754000053,None,1124.1792754000053,None,1124.1792754000053,None,1124.1792754000053,None,None,None,1125.165673600044,None,,,,,,,145,f,1,2022_Dec_13_1800,RL,2021.2.3,59.944203873054235,
1,102,0,102,0,,,,,,,,,,,,,,,None,None,None,None,None,1127.0373718000483,None,1127.0373718000483,None,1127.0373718000483,None,1127.0373718000483,None,r,0.611381100025028,1127.0373718000483,None,1127.0373718000483,None,1127.6905650000554,None,1127.6905650000554,None,1127.6905650000554,None,1127.6905650000554,None,1127.6905650000554,None,1127.6905650000554,None,1127.9849432001356,1129.052149000112,1127.9849432001356,1129.052149000112,1129.0824774999637,None,1129.0824774999637,None,1129.0824774999637,None,1129.0824774999637,None,1129.0824774999637,None,1129.0824774999637,None,1129.0824774999637,None,1129.0824774999637,None,1129.0824774999637,None,40,44,63,30,40,39,1131.5994367001113,None,3.0,0.539143200032413,1131.5994367001113,None,1131.5994367001113,None,1131.5994367001113,None,1131.5994367001113,None,None,None,1132.154023700161,None,,,,,,,145,f,1,2022_Dec_13_1800,RL,2021.2.3,59.944203873054235,
1,103,0,103,0,,,,,,,,,,,,,,,None,None,None,None,None,1134.1584518000018,None,1134.1584518000018,None,1134.1584518000018,None,1134.1584518000018,None,i,0.33045509993098676,1134.1584518000018,None,1134.1584518000018,None,1134.528006900102,None,1134.528006900102,None,1134.528006900102,None,1134.528006900102,None,1134.528006900102,None,1134.528006900102,None,1134.8229005001485,1136.1905144001357,1134.8229005001485,1136.1905144001357,1136.2215627999976,None,1136.2215627999976,None,1136.2215627999976,None,1136.2215627999976,None,1136.2215627999976,None,1136.2215627999976,None,1136.2215627999976,None,1136.2215627999976,None,1136.2215627999976,None,59,64,66,33,66,25,1138.746965000173,None,5.0,0.6302948999218643,1138.746965000173,None,1138.746965000173,None,1138.746965000173,None,1138.746965000173,None,None,None,1139.393065799959,None,,,,,,,145,f,1,2022_Dec_13_1800,RL,2021.2.3,59.944203873054235,
1,104,0,104,0,,,,,,,,,,,,,,,None,None,None,None,None,1141.3627335999627,None,1141.3627335999627,None,1141.3627335999627,None,1141.3627335999627,None,i,0.3859248999506235,1141.3627335999627,None,1141.3627335999627,None,1141.8010176001117,None,1141.8010176001117,None,1141.8010176001117,None,1141.8010176001117,None,1141.8010176001117,None,1141.8010176001117,None,1142.0946351999883,1143.4288618001156,1142.0946351999883,1143.4288618001156,1143.4608504001517,None,1143.4608504001517,None,1143.4608504001517,None,1143.4608504001517,None,1143.4608504001517,None,1143.4608504001517,None,1143.4608504001517,None,1143.4608504001517,None,1143.4608504001517,None,51,59,46,30,46,26,1145.9750536000356,None,5.0,1.4747460999060422,1145.9750536000356,None,1145.9750536000356,None,1145.9750536000356,None,1145.9750536000356,None,None,None,1147.4684060001746,None,,,,,,,145,f,1,2022_Dec_13_1800,RL,2021.2.3,59.944203873054235,
1,105,0,105,0,,,,,,,,,,,,,,,None,None,None,None,None,1149.4697503000498,None,1149.4697503000498,None,1149.4697503000498,None,1149.4697503000498,None,i,0.3188736999873072,1149.4697503000498,None,1149.4697503000498,None,1149.8413231000304,None,1149.8413231000304,None,1149.8413231000304,None,1149.8413231000304,None,1149.8413231000304,None,1149.8413231000304,None,1150.1338176000863,1151.6177777999546,1150.1338176000863,1151.6177777999546,1151.6498620000202,None,1151.6498620000202,None,1151.6498620000202,None,1151.6498620000202,None,1151.6498620000202,None,1151.6498620000202,None,1151.6498620000202,None,1151.6498620000202,None,1151.6498620000202,None,48,57,51,30,51,61,1154.1648242000956,None,2.0,0.6736312999855727,1154.1648242000956,None,1154.1648242000956,None,1154.1648242000956,None,1154.1648242000956,None,None,None,1154.8548719000537,None,,,,,,,145,f,1,2022_Dec_13_1800,RL,2021.2.3,59.944203873054235,
1,106,0,106,0,,,,,,,,,,,,,,,None,None,None,None,None,1156.6568899000995,None,1156.6568899000995,None,1156.6568899000995,None,1156.6568899000995,None,r,0.28194440016523004,1156.6568899000995,None,1156.6568899000995,None,1156.9769387000706,None,1156.9769387000706,None,1156.9769387000706,None,1156.9769387000706,None,1156.9769387000706,None,1156.9769387000706,None,1157.2719167000614,None,1157.2719167000614,None,1158.2686293001752,None,1158.2686293001752,None,1158.2686293001752,None,1158.2686293001752,None,1158.2686293001752,None,1158.2686293001752,None,1158.2686293001752,None,1158.2686293001752,None,1158.2686293001752,None,52,49,57,27,52,61,1160.7884566001594,None,2.0,1.3204010999761522,1160.7884566001594,None,1160.7884566001594,None,1160.7884566001594,None,1160.7884566001594,None,None,None,1162.1246112999506,None,,,,,,,145,f,1,2022_Dec_13_1800,RL,2021.2.3,59.944203873054235,
1,107,0,107,0,,,,,,,,,,,,,,,None,None,None,None,None,1163.8787632000167,None,1163.8787632000167,None,1163.8787632000167,None,1163.8787632000167,None,j,0.7000039999838918,1163.8787632000167,None,1163.8787632000167,None,1164.6324791000225,None,1164.6324791000225,None,1164.6324791000225,None,1164.6324791000225,None,1164.6324791000225,None,1164.6324791000225,None,1164.92714480008,None,1164.92714480008,None,1166.2574616000056,None,1166.2574616000056,None,1166.2574616000056,None,1166.2574616000056,None,1166.2574616000056,None,1166.2574616000056,None,1166.2574616000056,None,1166.2574616000056,None,1166.2574616000056,None,52,54,48,19,19,60,1168.780293200165,None,1.0,1.4351153001189232,1168.780293200165,None,1168.780293200165,None,1168.780293200165,None,1168.780293200165,None,None,None,1170.2303562001325,None,,,,,,,145,f,1,2022_Dec_13_1800,RL,2021.2.3,59.944203873054235,
1,108,0,108,0,,,,,,,,,,,,,,,None,None,None,None,None,1172.0315982999746,None,1172.0315982999746,None,1172.0315982999746,None,1172.0315982999746,None,r,0.4472201999742538,1172.0315982999746,None,1172.0315982999746,None,1172.5214277999476,None,1172.5214277999476,None,1172.5214277999476,None,1172.5214277999476,None,1172.5214277999476,None,1172.5214277999476,None,1172.8159152001608,None,1172.8159152001608,None,1173.6455855001695,None,1173.6455855001695,None,1173.6455855001695,None,1173.6455855001695,None,1173.6455855001695,None,1173.6455855001695,None,1173.6455855001695,None,1173.6455855001695,None,1173.6455855001695,None,59,53,55,41,59,55,1176.1641804999672,None,3.0,1.5723655000329018,1176.1641804999672,None,1176.1641804999672,None,1176.1641804999672,None,1176.1641804999672,None,None,None,1177.752119800076,None,,,,,,,145,f,1,2022_Dec_13_1800,RL,2021.2.3,59.944203873054235,
1,109,0,109,0,,,,,,,,,,,,,,,None,None,None,None,None,1179.5408036001027,None,1179.5408036001027,None,1179.5408036001027,None,1179.5408036001027,None,r,0.3176914001815021,1179.5408036001027,None,1179.5408036001027,None,1179.9084727000445,None,1179.9084727000445,None,1179.9084727000445,None,1179.9084727000445,None,1179.9084727000445,None,1179.9084727000445,None,1180.204690600047,None,1180.204690600047,None,1181.6032150001265,None,1181.6032150001265,None,1181.6032150001265,None,1181.6032150001265,None,1181.6032150001265,None,1181.6032150001265,None,1181.6032150001265,None,1181.6032150001265,None,1181.6032150001265,None,60,59,59,41,60,54,1184.1203453000635,None,3.0,1.1547030999790877,1184.1203453000635,None,1184.1203453000635,None,1184.1203453000635,None,1184.1203453000635,None,None,None,1185.290822400013,None,,,,,,,145,f,1,2022_Dec_13_1800,RL,2021.2.3,59.944203873054235,
1,110,0,110,0,,,,,,,,,,,,,,,None,None,None,None,None,1187.0113981000613,None,1187.0113981000613,None,1187.0113981000613,None,1187.0113981000613,None,r,0.347471300046891,1187.0113981000613,None,1187.0113981000613,None,1187.3954710001126,None,1187.3954710001126,None,1187.3954710001126,None,1187.3954710001126,None,1187.3954710001126,None,1187.3954710001126,None,1187.6929150000215,None,1187.6929150000215,None,1188.6893117001746,None,1188.6893117001746,None,1188.6893117001746,None,1188.6893117001746,None,1188.6893117001746,None,1188.6893117001746,None,1188.6893117001746,None,1188.6893117001746,None,1188.6893117001746,None,59,56,57,43,59,67,1191.2101354000624,None,3.0,1.2860936999786645,1191.2101354000624,None,1191.2101354000624,None,1191.2101354000624,None,1191.2101354000624,None,None,None,1192.5129213000182,None,,,,,,,145,f,1,2022_Dec_13_1800,RL,2021.2.3,59.944203873054235,
1,111,0,111,0,,,,,,,,,,,,,,,None,None,None,None,None,1194.1499036999885,None,1194.1499036999885,None,1194.1499036999885,None,1194.1499036999885,None,f,1.019148799823597,1194.1499036999885,None,1194.1499036999885,None,1195.2225665999576,None,1195.2225665999576,None,1195.2225665999576,None,1195.2225665999576,None,1195.2225665999576,None,1195.2225665999576,None,1195.5149553001393,None,1195.5149553001393,None,1197.332050499972,None,1197.332050499972,None,1197.332050499972,None,1197.332050499972,None,1197.332050499972,None,1197.332050499972,None,1197.332050499972,None,1197.332050499972,None,1197.332050499972,None,56,64,48,44,64,49,1199.8487097001635,None,4.0,1.4028388999868184,1199.8487097001635,None,1199.8487097001635,None,1199.8487097001635,None,1199.8487097001635,None,None,None,1201.2685096000787,None,,,,,,,145,f,1,2022_Dec_13_1800,RL,2021.2.3,59.944203873054235,
