bandit,trials.thisRepN,trials.thisTrialN,trials.thisN,trials.thisIndex,instru_img1.started,instru_resp.started,instru_resp.keys,instru_resp.rt,instru_img2.started,instru_resp2.started,instru_resp2.keys,instru_resp2.rt,fixbefore_2.started,rest_response.keys,red.started,green.started,yellow.started,blue.started,choose_bandit.started,Fixation.started,choose_bandit.keys,choose_bandit.rt,black.started,red_2.started,green_2.started,yellow_2.started,blue_2.started,fixation_2.started,docs.started,image_2.started,docs.stopped,image_2.stopped,black.stopped,red_2.stopped,green_2.stopped,yellow_2.stopped,blue_2.stopped,fixation_2.stopped,black_com.started,reward_sub.started,palyerb.started,reward__sub.started,compare.started,red_compare.started,green_com.started,yellow_com.started,blue_com.started,image_3.started,slider.started,text.started,image_4.started,image_5.started,rewardyellow,rewardred,rewardblue,rewardgreen,subchoose,playerb,slider.response,slider.rt,intertrialfix.started,intertrialfix.stopped,rest_image.started,rest_response.started,rest_response.rt,image.started,key_resp.started,key_resp.keys,participant,Gender,Age,date,expName,psychopyVersion,frameRate,
,,,,,47.15064521699969,47.15064521699969,space,19.565804773999844,,,,,,,,,,,,,,,,,,,,,,,,,,,,,,,,,,,,,,,,,,,,,,,,,,,,,,,,,,,,,147,f,19,2023-04-03_19h26.53.083,RL,2022.2.4,60.20919081170494,
,,,,,,,,,66.76145072799409,66.76145072799409,y,15.672006458997203,,,,,,,,,,,,,,,,,,,,,,,,,,,,,,,,,,,,,,,,,,,,,,,,,,,,,,,,,147,f,19,2023-04-03_19h26.53.083,RL,2022.2.4,60.20919081170494,
1,0,0,0,0,,,,,,,,,82.45386478599539,None,83.48076610399585,83.48076610399585,83.48076610399585,83.48076610399585,83.48076610399585,83.48076610399585,f,0.27839826000126777,83.82744338099292,83.82744338099292,83.82744338099292,83.82744338099292,83.82744338099292,83.82744338099292,84.08116087499366,84.08116087499366,85.82889318399975,85.82889318399975,85.88876480199542,85.88876480199542,85.88876480199542,85.88876480199542,85.88876480199542,85.88876480199542,85.88876480199542,85.88876480199542,85.88876480199542,85.88876480199542,85.88876480199542,85.88876480199542,85.88876480199542,85.88876480199542,85.88876480199542,88.3990687399928,88.3990687399928,88.3990687399928,88.3990687399928,88.3990687399928,46,30,72,48,30,41,5.0,2.6372877019966836,91.04869627899461,92.656805669998,,,,,,,147,f,19,2023-04-03_19h26.53.083,RL,2022.2.4,60.20919081170494,
1,1,0,1,0,,,,,,,,,,None,92.656805669998,92.656805669998,92.656805669998,92.656805669998,92.656805669998,92.656805669998,i,0.3389256679947721,93.04209874799562,93.04209874799562,93.04209874799562,93.04209874799562,93.04209874799562,93.04209874799562,93.3125650189977,93.3125650189977,94.61529627199343,94.61529627199343,94.65706936199422,94.65706936199422,94.65706936199422,94.65706936199422,94.65706936199422,94.65706936199422,94.65706936199422,94.65706936199422,94.65706936199422,94.65706936199422,94.65706936199422,94.65706936199422,94.65706936199422,94.65706936199422,94.65706936199422,97.15278512599616,97.15278512599616,97.15278512599616,97.15278512599616,97.15278512599616,38,36,65,46,65,52,6.0,1.7816558019985678,98.95079156599968,100.92609958699904,,,,,,,147,f,19,2023-04-03_19h26.53.083,RL,2022.2.4,60.20919081170494,
1,2,0,2,0,,,,,,,,,,None,100.92609958699904,100.92609958699904,100.92609958699904,100.92609958699904,100.92609958699904,100.92609958699904,r,0.2907653560032486,101.2704987679972,101.2704987679972,101.2704987679972,101.2704987679972,101.2704987679972,101.2704987679972,101.53765471899533,101.53765471899533,103.50376011199842,103.50376011199842,103.54623332099436,103.54623332099436,103.54623332099436,103.54623332099436,103.54623332099436,103.54623332099436,103.54623332099436,103.54623332099436,103.54623332099436,103.54623332099436,103.54623332099436,103.54623332099436,103.54623332099436,103.54623332099436,103.54623332099436,106.04496185199969,106.04496185199969,106.04496185199969,106.04496185199969,106.04496185199969,29,32,77,47,29,38,5.0,1.9990055989983375,108.05649294099567,109.86320541999885,,,,,,,147,f,19,2023-04-03_19h26.53.083,RL,2022.2.4,60.20919081170494,
1,3,0,3,0,,,,,,,,,,None,109.86320541999885,109.86320541999885,109.86320541999885,109.86320541999885,109.86320541999885,109.86320541999885,i,0.32716549699398456,110.25224839199655,110.25224839199655,110.25224839199655,110.25224839199655,110.25224839199655,110.25224839199655,110.50868914299645,110.50868914299645,111.59396576199651,111.59396576199651,111.65325296399533,111.65325296399533,111.65325296399533,111.65325296399533,111.65325296399533,111.65325296399533,111.65325296399533,111.65325296399533,111.65325296399533,111.65325296399533,111.65325296399533,111.65325296399533,111.65325296399533,111.65325296399533,111.65325296399533,114.14671078399988,114.14671078399988,114.14671078399988,114.14671078399988,114.14671078399988,33,38,70,49,70,47,6.0,2.328337115002796,116.48872681699868,118.31851684799767,,,,,,,147,f,19,2023-04-03_19h26.53.083,RL,2022.2.4,60.20919081170494,
1,4,0,4,0,,,,,,,,,,None,118.31851684799767,118.31851684799767,118.31851684799767,118.31851684799767,118.31851684799767,118.31851684799767,i,0.37754066699562827,118.73882862699975,118.73882862699975,118.73882862699975,118.73882862699975,118.73882862699975,118.73882862699975,119.0097708989997,119.0097708989997,120.14665880299435,120.14665880299435,120.18525075499929,120.18525075499929,120.18525075499929,120.18525075499929,120.18525075499929,120.18525075499929,120.18525075499929,120.18525075499929,120.18525075499929,120.18525075499929,120.18525075499929,120.18525075499929,120.18525075499929,120.18525075499929,120.18525075499929,122.69329038999422,122.69329038999422,122.69329038999422,122.69329038999422,122.69329038999422,32,41,62,54,62,56,6.0,1.318367458996363,124.02567450999777,125.60484528300003,,,,,,,147,f,19,2023-04-03_19h26.53.083,RL,2022.2.4,60.20919081170494,
1,5,0,5,0,,,,,,,,,,None,125.60484528300003,125.60484528300003,125.60484528300003,125.60484528300003,125.60484528300003,125.60484528300003,i,0.6441713330059429,126.29271231699386,126.29271231699386,126.29271231699386,126.29271231699386,126.29271231699386,126.29271231699386,126.5620200389967,126.5620200389967,128.24582964,128.24582964,128.28429227599554,128.28429227599554,128.28429227599554,128.28429227599554,128.28429227599554,128.28429227599554,128.28429227599554,128.28429227599554,128.28429227599554,128.28429227599554,128.28429227599554,128.28429227599554,128.28429227599554,128.28429227599554,128.28429227599554,130.78385918999993,130.78385918999993,130.78385918999993,130.78385918999993,130.78385918999993,39,41,78,50,78,49,7.0,1.416506629997457,132.21328787099628,134.0926373859984,,,,,,,147,f,19,2023-04-03_19h26.53.083,RL,2022.2.4,60.20919081170494,
1,6,0,6,0,,,,,,,,,,None,134.0926373859984,134.0926373859984,134.0926373859984,134.0926373859984,134.0926373859984,134.0926373859984,i,0.3251718239989714,134.46661156099435,134.46661156099435,134.46661156099435,134.46661156099435,134.46661156099435,134.46661156099435,134.74993962399458,134.74993962399458,136.16564233799727,136.16564233799727,136.1911724149977,136.1911724149977,136.1911724149977,136.1911724149977,136.1911724149977,136.1911724149977,136.1911724149977,136.1911724149977,136.1911724149977,136.1911724149977,136.1911724149977,136.1911724149977,136.1911724149977,136.1911724149977,136.1911724149977,138.70113624399528,138.70113624399528,138.70113624399528,138.70113624399528,138.70113624399528,38,32,68,43,68,48,7.0,2.1395635879962356,140.85856917799538,142.3951580569992,,,,,,,147,f,19,2023-04-03_19h26.53.083,RL,2022.2.4,60.20919081170494,
1,7,0,7,0,,,,,,,,,,None,142.3951580569992,142.3951580569992,142.3951580569992,142.3951580569992,142.3951580569992,142.3951580569992,i,0.36133006200543605,142.80549900899496,142.80549900899496,142.80549900899496,142.80549900899496,142.80549900899496,142.80549900899496,143.06997230899287,143.06997230899287,144.3345871049969,144.3345871049969,144.37507954299508,144.37507954299508,144.37507954299508,144.37507954299508,144.37507954299508,144.37507954299508,144.37507954299508,144.37507954299508,144.37507954299508,144.37507954299508,144.37507954299508,144.37507954299508,144.37507954299508,144.37507954299508,144.37507954299508,146.8747577529939,146.8747577529939,146.8747577529939,146.8747577529939,146.8747577529939,32,35,75,45,75,55,7.0,1.9515233769998304,148.84167373299715,150.61662833899754,,,,,,,147,f,19,2023-04-03_19h26.53.083,RL,2022.2.4,60.20919081170494,
1,8,0,8,0,,,,,,,,,,None,150.61662833899754,150.61662833899754,150.61662833899754,150.61662833899754,150.61662833899754,150.61662833899754,i,0.5135705809952924,151.17768762099877,151.17768762099877,151.17768762099877,151.17768762099877,151.17768762099877,151.17768762099877,151.44504777199472,151.44504777199472,152.76048167899717,152.76048167899717,152.8001916409994,152.8001916409994,152.8001916409994,152.8001916409994,152.8001916409994,152.8001916409994,152.8001916409994,152.8001916409994,152.8001916409994,152.8001916409994,152.8001916409994,152.8001916409994,152.8001916409994,152.8001916409994,152.8001916409994,155.2962742259988,155.2962742259988,155.2962742259988,155.2962742259988,155.2962742259988,35,38,60,34,60,52,7.0,2.869887259999814,158.1813324149989,159.887737276993,,,,,,,147,f,19,2023-04-03_19h26.53.083,RL,2022.2.4,60.20919081170494,
1,9,0,9,0,,,,,,,,,,None,159.887737276993,159.887737276993,159.887737276993,159.887737276993,159.887737276993,159.887737276993,r,0.40457899400644237,160.34324871699937,160.34324871699937,160.34324871699937,160.34324871699937,160.34324871699937,160.34324871699937,160.6117448349978,160.6117448349978,162.11357245899853,162.11357245899853,162.15455817799375,162.15455817799375,162.15455817799375,162.15455817799375,162.15455817799375,162.15455817799375,162.15455817799375,162.15455817799375,162.15455817799375,162.15455817799375,162.15455817799375,162.15455817799375,162.15455817799375,162.15455817799375,162.15455817799375,164.64975279599457,164.64975279599457,164.64975279599457,164.64975279599457,164.64975279599457,34,41,59,52,34,60,5.0,1.3543461539957207,166.01854567999544,167.62488711599872,,,,,,,147,f,19,2023-04-03_19h26.53.083,RL,2022.2.4,60.20919081170494,
1,10,0,10,0,,,,,,,,,,None,167.62488711599872,167.62488711599872,167.62488711599872,167.62488711599872,167.62488711599872,167.62488711599872,i,0.3221685360040283,168.0117391629974,168.0117391629974,168.0117391629974,168.0117391629974,168.0117391629974,168.0117391629974,168.28097211799468,168.28097211799468,170.27045703499607,170.27045703499607,170.30860237199522,170.30860237199522,170.30860237199522,170.30860237199522,170.30860237199522,170.30860237199522,170.30860237199522,170.30860237199522,170.30860237199522,170.30860237199522,170.30860237199522,170.30860237199522,170.30860237199522,170.30860237199522,170.30860237199522,172.81100364599843,172.81100364599843,172.81100364599843,172.81100364599843,172.81100364599843,33,32,67,38,67,55,6.0,0.7996360170000116,173.6266402609981,175.360588067997,,,,,,,147,f,19,2023-04-03_19h26.53.083,RL,2022.2.4,60.20919081170494,
1,11,0,11,0,,,,,,,,,,None,175.360588067997,175.360588067997,175.360588067997,175.360588067997,175.360588067997,175.360588067997,i,0.7766429369949037,176.18398283699935,176.18398283699935,176.18398283699935,176.18398283699935,176.18398283699935,176.18398283699935,176.4521266409938,176.4521266409938,177.34530090399494,177.34530090399494,177.38392238599772,177.38392238599772,177.38392238599772,177.38392238599772,177.38392238599772,177.38392238599772,177.38392238599772,177.38392238599772,177.38392238599772,177.38392238599772,177.38392238599772,177.38392238599772,177.38392238599772,177.38392238599772,177.38392238599772,179.88716101599857,179.88716101599857,179.88716101599857,179.88716101599857,179.88716101599857,38,29,61,33,61,35,6.0,2.104186064003443,182.00598717699904,183.78219984099997,,,,,,,147,f,19,2023-04-03_19h26.53.083,RL,2022.2.4,60.20919081170494,
1,12,0,12,0,,,,,,,,,,None,183.78219984099997,183.78219984099997,183.78219984099997,183.78219984099997,183.78219984099997,183.78219984099997,i,0.3070072339978651,184.137263867,184.137263867,184.137263867,184.137263867,184.137263867,184.137263867,184.40604501199414,184.40604501199414,185.92725636799878,185.92725636799878,185.96324091399583,185.96324091399583,185.96324091399583,185.96324091399583,185.96324091399583,185.96324091399583,185.96324091399583,185.96324091399583,185.96324091399583,185.96324091399583,185.96324091399583,185.96324091399583,185.96324091399583,185.96324091399583,185.96324091399583,188.46286749599676,188.46286749599676,188.46286749599676,188.46286749599676,188.46286749599676,34,32,59,46,59,47,6.0,1.3312752910060226,189.80819310399966,191.66897643099946,,,,,,,147,f,19,2023-04-03_19h26.53.083,RL,2022.2.4,60.20919081170494,
1,13,0,13,0,,,,,,,,,,None,191.66897643099946,191.66897643099946,191.66897643099946,191.66897643099946,191.66897643099946,191.66897643099946,i,0.34473943500051973,192.06086043999676,192.06086043999676,192.06086043999676,192.06086043999676,192.06086043999676,192.06086043999676,192.3298316589935,192.3298316589935,193.61083492899343,193.61083492899343,193.6525827499936,193.6525827499936,193.6525827499936,193.6525827499936,193.6525827499936,193.6525827499936,193.6525827499936,193.6525827499936,193.6525827499936,193.6525827499936,193.6525827499936,193.6525827499936,193.6525827499936,193.6525827499936,193.6525827499936,196.14995428199472,196.14995428199472,196.14995428199472,196.14995428199472,196.14995428199472,33,29,59,42,59,65,5.0,0.8317515419985284,196.9941221179979,198.99178640199534,,,,,,,147,f,19,2023-04-03_19h26.53.083,RL,2022.2.4,60.20919081170494,
1,14,0,14,0,,,,,,,,,,None,198.99178640199534,198.99178640199534,198.99178640199534,198.99178640199534,198.99178640199534,198.99178640199534,f,0.2829072559979977,199.31579742799659,199.31579742799659,199.31579742799659,199.31579742799659,199.31579742799659,199.31579742799659,199.5810871989961,199.5810871989961,201.19940758199664,201.19940758199664,201.2394575379949,201.2394575379949,201.2394575379949,201.2394575379949,201.2394575379949,201.2394575379949,201.2394575379949,201.2394575379949,201.2394575379949,201.2394575379949,201.2394575379949,201.2394575379949,201.2394575379949,201.2394575379949,201.2394575379949,203.7370230259985,203.7370230259985,203.7370230259985,203.7370230259985,203.7370230259985,30,27,60,51,27,51,5.0,0.9819590019978932,204.73242764299357,206.42672818899882,,,,,,,147,f,19,2023-04-03_19h26.53.083,RL,2022.2.4,60.20919081170494,
1,15,0,15,0,,,,,,,,,,None,206.42672818899882,206.42672818899882,206.42672818899882,206.42672818899882,206.42672818899882,206.42672818899882,i,0.3162611219959217,206.7987479049989,206.7987479049989,206.7987479049989,206.7987479049989,206.7987479049989,206.7987479049989,207.06918863499595,207.06918863499595,207.94985471799737,207.94985471799737,207.97311453299335,207.97311453299335,207.97311453299335,207.97311453299335,207.97311453299335,207.97311453299335,207.97311453299335,207.97311453299335,207.97311453299335,207.97311453299335,207.97311453299335,207.97311453299335,207.97311453299335,207.97311453299335,207.97311453299335,210.4760946949973,210.4760946949973,210.4760946949973,210.4760946949973,210.4760946949973,24,28,54,47,54,50,6.0,1.1305516229986097,211.61872656499327,213.2125034379933,,,,,,,147,f,19,2023-04-03_19h26.53.083,RL,2022.2.4,60.20919081170494,
1,16,0,16,0,,,,,,,,,,None,213.2125034379933,213.2125034379933,213.2125034379933,213.2125034379933,213.2125034379933,213.2125034379933,i,0.3833472400001483,213.63912787899608,213.63912787899608,213.63912787899608,213.63912787899608,213.63912787899608,213.63912787899608,213.9195673639988,213.9195673639988,215.6726576009969,215.6726576009969,215.69605888399383,215.69605888399383,215.69605888399383,215.69605888399383,215.69605888399383,215.69605888399383,215.69605888399383,215.69605888399383,215.69605888399383,215.69605888399383,215.69605888399383,215.69605888399383,215.69605888399383,215.69605888399383,215.69605888399383,218.19660366899916,218.19660366899916,218.19660366899916,218.19660366899916,218.19660366899916,36,19,59,46,59,53,6.0,0.495755799995095,218.70386694999615,220.2659286479975,,,,,,,147,f,19,2023-04-03_19h26.53.083,RL,2022.2.4,60.20919081170494,
1,17,0,17,0,,,,,,,,,,None,220.2659286479975,220.2659286479975,220.2659286479975,220.2659286479975,220.2659286479975,220.2659286479975,i,0.47123314600321464,220.78697710299457,220.78697710299457,220.78697710299457,220.78697710299457,220.78697710299457,220.78697710299457,221.05798947099538,221.05798947099538,222.62233799699607,222.62233799699607,222.66319095899962,222.66319095899962,222.66319095899962,222.66319095899962,222.66319095899962,222.66319095899962,222.66319095899962,222.66319095899962,222.66319095899962,222.66319095899962,222.66319095899962,222.66319095899962,222.66319095899962,222.66319095899962,222.66319095899962,225.1720190979977,225.1720190979977,225.1720190979977,225.1720190979977,225.1720190979977,25,27,73,34,73,45,7.0,0.6920915129958303,225.8767114689981,227.6200267699969,,,,,,,147,f,19,2023-04-03_19h26.53.083,RL,2022.2.4,60.20919081170494,
1,18,0,18,0,,,,,,,,,,None,227.6200267699969,227.6200267699969,227.6200267699969,227.6200267699969,227.6200267699969,227.6200267699969,i,0.3698689099983312,228.03931954199652,228.03931954199652,228.03931954199652,228.03931954199652,228.03931954199652,228.03931954199652,228.30935842299368,228.30935842299368,230.15407206300006,230.15407206300006,230.1746025579996,230.1746025579996,230.1746025579996,230.1746025579996,230.1746025579996,230.1746025579996,230.1746025579996,230.1746025579996,230.1746025579996,230.1746025579996,230.1746025579996,230.1746025579996,230.1746025579996,230.1746025579996,230.1746025579996,232.67925823399855,232.67925823399855,232.67925823399855,232.67925823399855,232.67925823399855,31,30,65,27,65,46,7.0,0.7184439440025017,233.41103642899543,234.97285326199926,,,,,,,147,f,19,2023-04-03_19h26.53.083,RL,2022.2.4,60.20919081170494,
1,19,0,19,0,,,,,,,,,,None,234.97285326199926,234.97285326199926,234.97285326199926,234.97285326199926,234.97285326199926,234.97285326199926,j,0.24667960300575942,235.25933189299394,235.25933189299394,235.25933189299394,235.25933189299394,235.25933189299394,235.25933189299394,235.5303165679943,235.5303165679943,237.4151006599932,237.4151006599932,237.45412458299688,237.45412458299688,237.45412458299688,237.45412458299688,237.45412458299688,237.45412458299688,237.45412458299688,237.45412458299688,237.45412458299688,237.45412458299688,237.45412458299688,237.45412458299688,237.45412458299688,237.45412458299688,237.45412458299688,239.95459171799303,239.95459171799303,239.95459171799303,239.95459171799303,239.95459171799303,30,18,72,22,22,45,6.0,1.2481870689953212,241.21741386099893,243.04369363999285,,,,,,,147,f,19,2023-04-03_19h26.53.083,RL,2022.2.4,60.20919081170494,
1,20,0,20,0,,,,,,,,,,None,243.04369363999285,243.04369363999285,243.04369363999285,243.04369363999285,243.04369363999285,243.04369363999285,i,0.327078659000108,243.41118001399445,243.41118001399445,243.41118001399445,243.41118001399445,243.41118001399445,243.41118001399445,243.68365253899537,243.68365253899537,245.03306459199666,245.03306459199666,245.07385470699955,245.07385470699955,245.07385470699955,245.07385470699955,245.07385470699955,245.07385470699955,245.07385470699955,245.07385470699955,245.07385470699955,245.07385470699955,245.07385470699955,245.07385470699955,245.07385470699955,245.07385470699955,245.07385470699955,247.58215533799375,247.58215533799375,247.58215533799375,247.58215533799375,247.58215533799375,27,20,66,27,66,42,7.0,0.8407658609939972,248.44040468899766,250.14579589599452,,,,,,,147,f,19,2023-04-03_19h26.53.083,RL,2022.2.4,60.20919081170494,
1,21,0,21,0,,,,,,,,,,None,250.14579589599452,250.14579589599452,250.14579589599452,250.14579589599452,250.14579589599452,250.14579589599452,i,0.42695609600195894,250.61733684499632,250.61733684499632,250.61733684499632,250.61733684499632,250.61733684499632,250.61733684499632,250.88661453499662,250.88661453499662,252.8044940349937,252.8044940349937,252.84649098899536,252.84649098899536,252.84649098899536,252.84649098899536,252.84649098899536,252.84649098899536,252.84649098899536,252.84649098899536,252.84649098899536,252.84649098899536,252.84649098899536,252.84649098899536,252.84649098899536,252.84649098899536,252.84649098899536,255.34558503499284,255.34558503499284,255.34558503499284,255.34558503499284,255.34558503499284,29,24,67,23,67,37,7.0,0.4304936090047704,255.79009699099697,257.60093772099935,,,,,,,147,f,19,2023-04-03_19h26.53.083,RL,2022.2.4,60.20919081170494,
1,22,0,22,0,,,,,,,,,,None,257.60093772099935,257.60093772099935,257.60093772099935,257.60093772099935,257.60093772099935,257.60093772099935,r,0.3266899160007597,257.9752925549983,257.9752925549983,257.9752925549983,257.9752925549983,257.9752925549983,257.9752925549983,258.24158944299415,258.24158944299415,259.94251136199455,259.94251136199455,259.9810968679958,259.9810968679958,259.9810968679958,259.9810968679958,259.9810968679958,259.9810968679958,259.9810968679958,259.9810968679958,259.9810968679958,259.9810968679958,259.9810968679958,259.9810968679958,259.9810968679958,259.9810968679958,259.9810968679958,262.4847929669995,262.4847929669995,262.4847929669995,262.4847929669995,262.4847929669995,26,20,68,28,26,37,6.0,0.9939837659985642,263.4926766329954,265.4718452119996,,,,,,,147,f,19,2023-04-03_19h26.53.083,RL,2022.2.4,60.20919081170494,
1,23,0,23,0,,,,,,,,,,None,265.4718452119996,265.4718452119996,265.4718452119996,265.4718452119996,265.4718452119996,265.4718452119996,i,0.46008874099788954,265.97482602099626,265.97482602099626,265.97482602099626,265.97482602099626,265.97482602099626,265.97482602099626,266.24465610399784,266.24465610399784,267.8242824689951,267.8242824689951,267.84906376699655,267.84906376699655,267.84906376699655,267.84906376699655,267.84906376699655,267.84906376699655,267.84906376699655,267.84906376699655,267.84906376699655,267.84906376699655,267.84906376699655,267.84906376699655,267.84906376699655,267.84906376699655,267.84906376699655,270.36181131699414,270.36181131699414,270.36181131699414,270.36181131699414,270.36181131699414,34,19,65,29,65,70,5.0,0.8053750379986013,271.1797444259937,272.69143493499723,,,,,,,147,f,19,2023-04-03_19h26.53.083,RL,2022.2.4,60.20919081170494,
1,24,0,24,0,,,,,,,,,,None,272.69143493499723,272.69143493499723,272.69143493499723,272.69143493499723,272.69143493499723,272.69143493499723,f,0.29656353400059743,273.03371546199924,273.03371546199924,273.03371546199924,273.03371546199924,273.03371546199924,273.03371546199924,273.29980134199286,273.29980134199286,274.9179668509969,274.9179668509969,274.97379839399946,274.97379839399946,274.97379839399946,274.97379839399946,274.97379839399946,274.97379839399946,274.97379839399946,274.97379839399946,274.97379839399946,274.97379839399946,274.97379839399946,274.97379839399946,274.97379839399946,274.97379839399946,274.97379839399946,277.47209186199325,277.47209186199325,277.47209186199325,277.47209186199325,277.47209186199325,29,28,72,34,28,59,5.0,0.8653060309952707,278.35110827899916,279.9114439889963,,,,,,,147,f,19,2023-04-03_19h26.53.083,RL,2022.2.4,60.20919081170494,
1,25,0,25,0,,,,,,,,,,None,279.9114439889963,279.9114439889963,279.9114439889963,279.9114439889963,279.9114439889963,279.9114439889963,i,0.3449926260000211,280.30496144199424,280.30496144199424,280.30496144199424,280.30496144199424,280.30496144199424,280.30496144199424,280.57030176299304,280.57030176299304,281.44488103599724,281.44488103599724,281.485510349994,281.485510349994,281.485510349994,281.485510349994,281.485510349994,281.485510349994,281.485510349994,281.485510349994,281.485510349994,281.485510349994,281.485510349994,281.485510349994,281.485510349994,281.485510349994,281.485510349994,283.99447121199773,283.99447121199773,283.99447121199773,283.99447121199773,283.99447121199773,29,32,66,30,66,60,6.0,1.5289669889971265,285.539648700993,287.0970056559963,,,,,,,147,f,19,2023-04-03_19h26.53.083,RL,2022.2.4,60.20919081170494,
1,26,0,26,0,,,,,,,,,,None,287.0970056559963,287.0970056559963,287.0970056559963,287.0970056559963,287.0970056559963,287.0970056559963,i,0.4528038770004059,287.6038780139934,287.6038780139934,287.6038780139934,287.6038780139934,287.6038780139934,287.6038780139934,287.87424314999953,287.87424314999953,289.5997631099963,289.5997631099963,289.6395270809953,289.6395270809953,289.6395270809953,289.6395270809953,289.6395270809953,289.6395270809953,289.6395270809953,289.6395270809953,289.6395270809953,289.6395270809953,289.6395270809953,289.6395270809953,289.6395270809953,289.6395270809953,289.6395270809953,292.1441537189967,292.1441537189967,292.1441537189967,292.1441537189967,292.1441537189967,30,32,75,39,75,50,7.0,1.1999252409950714,293.35676960199635,295.2852395019945,,,,,,,147,f,19,2023-04-03_19h26.53.083,RL,2022.2.4,60.20919081170494,
1,27,0,27,0,,,,,,,,,,None,295.2852395019945,295.2852395019945,295.2852395019945,295.2852395019945,295.2852395019945,295.2852395019945,i,0.36429467699781526,295.6896343999979,295.6896343999979,295.6896343999979,295.6896343999979,295.6896343999979,295.6896343999979,295.95819747499627,295.95819747499627,297.2370618369969,297.2370618369969,297.2770511349954,297.2770511349954,297.2770511349954,297.2770511349954,297.2770511349954,297.2770511349954,297.2770511349954,297.2770511349954,297.2770511349954,297.2770511349954,297.2770511349954,297.2770511349954,297.2770511349954,297.2770511349954,297.2770511349954,299.78242627899454,299.78242627899454,299.78242627899454,299.78242627899454,299.78242627899454,36,30,66,38,66,60,7.0,0.5312425110023469,300.3262490919951,302.0217870189954,,,,,,,147,f,19,2023-04-03_19h26.53.083,RL,2022.2.4,60.20919081170494,
1,28,0,28,0,,,,,,,,,,None,302.0217870189954,302.0217870189954,302.0217870189954,302.0217870189954,302.0217870189954,302.0217870189954,i,0.621857218000514,302.69912613399356,302.69912613399356,302.69912613399356,302.69912613399356,302.69912613399356,302.69912613399356,302.9640939249948,302.9640939249948,304.3121358609933,304.3121358609933,304.3679538149954,304.3679538149954,304.3679538149954,304.3679538149954,304.3679538149954,304.3679538149954,304.3679538149954,304.3679538149954,304.3679538149954,304.3679538149954,304.3679538149954,304.3679538149954,304.3679538149954,304.3679538149954,304.3679538149954,306.8733257549975,306.8733257549975,306.8733257549975,306.8733257549975,306.8733257549975,35,35,72,32,72,35,7.0,0.8067821369986632,307.69305764199817,309.23976802699326,,,,,,,147,f,19,2023-04-03_19h26.53.083,RL,2022.2.4,60.20919081170494,
1,29,0,29,0,,,,,,,,,,None,309.23976802699326,309.23976802699326,309.23976802699326,309.23976802699326,309.23976802699326,309.23976802699326,i,0.3753456019985606,309.66484139799286,309.66484139799286,309.66484139799286,309.66484139799286,309.66484139799286,309.66484139799286,309.942456028999,309.942456028999,311.07067826399725,311.07067826399725,311.0949340419975,311.0949340419975,311.0949340419975,311.0949340419975,311.0949340419975,311.0949340419975,311.0949340419975,311.0949340419975,311.0949340419975,311.0949340419975,311.0949340419975,311.0949340419975,311.0949340419975,311.0949340419975,311.0949340419975,313.5980161619955,313.5980161619955,313.5980161619955,313.5980161619955,313.5980161619955,26,28,73,39,73,53,7.0,0.47200011100358097,314.0840581709999,315.87863509099407,,,,,,,147,f,19,2023-04-03_19h26.53.083,RL,2022.2.4,60.20919081170494,
1,30,0,30,0,,,,,,,,,,None,315.87863509099407,315.87863509099407,315.87863509099407,315.87863509099407,315.87863509099407,315.87863509099407,i,0.4699068710033316,316.39977937599906,316.39977937599906,316.39977937599906,316.39977937599906,316.39977937599906,316.39977937599906,316.6680570919998,316.6680570919998,318.01377790900005,318.01377790900005,318.05544669499795,318.05544669499795,318.05544669499795,318.05544669499795,318.05544669499795,318.05544669499795,318.05544669499795,318.05544669499795,318.05544669499795,318.05544669499795,318.05544669499795,318.05544669499795,318.05544669499795,318.05544669499795,318.05544669499795,320.5658224879953,320.5658224879953,320.5658224879953,320.5658224879953,320.5658224879953,34,39,67,33,67,56,7.0,0.43935887899715453,321.02187602799677,322.63092238199897,,,,,,,147,f,19,2023-04-03_19h26.53.083,RL,2022.2.4,60.20919081170494,
1,31,0,31,0,,,,,,,,,,None,322.63092238199897,322.63092238199897,322.63092238199897,322.63092238199897,322.63092238199897,322.63092238199897,i,0.49481782100338023,323.1675289659979,323.1675289659979,323.1675289659979,323.1675289659979,323.1675289659979,323.1675289659979,323.4374992879966,323.4374992879966,324.5235559789944,324.5235559789944,324.54828738099604,324.54828738099604,324.54828738099604,324.54828738099604,324.54828738099604,324.54828738099604,324.54828738099604,324.54828738099604,324.54828738099604,324.54828738099604,324.54828738099604,324.54828738099604,324.54828738099604,324.54828738099604,324.54828738099604,327.05650057999446,327.05650057999446,327.05650057999446,327.05650057999446,327.05650057999446,21,32,64,30,64,54,7.0,1.0535634639963973,328.1246530309945,329.9500247249962,,,,,,,147,f,19,2023-04-03_19h26.53.083,RL,2022.2.4,60.20919081170494,
1,32,0,32,0,,,,,,,,,,None,329.9500247249962,329.9500247249962,329.9500247249962,329.9500247249962,329.9500247249962,329.9500247249962,f,0.3647684390016366,330.3559895179933,330.3559895179933,330.3559895179933,330.3559895179933,330.3559895179933,330.3559895179933,330.62611293299415,330.62611293299415,331.85794005899515,331.85794005899515,331.8980631319937,331.8980631319937,331.8980631319937,331.8980631319937,331.8980631319937,331.8980631319937,331.8980631319937,331.8980631319937,331.8980631319937,331.8980631319937,331.8980631319937,331.8980631319937,331.8980631319937,331.8980631319937,331.8980631319937,334.4070033349999,334.4070033349999,334.4070033349999,334.4070033349999,334.4070033349999,19,33,65,21,33,51,6.0,1.507837538003514,335.92467768099596,337.88847853199695,,,,,,,147,f,19,2023-04-03_19h26.53.083,RL,2022.2.4,60.20919081170494,
1,33,0,33,0,,,,,,,,,,None,337.88847853199695,337.88847853199695,337.88847853199695,337.88847853199695,337.88847853199695,337.88847853199695,r,0.31538844799797516,338.2556240449994,338.2556240449994,338.2556240449994,338.2556240449994,338.2556240449994,338.2556240449994,338.52870606299985,338.52870606299985,339.84574338999664,339.84574338999664,339.89068211599806,339.89068211599806,339.89068211599806,339.89068211599806,339.89068211599806,339.89068211599806,339.89068211599806,339.89068211599806,339.89068211599806,339.89068211599806,339.89068211599806,339.89068211599806,339.89068211599806,339.89068211599806,339.89068211599806,342.3846551839961,342.3846551839961,342.3846551839961,342.3846551839961,342.3846551839961,17,20,68,20,17,38,5.0,0.9578890349948779,343.35913604699454,344.9923340709938,,,,,,,147,f,19,2023-04-03_19h26.53.083,RL,2022.2.4,60.20919081170494,
1,34,0,34,0,,,,,,,,,,None,344.9923340709938,344.9923340709938,344.9923340709938,344.9923340709938,344.9923340709938,344.9923340709938,f,0.3654116649995558,345.39776561699546,345.39776561699546,345.39776561699546,345.39776561699546,345.39776561699546,345.39776561699546,345.6661358959973,345.6661358959973,347.29900603999704,347.29900603999704,347.3220360149935,347.3220360149935,347.3220360149935,347.3220360149935,347.3220360149935,347.3220360149935,347.3220360149935,347.3220360149935,347.3220360149935,347.3220360149935,347.3220360149935,347.3220360149935,347.3220360149935,347.3220360149935,347.3220360149935,349.82202973999665,349.82202973999665,349.82202973999665,349.82202973999665,349.82202973999665,15,20,61,31,20,41,5.0,0.832614253005886,350.66721295599564,352.4771800299932,,,,,,,147,f,19,2023-04-03_19h26.53.083,RL,2022.2.4,60.20919081170494,
1,35,0,35,0,,,,,,,,,,None,352.4771800299932,352.4771800299932,352.4771800299932,352.4771800299932,352.4771800299932,352.4771800299932,i,0.2920463269983884,352.82312666899816,352.82312666899816,352.82312666899816,352.82312666899816,352.82312666899816,352.82312666899816,353.0881333599973,353.0881333599973,354.57089342899417,354.57089342899417,354.60948108499724,354.60948108499724,354.60948108499724,354.60948108499724,354.60948108499724,354.60948108499724,354.60948108499724,354.60948108499724,354.60948108499724,354.60948108499724,354.60948108499724,354.60948108499724,354.60948108499724,354.60948108499724,354.60948108499724,357.12279066899646,357.12279066899646,357.12279066899646,357.12279066899646,357.12279066899646,26,22,74,42,74,39,7.0,1.3358825049945153,358.4737889659955,360.3160958409935,,,,,,,147,f,19,2023-04-03_19h26.53.083,RL,2022.2.4,60.20919081170494,
1,36,0,36,0,,,,,,,,,,None,360.3160958409935,360.3160958409935,360.3160958409935,360.3160958409935,360.3160958409935,360.3160958409935,i,0.34129031100019347,360.70949544899486,360.70949544899486,360.70949544899486,360.70949544899486,360.70949544899486,360.70949544899486,360.9744773649945,360.9744773649945,362.24888388399995,362.24888388399995,362.26957823599514,362.26957823599514,362.26957823599514,362.26957823599514,362.26957823599514,362.26957823599514,362.26957823599514,362.26957823599514,362.26957823599514,362.26957823599514,362.26957823599514,362.26957823599514,362.26957823599514,362.26957823599514,362.26957823599514,364.778285483997,364.778285483997,364.778285483997,364.778285483997,364.778285483997,26,25,67,35,67,68,6.0,0.6989736530013033,365.49233509199985,367.2514066149961,,,,,,,147,f,19,2023-04-03_19h26.53.083,RL,2022.2.4,60.20919081170494,
1,37,0,37,0,,,,,,,,,,None,367.2514066149961,367.2514066149961,367.2514066149961,367.2514066149961,367.2514066149961,367.2514066149961,j,0.3245077300016419,367.6230265079939,367.6230265079939,367.6230265079939,367.6230265079939,367.6230265079939,367.6230265079939,367.8926702559984,367.8926702559984,369.2218518149966,369.2218518149966,369.2636182859933,369.2636182859933,369.2636182859933,369.2636182859933,369.2636182859933,369.2636182859933,369.2636182859933,369.2636182859933,369.2636182859933,369.2636182859933,369.2636182859933,369.2636182859933,369.2636182859933,369.2636182859933,369.2636182859933,371.7654268339975,371.7654268339975,371.7654268339975,371.7654268339975,371.7654268339975,17,24,69,33,33,63,5.0,0.7336384000009275,372.5129463859994,374.0560422079943,,,,,,,147,f,19,2023-04-03_19h26.53.083,RL,2022.2.4,60.20919081170494,
1,38,0,38,0,,,,,,,,,,None,374.0560422079943,374.0560422079943,374.0560422079943,374.0560422079943,374.0560422079943,374.0560422079943,i,0.42265670000051614,374.5329326449937,374.5329326449937,374.5329326449937,374.5329326449937,374.5329326449937,374.5329326449937,374.797363519996,374.797363519996,376.66822392599715,376.66822392599715,376.7076525289958,376.7076525289958,376.7076525289958,376.7076525289958,376.7076525289958,376.7076525289958,376.7076525289958,376.7076525289958,376.7076525289958,376.7076525289958,376.7076525289958,376.7076525289958,376.7076525289958,376.7076525289958,376.7076525289958,379.2179427459996,379.2179427459996,379.2179427459996,379.2179427459996,379.2179427459996,22,24,70,34,70,68,6.0,1.0672677640031907,380.2987819869959,381.9267087519984,,,,,,,147,f,19,2023-04-03_19h26.53.083,RL,2022.2.4,60.20919081170494,
1,39,0,39,0,,,,,,,,,,None,381.9267087519984,381.9267087519984,381.9267087519984,381.9267087519984,381.9267087519984,381.9267087519984,i,0.3806908400001703,382.354325772998,382.354325772998,382.354325772998,382.354325772998,382.354325772998,382.354325772998,382.6206544489978,382.6206544489978,383.69409478699527,383.69409478699527,383.7343893599973,383.7343893599973,383.7343893599973,383.7343893599973,383.7343893599973,383.7343893599973,383.7343893599973,383.7343893599973,383.7343893599973,383.7343893599973,383.7343893599973,383.7343893599973,383.7343893599973,383.7343893599973,383.7343893599973,386.2380675029999,386.2380675029999,386.2380675029999,386.2380675029999,386.2380675029999,17,14,64,29,64,70,6.0,1.0204714159990544,387.27387545799866,389.23010819499905,,,,,,,147,f,19,2023-04-03_19h26.53.083,RL,2022.2.4,60.20919081170494,
1,40,0,40,0,,,,,,,,,,None,389.23010819499905,389.23010819499905,389.23010819499905,389.23010819499905,389.23010819499905,389.23010819499905,i,0.40084771999681834,389.6728812999936,389.6728812999936,389.6728812999936,389.6728812999936,389.6728812999936,389.6728812999936,389.94032233100006,389.94032233100006,391.63570616599463,391.63570616599463,391.6772875949973,391.6772875949973,391.6772875949973,391.6772875949973,391.6772875949973,391.6772875949973,391.6772875949973,391.6772875949973,391.6772875949973,391.6772875949973,391.6772875949973,391.6772875949973,391.6772875949973,391.6772875949973,391.6772875949973,394.1758344799964,394.1758344799964,394.1758344799964,394.1758344799964,394.1758344799964,24,15,70,27,70,75,5.0,2.4526038650001283,396.6425129239942,398.61745704099303,,,,,,,147,f,19,2023-04-03_19h26.53.083,RL,2022.2.4,60.20919081170494,
1,41,0,41,0,,,,,,,,,,None,398.61745704099303,398.61745704099303,398.61745704099303,398.61745704099303,398.61745704099303,398.61745704099303,i,0.38173703299980843,399.0432857209962,399.0432857209962,399.0432857209962,399.0432857209962,399.0432857209962,399.0432857209962,399.30867712899635,399.30867712899635,401.1276214909958,401.1276214909958,401.16812609299814,401.16812609299814,401.16812609299814,401.16812609299814,401.16812609299814,401.16812609299814,401.16812609299814,401.16812609299814,401.16812609299814,401.16812609299814,401.16812609299814,401.16812609299814,401.16812609299814,401.16812609299814,401.16812609299814,403.66802086599637,403.66802086599637,403.66802086599637,403.66802086599637,403.66802086599637,20,14,63,21,63,69,5.0,1.4978726279950934,405.17842950099293,406.921397029997,,,,,,,147,f,19,2023-04-03_19h26.53.083,RL,2022.2.4,60.20919081170494,
1,42,0,42,0,,,,,,,,,,None,406.921397029997,406.921397029997,406.921397029997,406.921397029997,406.921397029997,406.921397029997,r,0.2930690590001177,407.25706016499316,407.25706016499316,407.25706016499316,407.25706016499316,407.25706016499316,407.25706016499316,407.52859595399786,407.52859595399786,408.41782132399385,408.41782132399385,408.45776794799895,408.45776794799895,408.45776794799895,408.45776794799895,408.45776794799895,408.45776794799895,408.45776794799895,408.45776794799895,408.45776794799895,408.45776794799895,408.45776794799895,408.45776794799895,408.45776794799895,408.45776794799895,408.45776794799895,410.96840051899926,410.96840051899926,410.96840051899926,410.96840051899926,410.96840051899926,15,21,51,24,15,74,4.0,1.0159560500032967,411.9987868209937,413.5585290129966,,,,,,,147,f,19,2023-04-03_19h26.53.083,RL,2022.2.4,60.20919081170494,
1,43,0,43,0,,,,,,,,,,None,413.5585290129966,413.5585290129966,413.5585290129966,413.5585290129966,413.5585290129966,413.5585290129966,i,0.4037781500010169,414.01929149499483,414.01929149499483,414.01929149499483,414.01929149499483,414.01929149499483,414.01929149499483,414.2839590939984,414.2839590939984,415.4370610889964,415.4370610889964,415.4767417019975,415.4767417019975,415.4767417019975,415.4767417019975,415.4767417019975,415.4767417019975,415.4767417019975,415.4767417019975,415.4767417019975,415.4767417019975,415.4767417019975,415.4767417019975,415.4767417019975,415.4767417019975,415.4767417019975,417.9796304229967,417.9796304229967,417.9796304229967,417.9796304229967,417.9796304229967,23,20,55,23,55,77,4.0,0.5196397059989977,418.5140717239992,420.06117823399836,,,,,,,147,f,19,2023-04-03_19h26.53.083,RL,2022.2.4,60.20919081170494,
1,44,0,44,0,,,,,,,,,,None,420.06117823399836,420.06117823399836,420.06117823399836,420.06117823399836,420.06117823399836,420.06117823399836,i,0.3583295630014618,420.46371569399344,420.46371569399344,420.46371569399344,420.46371569399344,420.46371569399344,420.46371569399344,420.73361986099917,420.73361986099917,422.16157436799404,422.16157436799404,422.1816961889999,422.1816961889999,422.1816961889999,422.1816961889999,422.1816961889999,422.1816961889999,422.1816961889999,422.1816961889999,422.1816961889999,422.1816961889999,422.1816961889999,422.1816961889999,422.1816961889999,422.1816961889999,422.1816961889999,424.6903852839969,424.6903852839969,424.6903852839969,424.6903852839969,424.6903852839969,20,15,60,22,60,78,5.0,0.8831729759986047,425.5881832379964,427.41389278699353,,,,,,,147,f,19,2023-04-03_19h26.53.083,RL,2022.2.4,60.20919081170494,
1,45,0,45,0,,,,,,,,,,None,427.41389278699353,427.41389278699353,427.41389278699353,427.41389278699353,427.41389278699353,427.41389278699353,f,0.35406044000410475,427.8190310969949,427.8190310969949,427.8190310969949,427.8190310969949,427.8190310969949,427.8190310969949,428.0895709729957,428.0895709729957,429.1747772509989,429.1747772509989,429.2141799109959,429.2141799109959,429.2141799109959,429.2141799109959,429.2141799109959,429.2141799109959,429.2141799109959,429.2141799109959,429.2141799109959,429.2141799109959,429.2141799109959,429.2141799109959,429.2141799109959,429.2141799109959,429.2141799109959,431.71276161399874,431.71276161399874,431.71276161399874,431.71276161399874,431.71276161399874,22,20,64,23,20,78,4.0,1.3485942830011481,433.07563454399497,434.7501312539971,,,,,,,147,f,19,2023-04-03_19h26.53.083,RL,2022.2.4,60.20919081170494,
1,46,0,46,0,,,,,,,,,,None,434.7501312539971,434.7501312539971,434.7501312539971,434.7501312539971,434.7501312539971,434.7501312539971,i,0.2637481889978517,435.05644844799826,435.05644844799826,435.05644844799826,435.05644844799826,435.05644844799826,435.05644844799826,435.33553739099443,435.33553739099443,436.9982387239943,436.9982387239943,437.0211251599976,437.0211251599976,437.0211251599976,437.0211251599976,437.0211251599976,437.0211251599976,437.0211251599976,437.0211251599976,437.0211251599976,437.0211251599976,437.0211251599976,437.0211251599976,437.0211251599976,437.0211251599976,437.0211251599976,439.52102550399286,439.52102550399286,439.52102550399286,439.52102550399286,439.52102550399286,24,21,55,16,55,73,5.0,1.6624984449954354,441.19844731099874,442.93722267799603,,,,,,,147,f,19,2023-04-03_19h26.53.083,RL,2022.2.4,60.20919081170494,
1,47,0,47,0,,,,,,,,,,None,442.93722267799603,442.93722267799603,442.93722267799603,442.93722267799603,442.93722267799603,442.93722267799603,r,0.28783034200023394,443.2750599939973,443.2750599939973,443.2750599939973,443.2750599939973,443.2750599939973,443.2750599939973,443.5458761319969,443.5458761319969,444.58113156799664,444.58113156799664,444.62156276099995,444.62156276099995,444.62156276099995,444.62156276099995,444.62156276099995,444.62156276099995,444.62156276099995,444.62156276099995,444.62156276099995,444.62156276099995,444.62156276099995,444.62156276099995,444.62156276099995,444.62156276099995,444.62156276099995,447.1319505579959,447.1319505579959,447.1319505579959,447.1319505579959,447.1319505579959,27,34,53,23,27,75,4.0,1.0357759079997777,448.1805673219933,450.14245498599485,,,,,,,147,f,19,2023-04-03_19h26.53.083,RL,2022.2.4,60.20919081170494,
1,48,0,48,0,,,,,,,,,,None,450.14245498599485,450.14245498599485,450.14245498599485,450.14245498599485,450.14245498599485,450.14245498599485,i,0.34214174700173317,450.5299572599979,450.5299572599979,450.5299572599979,450.5299572599979,450.5299572599979,450.5299572599979,450.7981169509949,450.7981169509949,452.5145879269985,452.5145879269985,452.55563913499645,452.55563913499645,452.55563913499645,452.55563913499645,452.55563913499645,452.55563913499645,452.55563913499645,452.55563913499645,452.55563913499645,452.55563913499645,452.55563913499645,452.55563913499645,452.55563913499645,452.55563913499645,452.55563913499645,455.05483310099953,455.05483310099953,455.05483310099953,455.05483310099953,455.05483310099953,33,23,54,25,54,69,4.0,0.5338655469968216,455.60188562599797,457.1453147899956,,,,,,,147,f,19,2023-04-03_19h26.53.083,RL,2022.2.4,60.20919081170494,
1,49,0,49,0,,,,,,,,,,None,457.1453147899956,457.1453147899956,457.1453147899956,457.1453147899956,457.1453147899956,457.1453147899956,i,0.45244133999949554,457.63472749899665,457.63472749899665,457.63472749899665,457.63472749899665,457.63472749899665,457.63472749899665,457.90436550699815,457.90436550699815,459.15879298199434,459.15879298199434,459.1967736929946,459.1967736929946,459.1967736929946,459.1967736929946,459.1967736929946,459.1967736929946,459.1967736929946,459.1967736929946,459.1967736929946,459.1967736929946,459.1967736929946,459.1967736929946,459.1967736929946,459.1967736929946,459.1967736929946,461.71363982199546,461.71363982199546,461.71363982199546,461.71363982199546,461.71363982199546,26,16,56,18,56,79,4.0,1.6957657169987215,463.4204199969972,464.99697149199346,,,,,,,147,f,19,2023-04-03_19h26.53.083,RL,2022.2.4,60.20919081170494,
1,50,0,50,0,,,,,,,,,,None,464.99697149199346,464.99697149199346,464.99697149199346,464.99697149199346,464.99697149199346,464.99697149199346,i,0.446862015996885,465.48707542199554,465.48707542199554,465.48707542199554,465.48707542199554,465.48707542199554,465.48707542199554,465.756959939994,465.756959939994,466.57472957099526,466.57472957099526,466.6128561679943,466.6128561679943,466.6128561679943,466.6128561679943,466.6128561679943,466.6128561679943,466.6128561679943,466.6128561679943,466.6128561679943,466.6128561679943,466.6128561679943,466.6128561679943,466.6128561679943,466.6128561679943,466.6128561679943,469.11757090099854,469.11757090099854,469.11757090099854,469.11757090099854,469.11757090099854,26,22,59,24,59,79,4.0,0.9930325509994873,470.1265257269988,471.70248728799925,,,,,,,147,f,19,2023-04-03_19h26.53.083,RL,2022.2.4,60.20919081170494,
1,51,0,51,0,,,,,,,,,,None,471.70248728799925,471.70248728799925,471.70248728799925,471.70248728799925,471.70248728799925,471.70248728799925,r,0.3635328880045563,472.1128093469961,472.1128093469961,472.1128093469961,472.1128093469961,472.1128093469961,472.1128093469961,472.37745160699706,472.37745160699706,473.72239344499394,473.72239344499394,473.76384469299956,473.76384469299956,473.76384469299956,473.76384469299956,473.76384469299956,473.76384469299956,473.76384469299956,473.76384469299956,473.76384469299956,473.76384469299956,473.76384469299956,473.76384469299956,473.76384469299956,473.76384469299956,473.76384469299956,476.26137873900007,476.26137873900007,476.26137873900007,476.26137873900007,476.26137873900007,20,27,53,35,20,67,4.0,1.5359670620018733,477.8156607129931,479.70625729199674,,,,,,,147,f,19,2023-04-03_19h26.53.083,RL,2022.2.4,60.20919081170494,
1,52,0,52,0,,,,,,,,,,None,479.70625729199674,479.70625729199674,479.70625729199674,479.70625729199674,479.70625729199674,479.70625729199674,f,0.4895816330026719,480.244907622,480.244907622,480.244907622,480.244907622,480.244907622,480.244907622,480.5140118349955,480.5140118349955,481.36893406899617,481.36893406899617,481.4072648759975,481.4072648759975,481.4072648759975,481.4072648759975,481.4072648759975,481.4072648759975,481.4072648759975,481.4072648759975,481.4072648759975,481.4072648759975,481.4072648759975,481.4072648759975,481.4072648759975,481.4072648759975,481.4072648759975,483.9085449419945,483.9085449419945,483.9085449419945,483.9085449419945,483.9085449419945,22,23,48,26,23,80,5.0,1.728909368001041,485.65326988399465,487.45967424499395,,,,,,,147,f,19,2023-04-03_19h26.53.083,RL,2022.2.4,60.20919081170494,
1,53,0,53,0,,,,,,,,,,None,487.45967424499395,487.45967424499395,487.45967424499395,487.45967424499395,487.45967424499395,487.45967424499395,i,0.5115295520008658,488.0201144839957,488.0201144839957,488.0201144839957,488.0201144839957,488.0201144839957,488.0201144839957,488.2847407809968,488.2847407809968,489.160684511,489.160684511,489.20156995599973,489.20156995599973,489.20156995599973,489.20156995599973,489.20156995599973,489.20156995599973,489.20156995599973,489.20156995599973,489.20156995599973,489.20156995599973,489.20156995599973,489.20156995599973,489.20156995599973,489.20156995599973,489.20156995599973,491.7099808629937,491.7099808629937,491.7099808629937,491.7099808629937,491.7099808629937,17,30,50,25,50,86,5.0,0.74665257500601,492.47070441999676,494.04612363099295,,,,,,,147,f,19,2023-04-03_19h26.53.083,RL,2022.2.4,60.20919081170494,
1,54,0,54,0,,,,,,,,,,None,494.04612363099295,494.04612363099295,494.04612363099295,494.04612363099295,494.04612363099295,494.04612363099295,i,0.4136193840022315,494.5176069319932,494.5176069319932,494.5176069319932,494.5176069319932,494.5176069319932,494.5176069319932,494.78831383899524,494.78831383899524,496.576491257998,496.576491257998,496.59980965199793,496.59980965199793,496.59980965199793,496.59980965199793,496.59980965199793,496.59980965199793,496.59980965199793,496.59980965199793,496.59980965199793,496.59980965199793,496.59980965199793,496.59980965199793,496.59980965199793,496.59980965199793,496.59980965199793,499.1044103759996,499.1044103759996,499.1044103759996,499.1044103759996,499.1044103759996,19,23,55,16,55,80,5.0,1.139452273993811,500.25417557799665,501.91703202499775,,,,,,,147,f,19,2023-04-03_19h26.53.083,RL,2022.2.4,60.20919081170494,
1,55,0,55,0,,,,,,,,,,None,501.91703202499775,501.91703202499775,501.91703202499775,501.91703202499775,501.91703202499775,501.91703202499775,i,0.4034142480013543,502.3595424699961,502.3595424699961,502.3595424699961,502.3595424699961,502.3595424699961,502.3595424699961,502.6239239849965,502.6239239849965,504.4080329799981,504.4080329799981,504.4508485719998,504.4508485719998,504.4508485719998,504.4508485719998,504.4508485719998,504.4508485719998,504.4508485719998,504.4508485719998,504.4508485719998,504.4508485719998,504.4508485719998,504.4508485719998,504.4508485719998,504.4508485719998,504.4508485719998,506.9570560639986,506.9570560639986,506.9570560639986,506.9570560639986,506.9570560639986,21,26,48,16,48,80,4.0,1.157647995998559,508.1278714679938,509.9709823539961,,,,,,,147,f,19,2023-04-03_19h26.53.083,RL,2022.2.4,60.20919081170494,
1,56,0,56,0,,,,,,,,,,None,509.9709823539961,509.9709823539961,509.9709823539961,509.9709823539961,509.9709823539961,509.9709823539961,i,0.4077466859962442,510.4303091969996,510.4303091969996,510.4303091969996,510.4303091969996,510.4303091969996,510.4303091969996,510.6962941409947,510.6962941409947,511.79856451399974,511.79856451399974,511.8386619469966,511.8386619469966,511.8386619469966,511.8386619469966,511.8386619469966,511.8386619469966,511.8386619469966,511.8386619469966,511.8386619469966,511.8386619469966,511.8386619469966,511.8386619469966,511.8386619469966,511.8386619469966,511.8386619469966,514.3496582309963,514.3496582309963,514.3496582309963,514.3496582309963,514.3496582309963,16,31,52,22,52,77,4.0,0.5979596649995074,514.960322011997,516.8894284479975,,,,,,,147,f,19,2023-04-03_19h26.53.083,RL,2022.2.4,60.20919081170494,
1,57,0,57,0,,,,,,,,,,None,516.8894284479975,516.8894284479975,516.8894284479975,516.8894284479975,516.8894284479975,516.8894284479975,i,0.4758216959962738,517.4122651009966,517.4122651009966,517.4122651009966,517.4122651009966,517.4122651009966,517.4122651009966,517.6814617469936,517.6814617469936,519.1190653779995,519.1190653779995,519.1606313719967,519.1606313719967,519.1606313719967,519.1606313719967,519.1606313719967,519.1606313719967,519.1606313719967,519.1606313719967,519.1606313719967,519.1606313719967,519.1606313719967,519.1606313719967,519.1606313719967,519.1606313719967,519.1606313719967,521.6607630869985,521.6607630869985,521.6607630869985,521.6607630869985,521.6607630869985,23,24,42,15,42,82,3.0,1.808944842996425,523.4849448009991,525.0609018259929,,,,,,,147,f,19,2023-04-03_19h26.53.083,RL,2022.2.4,60.20919081170494,
1,58,0,58,0,,,,,,,,,,None,525.0609018259929,525.0609018259929,525.0609018259929,525.0609018259929,525.0609018259929,525.0609018259929,j,0.2787726050009951,525.388815954997,525.388815954997,525.388815954997,525.388815954997,525.388815954997,525.388815954997,525.6552221499951,525.6552221499951,526.8278168739998,526.8278168739998,526.869345592997,526.869345592997,526.869345592997,526.869345592997,526.869345592997,526.869345592997,526.869345592997,526.869345592997,526.869345592997,526.869345592997,526.869345592997,526.869345592997,526.869345592997,526.869345592997,526.869345592997,529.3799979999967,529.3799979999967,529.3799979999967,529.3799979999967,529.3799979999967,12,31,55,19,19,71,3.0,0.5604464029966039,529.9510091639968,531.697184880999,,,,,,,147,f,19,2023-04-03_19h26.53.083,RL,2022.2.4,60.20919081170494,
1,59,0,59,0,,,,,,,,,,None,531.697184880999,531.697184880999,531.697184880999,531.697184880999,531.697184880999,531.697184880999,i,0.29776500699517783,532.0334134509976,532.0334134509976,532.0334134509976,532.0334134509976,532.0334134509976,532.0334134509976,532.3042199549964,532.3042199549964,533.9846811989992,533.9846811989992,534.0079726239928,534.0079726239928,534.0079726239928,534.0079726239928,534.0079726239928,534.0079726239928,534.0079726239928,534.0079726239928,534.0079726239928,534.0079726239928,534.0079726239928,534.0079726239928,534.0079726239928,534.0079726239928,534.0079726239928,536.5140940469937,536.5140940469937,536.5140940469937,536.5140940469937,536.5140940469937,26,28,47,16,47,72,4.0,0.7289559319979162,537.2539008729946,538.9167632199969,,,,,,,147,f,19,2023-04-03_19h26.53.083,RL,2022.2.4,60.20919081170494,
1,60,0,60,0,,,,,,,,,,None,538.9167632199969,538.9167632199969,538.9167632199969,538.9167632199969,538.9167632199969,538.9167632199969,i,0.35027602699847193,539.3244810199976,539.3244810199976,539.3244810199976,539.3244810199976,539.3244810199976,539.3244810199976,539.5929532659939,539.5929532659939,540.9283206519976,540.9283206519976,540.968196733993,540.968196733993,540.968196733993,540.968196733993,540.968196733993,540.968196733993,540.968196733993,540.968196733993,540.968196733993,540.968196733993,540.968196733993,540.968196733993,540.968196733993,540.968196733993,540.968196733993,543.4648956439996,543.4648956439996,543.4648956439996,543.4648956439996,543.4648956439996,15,32,61,15,61,66,5.0,0.866770025997539,544.3464812449965,546.3547496159954,,,,,,,147,f,19,2023-04-03_19h26.53.083,RL,2022.2.4,60.20919081170494,
1,61,0,61,0,,,,,,,,,,None,546.3547496159954,546.3547496159954,546.3547496159954,546.3547496159954,546.3547496159954,546.3547496159954,i,0.29398655200202484,546.6984580019998,546.6984580019998,546.6984580019998,546.6984580019998,546.6984580019998,546.6984580019998,546.9656034319996,546.9656034319996,548.2479767339973,548.2479767339973,548.2877390469948,548.2877390469948,548.2877390469948,548.2877390469948,548.2877390469948,548.2877390469948,548.2877390469948,548.2877390469948,548.2877390469948,548.2877390469948,548.2877390469948,548.2877390469948,548.2877390469948,548.2877390469948,548.2877390469948,550.7908106889954,550.7908106889954,550.7908106889954,550.7908106889954,550.7908106889954,19,21,59,14,59,69,5.0,0.44470690000161994,551.2483270819939,552.7911171739979,,,,,,,147,f,19,2023-04-03_19h26.53.083,RL,2022.2.4,60.20919081170494,
1,62,0,62,0,,,,,,,,,,None,552.7911171739979,552.7911171739979,552.7911171739979,552.7911171739979,552.7911171739979,552.7911171739979,i,0.4485151249973569,553.2936379409948,553.2936379409948,553.2936379409948,553.2936379409948,553.2936379409948,553.2936379409948,553.5655225559967,553.5655225559967,554.9822252349986,554.9822252349986,555.0048036169974,555.0048036169974,555.0048036169974,555.0048036169974,555.0048036169974,555.0048036169974,555.0048036169974,555.0048036169974,555.0048036169974,555.0048036169974,555.0048036169974,555.0048036169974,555.0048036169974,555.0048036169974,555.0048036169974,557.5023830999999,557.5023830999999,557.5023830999999,557.5023830999999,557.5023830999999,25,21,58,10,58,86,4.0,0.8507563710008981,558.3666120519993,560.327958652997,,,,,,,147,f,19,2023-04-03_19h26.53.083,RL,2022.2.4,60.20919081170494,
1,63,0,63,0,,,,,,,,,,None,560.327958652997,560.327958652997,560.327958652997,560.327958652997,560.327958652997,560.327958652997,i,0.40801117299997713,560.7891202669998,560.7891202669998,560.7891202669998,560.7891202669998,560.7891202669998,560.7891202669998,561.0538353259981,561.0538353259981,562.1708216009938,562.1708216009938,562.2109182539934,562.2109182539934,562.2109182539934,562.2109182539934,562.2109182539934,562.2109182539934,562.2109182539934,562.2109182539934,562.2109182539934,562.2109182539934,562.2109182539934,562.2109182539934,562.2109182539934,562.2109182539934,562.2109182539934,564.7067267319944,564.7067267319944,564.7067267319944,564.7067267319944,564.7067267319944,20,22,55,14,55,81,4.0,0.43420598200464156,565.1550090249948,567.0472510739928,,,,,,,147,f,19,2023-04-03_19h26.53.083,RL,2022.2.4,60.20919081170494,
1,64,0,64,0,,,,,,,,,,None,567.0472510739928,567.0472510739928,567.0472510739928,567.0472510739928,567.0472510739928,567.0472510739928,i,0.47080425699823536,567.5567786259999,567.5567786259999,567.5567786259999,567.5567786259999,567.5567786259999,567.5567786259999,567.8225557639962,567.8225557639962,568.7697947009947,568.7697947009947,568.8105713469995,568.8105713469995,568.8105713469995,568.8105713469995,568.8105713469995,568.8105713469995,568.8105713469995,568.8105713469995,568.8105713469995,568.8105713469995,568.8105713469995,568.8105713469995,568.8105713469995,568.8105713469995,568.8105713469995,571.3168607849948,571.3168607849948,571.3168607849948,571.3168607849948,571.3168607849948,28,19,61,10,61,88,4.0,0.7588986629998544,572.0899508769944,573.9843022799978,,,,,,,147,f,19,2023-04-03_19h26.53.083,RL,2022.2.4,60.20919081170494,
1,65,0,65,0,,,,,,,,,,None,573.9843022799978,573.9843022799978,573.9843022799978,573.9843022799978,573.9843022799978,573.9843022799978,i,0.9603445930042653,574.9894901009975,574.9894901009975,574.9894901009975,574.9894901009975,574.9894901009975,574.9894901009975,575.2575476179991,575.2575476179991,576.1085352159935,576.1085352159935,576.1500865089984,576.1500865089984,576.1500865089984,576.1500865089984,576.1500865089984,576.1500865089984,576.1500865089984,576.1500865089984,576.1500865089984,576.1500865089984,576.1500865089984,576.1500865089984,576.1500865089984,576.1500865089984,576.1500865089984,578.6472492469984,578.6472492469984,578.6472492469984,578.6472492469984,578.6472492469984,23,23,63,13,63,67,4.0,0.6970325849979417,579.3568010699964,580.8701958829988,,,,,,,147,f,19,2023-04-03_19h26.53.083,RL,2022.2.4,60.20919081170494,
1,66,0,66,0,,,,,,,,,,None,580.8701958829988,580.8701958829988,580.8701958829988,580.8701958829988,580.8701958829988,580.8701958829988,i,0.35682877699582605,581.2731572169942,581.2731572169942,581.2731572169942,581.2731572169942,581.2731572169942,581.2731572169942,581.5452149649936,581.5452149649936,583.0428796069973,583.0428796069973,583.084117568993,583.084117568993,583.084117568993,583.084117568993,583.084117568993,583.084117568993,583.084117568993,583.084117568993,583.084117568993,583.084117568993,583.084117568993,583.084117568993,583.084117568993,583.084117568993,583.084117568993,585.5884381259966,585.5884381259966,585.5884381259966,585.5884381259966,585.5884381259966,6,24,71,20,71,87,5.0,0.964577686994744,586.5669062919987,588.5083363249942,,,,,,,147,f,19,2023-04-03_19h26.53.083,RL,2022.2.4,60.20919081170494,
1,67,0,67,0,,,,,,,,,,None,588.5083363249942,588.5083363249942,588.5083363249942,588.5083363249942,588.5083363249942,588.5083363249942,f,0.23565600899746642,588.794209189,588.794209189,588.794209189,588.794209189,588.794209189,588.794209189,589.059453130998,589.059453130998,589.869229306998,589.869229306998,589.9090703709953,589.9090703709953,589.9090703709953,589.9090703709953,589.9090703709953,589.9090703709953,589.9090703709953,589.9090703709953,589.9090703709953,589.9090703709953,589.9090703709953,589.9090703709953,589.9090703709953,589.9090703709953,589.9090703709953,592.4136160319977,592.4136160319977,592.4136160319977,592.4136160319977,592.4136160319977,12,27,63,18,27,72,4.0,0.775681794002594,593.2032543779933,594.9784036499987,,,,,,,147,f,19,2023-04-03_19h26.53.083,RL,2022.2.4,60.20919081170494,
1,68,0,68,0,,,,,,,,,,None,594.9784036499987,594.9784036499987,594.9784036499987,594.9784036499987,594.9784036499987,594.9784036499987,i,0.30599491999601014,595.3387803519945,595.3387803519945,595.3387803519945,595.3387803519945,595.3387803519945,595.3387803519945,595.6056103629962,595.6056103629962,596.4288448569932,596.4288448569932,596.4675163099964,596.4675163099964,596.4675163099964,596.4675163099964,596.4675163099964,596.4675163099964,596.4675163099964,596.4675163099964,596.4675163099964,596.4675163099964,596.4675163099964,596.4675163099964,596.4675163099964,596.4675163099964,596.4675163099964,598.9769878449952,598.9769878449952,598.9769878449952,598.9769878449952,598.9769878449952,14,22,61,19,61,90,3.0,0.7147476419995655,599.7046750159934,601.4140685349994,,,,,,,147,f,19,2023-04-03_19h26.53.083,RL,2022.2.4,60.20919081170494,
1,69,0,69,0,,,,,,,,,,None,601.4140685349994,601.4140685349994,601.4140685349994,601.4140685349994,601.4140685349994,601.4140685349994,i,0.4289590750049683,601.8924221159978,601.8924221159978,601.8924221159978,601.8924221159978,601.8924221159978,601.8924221159978,602.1584769039982,602.1584769039982,603.2494466339995,603.2494466339995,603.2886906379936,603.2886906379936,603.2886906379936,603.2886906379936,603.2886906379936,603.2886906379936,603.2886906379936,603.2886906379936,603.2886906379936,603.2886906379936,603.2886906379936,603.2886906379936,603.2886906379936,603.2886906379936,603.2886906379936,605.7928970629946,605.7928970629946,605.7928970629946,605.7928970629946,605.7928970629946,7,24,75,17,75,80,5.0,0.6180582439992577,606.424484102994,608.2822131539942,,,,,,,147,f,19,2023-04-03_19h26.53.083,RL,2022.2.4,60.20919081170494,
1,70,0,70,0,,,,,,,,,,None,608.2822131539942,608.2822131539942,608.2822131539942,608.2822131539942,608.2822131539942,608.2822131539942,i,0.31743781799741555,608.6551838489977,608.6551838489977,608.6551838489977,608.6551838489977,608.6551838489977,608.6551838489977,608.9259939399999,608.9259939399999,610.6397169119955,610.6397169119955,610.6800660249937,610.6800660249937,610.6800660249937,610.6800660249937,610.6800660249937,610.6800660249937,610.6800660249937,610.6800660249937,610.6800660249937,610.6800660249937,610.6800660249937,610.6800660249937,610.6800660249937,610.6800660249937,610.6800660249937,613.1887099529995,613.1887099529995,613.1887099529995,613.1887099529995,613.1887099529995,12,28,68,21,68,83,5.0,0.40766085899667814,613.6087645659936,615.4540950419978,,,,,,,147,f,19,2023-04-03_19h26.53.083,RL,2022.2.4,60.20919081170494,
1,71,0,71,0,,,,,,,,,,None,615.4540950419978,615.4540950419978,615.4540950419978,615.4540950419978,615.4540950419978,615.4540950419978,i,0.3653530099982163,615.8747726559959,615.8747726559959,615.8747726559959,615.8747726559959,615.8747726559959,615.8747726559959,616.1441791529942,616.1441791529942,617.4437614889976,617.4437614889976,617.4843657349993,617.4843657349993,617.4843657349993,617.4843657349993,617.4843657349993,617.4843657349993,617.4843657349993,617.4843657349993,617.4843657349993,617.4843657349993,617.4843657349993,617.4843657349993,617.4843657349993,617.4843657349993,617.4843657349993,619.9874141239998,619.9874141239998,619.9874141239998,619.9874141239998,619.9874141239998,11,40,71,18,71,70,6.0,0.8151135070002056,620.815084640999,622.6905025889937,,,,,,,147,f,19,2023-04-03_19h26.53.083,RL,2022.2.4,60.20919081170494,
1,72,0,72,0,,,,,,,,,,None,622.6905025889937,622.6905025889937,622.6905025889937,622.6905025889937,622.6905025889937,622.6905025889937,i,0.27243393400567584,623.0112069849929,623.0112069849929,623.0112069849929,623.0112069849929,623.0112069849929,623.0112069849929,623.2811590919955,623.2811590919955,624.5189775019971,624.5189775019971,624.5590920879986,624.5590920879986,624.5590920879986,624.5590920879986,624.5590920879986,624.5590920879986,624.5590920879986,624.5590920879986,624.5590920879986,624.5590920879986,624.5590920879986,624.5590920879986,624.5590920879986,624.5590920879986,624.5590920879986,627.0547466079952,627.0547466079952,627.0547466079952,627.0547466079952,627.0547466079952,19,42,71,17,71,81,5.0,0.7151068950042827,627.7836277879978,629.5945662829981,,,,,,,147,f,19,2023-04-03_19h26.53.083,RL,2022.2.4,60.20919081170494,
1,73,0,73,0,,,,,,,,,,None,629.5945662829981,629.5945662829981,629.5945662829981,629.5945662829981,629.5945662829981,629.5945662829981,i,0.3149121250025928,629.9659932269933,629.9659932269933,629.9659932269933,629.9659932269933,629.9659932269933,629.9659932269933,630.2358674639981,630.2358674639981,631.7824011179982,631.7824011179982,631.8064040219979,631.8064040219979,631.8064040219979,631.8064040219979,631.8064040219979,631.8064040219979,631.8064040219979,631.8064040219979,631.8064040219979,631.8064040219979,631.8064040219979,631.8064040219979,631.8064040219979,631.8064040219979,631.8064040219979,634.3205608839999,634.3205608839999,634.3205608839999,634.3205608839999,634.3205608839999,18,35,71,19,71,66,6.0,0.5709951640019426,634.9047899599973,636.5141426279952,,,,,,,147,f,19,2023-04-03_19h26.53.083,RL,2022.2.4,60.20919081170494,
1,74,0,74,0,,,,,,,,,,None,636.5141426279952,636.5141426279952,636.5141426279952,636.5141426279952,636.5141426279952,636.5141426279952,i,0.3112274650047766,636.8703249669998,636.8703249669998,636.8703249669998,636.8703249669998,636.8703249669998,636.8703249669998,637.138707954,637.138707954,638.7662413939979,638.7662413939979,638.7877744609941,638.7877744609941,638.7877744609941,638.7877744609941,638.7877744609941,638.7877744609941,638.7877744609941,638.7877744609941,638.7877744609941,638.7877744609941,638.7877744609941,638.7877744609941,638.7877744609941,638.7877744609941,638.7877744609941,641.2992062719932,641.2992062719932,641.2992062719932,641.2992062719932,641.2992062719932,18,33,76,23,76,77,5.0,1.0964027909940341,642.4063395589983,644.2151446949938,,,,,,,147,f,19,2023-04-03_19h26.53.083,RL,2022.2.4,60.20919081170494,
1,75,0,75,0,,,,,,,,,,q,670.8157156359957,670.8157156359957,670.8157156359957,670.8157156359957,670.8157156359957,670.8157156359957,i,0.5055703060061205,671.3693282299937,671.3693282299937,671.3693282299937,671.3693282299937,671.3693282299937,671.3693282299937,671.637199498,671.637199498,673.0832097099992,673.0832097099992,673.1236060189985,673.1236060189985,673.1236060189985,673.1236060189985,673.1236060189985,673.1236060189985,673.1236060189985,673.1236060189985,673.1236060189985,673.1236060189985,673.1236060189985,673.1236060189985,673.1236060189985,673.1236060189985,673.1236060189985,675.6333486449948,675.6333486449948,675.6333486449948,675.6333486449948,675.6333486449948,25,35,78,23,78,62,6.0,0.5504142279969528,676.1989523269949,677.8666739659966,644.2151446949938,644.2151446949938,26.562888492997445,,,,147,f,19,2023-04-03_19h26.53.083,RL,2022.2.4,60.20919081170494,
1,76,0,76,0,,,,,,,,,,None,677.8666739659966,677.8666739659966,677.8666739659966,677.8666739659966,677.8666739659966,677.8666739659966,i,0.30023032699682517,678.2199570959929,678.2199570959929,678.2199570959929,678.2199570959929,678.2199570959929,678.2199570959929,678.4918681899944,678.4918681899944,679.4520634459986,679.4520634459986,679.4944415179998,679.4944415179998,679.4944415179998,679.4944415179998,679.4944415179998,679.4944415179998,679.4944415179998,679.4944415179998,679.4944415179998,679.4944415179998,679.4944415179998,679.4944415179998,679.4944415179998,679.4944415179998,679.4944415179998,681.9954452419988,681.9954452419988,681.9954452419988,681.9954452419988,681.9954452419988,19,26,73,27,73,67,6.0,0.4825991339967004,682.4908860649957,684.1201815319946,,,,,,,147,f,19,2023-04-03_19h26.53.083,RL,2022.2.4,60.20919081170494,
1,77,0,77,0,,,,,,,,,,None,684.1201815319946,684.1201815319946,684.1201815319946,684.1201815319946,684.1201815319946,684.1201815319946,i,0.8107914130014251,684.9809913329955,684.9809913329955,684.9809913329955,684.9809913329955,684.9809913329955,684.9809913329955,685.2492285519984,685.2492285519984,686.762833378998,686.762833378998,686.8029355309991,686.8029355309991,686.8029355309991,686.8029355309991,686.8029355309991,686.8029355309991,686.8029355309991,686.8029355309991,686.8029355309991,686.8029355309991,686.8029355309991,686.8029355309991,686.8029355309991,686.8029355309991,686.8029355309991,689.306353133994,689.306353133994,689.306353133994,689.306353133994,689.306353133994,21,31,68,24,68,73,5.0,0.5618584669937263,689.8826528739955,691.6734474859986,,,,,,,147,f,19,2023-04-03_19h26.53.083,RL,2022.2.4,60.20919081170494,
1,78,0,78,0,,,,,,,,,,None,691.6734474859986,691.6734474859986,691.6734474859986,691.6734474859986,691.6734474859986,691.6734474859986,i,0.30260063800233183,692.0284385869963,692.0284385869963,692.0284385869963,692.0284385869963,692.0284385869963,692.0284385869963,692.2982424559959,692.2982424559959,693.9451093529933,693.9451093529933,693.9679848539963,693.9679848539963,693.9679848539963,693.9679848539963,693.9679848539963,693.9679848539963,693.9679848539963,693.9679848539963,693.9679848539963,693.9679848539963,693.9679848539963,693.9679848539963,693.9679848539963,693.9679848539963,693.9679848539963,696.4715691909951,696.4715691909951,696.4715691909951,696.4715691909951,696.4715691909951,19,25,71,28,71,67,6.0,0.6120803680023528,697.0962352849965,698.9100651559929,,,,,,,147,f,19,2023-04-03_19h26.53.083,RL,2022.2.4,60.20919081170494,
1,79,0,79,0,,,,,,,,,,None,698.9100651559929,698.9100651559929,698.9100651559929,698.9100651559929,698.9100651559929,698.9100651559929,i,0.30154125099943485,699.2497929109959,699.2497929109959,699.2497929109959,699.2497929109959,699.2497929109959,699.2497929109959,699.519938460995,699.519938460995,700.6950250099981,700.6950250099981,700.7154037649962,700.7154037649962,700.7154037649962,700.7154037649962,700.7154037649962,700.7154037649962,700.7154037649962,700.7154037649962,700.7154037649962,700.7154037649962,700.7154037649962,700.7154037649962,700.7154037649962,700.7154037649962,700.7154037649962,703.2266486299995,703.2266486299995,703.2266486299995,703.2266486299995,703.2266486299995,31,24,68,27,68,70,6.0,0.5788171820022399,703.8167986699991,705.5800087669995,,,,,,,147,f,19,2023-04-03_19h26.53.083,RL,2022.2.4,60.20919081170494,
1,80,0,80,0,,,,,,,,,,None,705.5800087669995,705.5800087669995,705.5800087669995,705.5800087669995,705.5800087669995,705.5800087669995,i,0.2700265810053679,705.8864877609958,705.8864877609958,705.8864877609958,705.8864877609958,705.8864877609958,705.8864877609958,706.1542010679987,706.1542010679987,708.1043134869979,708.1043134869979,708.1438674609963,708.1438674609963,708.1438674609963,708.1438674609963,708.1438674609963,708.1438674609963,708.1438674609963,708.1438674609963,708.1438674609963,708.1438674609963,708.1438674609963,708.1438674609963,708.1438674609963,708.1438674609963,708.1438674609963,710.6440403819943,710.6440403819943,710.6440403819943,710.6440403819943,710.6440403819943,34,28,64,35,64,76,5.0,0.5697863520035753,711.2320773179963,713.2340325189944,,,,,,,147,f,19,2023-04-03_19h26.53.083,RL,2022.2.4,60.20919081170494,
1,81,0,81,0,,,,,,,,,,None,713.2340325189944,713.2340325189944,713.2340325189944,713.2340325189944,713.2340325189944,713.2340325189944,i,0.4429860849995748,713.7276807889939,713.7276807889939,713.7276807889939,713.7276807889939,713.7276807889939,713.7276807889939,713.9964443179997,713.9964443179997,714.8355338039983,714.8355338039983,714.8552199769983,714.8552199769983,714.8552199769983,714.8552199769983,714.8552199769983,714.8552199769983,714.8552199769983,714.8552199769983,714.8552199769983,714.8552199769983,714.8552199769983,714.8552199769983,714.8552199769983,714.8552199769983,714.8552199769983,717.3681730139942,717.3681730139942,717.3681730139942,717.3681730139942,717.3681730139942,36,34,71,37,71,75,5.0,0.3770422050001798,717.7563952499986,719.2860598649931,,,,,,,147,f,19,2023-04-03_19h26.53.083,RL,2022.2.4,60.20919081170494,
1,82,0,82,0,,,,,,,,,,None,719.2860598649931,719.2860598649931,719.2860598649931,719.2860598649931,719.2860598649931,719.2860598649931,i,0.535830729000736,719.8743051149941,719.8743051149941,719.8743051149941,719.8743051149941,719.8743051149941,719.8743051149941,720.1432117799995,720.1432117799995,721.413191060994,721.413191060994,721.4378512269977,721.4378512269977,721.4378512269977,721.4378512269977,721.4378512269977,721.4378512269977,721.4378512269977,721.4378512269977,721.4378512269977,721.4378512269977,721.4378512269977,721.4378512269977,721.4378512269977,721.4378512269977,721.4378512269977,723.9332823039949,723.9332823039949,723.9332823039949,723.9332823039949,723.9332823039949,38,27,65,38,65,72,5.0,0.9652730369998608,724.9124487969966,726.8065697229977,,,,,,,147,f,19,2023-04-03_19h26.53.083,RL,2022.2.4,60.20919081170494,
1,83,0,83,0,,,,,,,,,,None,726.8065697229977,726.8065697229977,726.8065697229977,726.8065697229977,726.8065697229977,726.8065697229977,i,0.33782099000382004,727.1992571939991,727.1992571939991,727.1992571939991,727.1992571939991,727.1992571939991,727.1992571939991,727.465199814993,727.465199814993,728.6467229019981,728.6467229019981,728.686719366,728.686719366,728.686719366,728.686719366,728.686719366,728.686719366,728.686719366,728.686719366,728.686719366,728.686719366,728.686719366,728.686719366,728.686719366,728.686719366,728.686719366,731.2015154419933,731.2015154419933,731.2015154419933,731.2015154419933,731.2015154419933,41,31,69,31,69,74,5.0,0.8673468429988134,732.0822747649945,733.7937237679944,,,,,,,147,f,19,2023-04-03_19h26.53.083,RL,2022.2.4,60.20919081170494,
1,84,0,84,0,,,,,,,,,,None,733.7937237679944,733.7937237679944,733.7937237679944,733.7937237679944,733.7937237679944,733.7937237679944,i,0.5092824730018037,734.3489850959959,734.3489850959959,734.3489850959959,734.3489850959959,734.3489850959959,734.3489850959959,734.618237840994,734.618237840994,736.3792997959972,736.3792997959972,736.4198096399996,736.4198096399996,736.4198096399996,736.4198096399996,736.4198096399996,736.4198096399996,736.4198096399996,736.4198096399996,736.4198096399996,736.4198096399996,736.4198096399996,736.4198096399996,736.4198096399996,736.4198096399996,736.4198096399996,738.9221509069976,738.9221509069976,738.9221509069976,738.9221509069976,738.9221509069976,33,31,74,25,74,72,6.0,0.6015001890045824,739.5382546299952,741.18003761,,,,,,,147,f,19,2023-04-03_19h26.53.083,RL,2022.2.4,60.20919081170494,
1,85,0,85,0,,,,,,,,,,None,741.18003761,741.18003761,741.18003761,741.18003761,741.18003761,741.18003761,i,0.4846834130003117,741.706265336994,741.706265336994,741.706265336994,741.706265336994,741.706265336994,741.706265336994,741.9717059279938,741.9717059279938,743.0225300329985,743.0225300329985,743.0626792729963,743.0626792729963,743.0626792729963,743.0626792729963,743.0626792729963,743.0626792729963,743.0626792729963,743.0626792729963,743.0626792729963,743.0626792729963,743.0626792729963,743.0626792729963,743.0626792729963,743.0626792729963,743.0626792729963,745.5600554239936,745.5600554239936,745.5600554239936,745.5600554239936,745.5600554239936,37,34,72,32,72,71,6.0,0.397494065000501,745.9695238669956,747.7836339279966,,,,,,,147,f,19,2023-04-03_19h26.53.083,RL,2022.2.4,60.20919081170494,
1,86,0,86,0,,,,,,,,,,None,747.7836339279966,747.7836339279966,747.7836339279966,747.7836339279966,747.7836339279966,747.7836339279966,i,0.3595986049986095,748.1937820179955,748.1937820179955,748.1937820179955,748.1937820179955,748.1937820179955,748.1937820179955,748.4595570109959,748.4595570109959,749.4613744499948,749.4613744499948,749.5015033149975,749.5015033149975,749.5015033149975,749.5015033149975,749.5015033149975,749.5015033149975,749.5015033149975,749.5015033149975,749.5015033149975,749.5015033149975,749.5015033149975,749.5015033149975,749.5015033149975,749.5015033149975,749.5015033149975,751.9998058739948,751.9998058739948,751.9998058739948,751.9998058739948,751.9998058739948,45,39,73,31,73,65,7.0,0.9824490249957307,752.9965312819986,754.5533604459997,,,,,,,147,f,19,2023-04-03_19h26.53.083,RL,2022.2.4,60.20919081170494,
1,87,0,87,0,,,,,,,,,,None,754.5533604459997,754.5533604459997,754.5533604459997,754.5533604459997,754.5533604459997,754.5533604459997,i,0.39120043000002624,754.9917390689952,754.9917390689952,754.9917390689952,754.9917390689952,754.9917390689952,754.9917390689952,755.2617465569929,755.2617465569929,756.91217702,756.91217702,756.9344147479933,756.9344147479933,756.9344147479933,756.9344147479933,756.9344147479933,756.9344147479933,756.9344147479933,756.9344147479933,756.9344147479933,756.9344147479933,756.9344147479933,756.9344147479933,756.9344147479933,756.9344147479933,756.9344147479933,759.4496284159977,759.4496284159977,759.4496284159977,759.4496284159977,759.4496284159977,28,26,71,30,71,63,7.0,0.9996070259949192,760.4629056629929,762.0229172839972,,,,,,,147,f,19,2023-04-03_19h26.53.083,RL,2022.2.4,60.20919081170494,
1,88,0,88,0,,,,,,,,,,None,762.0229172839972,762.0229172839972,762.0229172839972,762.0229172839972,762.0229172839972,762.0229172839972,i,0.5976474560011411,762.6662765289948,762.6662765289948,762.6662765289948,762.6662765289948,762.6662765289948,762.6662765289948,762.9324863719958,762.9324863719958,764.5486161319932,764.5486161319932,764.5727716869951,764.5727716869951,764.5727716869951,764.5727716869951,764.5727716869951,764.5727716869951,764.5727716869951,764.5727716869951,764.5727716869951,764.5727716869951,764.5727716869951,764.5727716869951,764.5727716869951,764.5727716869951,764.5727716869951,767.0862883169975,767.0862883169975,767.0862883169975,767.0862883169975,767.0862883169975,33,38,61,29,61,71,5.0,0.7332894850042067,767.8326224079938,769.677139691994,,,,,,,147,f,19,2023-04-03_19h26.53.083,RL,2022.2.4,60.20919081170494,
1,89,0,89,0,,,,,,,,,,None,769.677139691994,769.677139691994,769.677139691994,769.677139691994,769.677139691994,769.677139691994,i,0.29237531700346153,770.0209775919939,770.0209775919939,770.0209775919939,770.0209775919939,770.0209775919939,770.0209775919939,770.2876638309972,770.2876638309972,771.4284916529941,771.4284916529941,771.4676282129949,771.4676282129949,771.4676282129949,771.4676282129949,771.4676282129949,771.4676282129949,771.4676282129949,771.4676282129949,771.4676282129949,771.4676282129949,771.4676282129949,771.4676282129949,771.4676282129949,771.4676282129949,771.4676282129949,773.9718095989956,773.9718095989956,773.9718095989956,773.9718095989956,773.9718095989956,33,32,63,32,63,71,5.0,0.5171303989991429,774.5025356609985,776.4465122019974,,,,,,,147,f,19,2023-04-03_19h26.53.083,RL,2022.2.4,60.20919081170494,
1,90,0,90,0,,,,,,,,,,None,776.4465122019974,776.4465122019974,776.4465122019974,776.4465122019974,776.4465122019974,776.4465122019974,i,0.4519648139976198,776.9387700499938,776.9387700499938,776.9387700499938,776.9387700499938,776.9387700499938,776.9387700499938,777.2055213009953,777.2055213009953,778.1499585589991,778.1499585589991,778.1915796749963,778.1915796749963,778.1915796749963,778.1915796749963,778.1915796749963,778.1915796749963,778.1915796749963,778.1915796749963,778.1915796749963,778.1915796749963,778.1915796749963,778.1915796749963,778.1915796749963,778.1915796749963,778.1915796749963,780.6917621709945,780.6917621709945,780.6917621709945,780.6917621709945,780.6917621709945,40,30,60,29,60,60,6.0,0.9329688800062286,781.637443183994,783.2832690009964,,,,,,,147,f,19,2023-04-03_19h26.53.083,RL,2022.2.4,60.20919081170494,
1,91,0,91,0,,,,,,,,,,None,783.2832690009964,783.2832690009964,783.2832690009964,783.2832690009964,783.2832690009964,783.2832690009964,i,0.3244297330020345,783.6562012789946,783.6562012789946,783.6562012789946,783.6562012789946,783.6562012789946,783.6562012789946,783.9237210649953,783.9237210649953,785.4330491099972,785.4330491099972,785.4736210179981,785.4736210179981,785.4736210179981,785.4736210179981,785.4736210179981,785.4736210179981,785.4736210179981,785.4736210179981,785.4736210179981,785.4736210179981,785.4736210179981,785.4736210179981,785.4736210179981,785.4736210179981,785.4736210179981,787.9810631129949,787.9810631129949,787.9810631129949,787.9810631129949,787.9810631129949,45,36,57,32,57,53,6.0,0.39807108599779895,788.3925914229985,790.3524140629961,,,,,,,147,f,19,2023-04-03_19h26.53.083,RL,2022.2.4,60.20919081170494,
1,92,0,92,0,,,,,,,,,,None,790.3524140629961,790.3524140629961,790.3524140629961,790.3524140629961,790.3524140629961,790.3524140629961,i,0.3156766530009918,790.7065171629947,790.7065171629947,790.7065171629947,790.7065171629947,790.7065171629947,790.7065171629947,790.9776441529975,790.9776441529975,792.9449081099956,792.9449081099956,792.9865209219934,792.9865209219934,792.9865209219934,792.9865209219934,792.9865209219934,792.9865209219934,792.9865209219934,792.9865209219934,792.9865209219934,792.9865209219934,792.9865209219934,792.9865209219934,792.9865209219934,792.9865209219934,792.9865209219934,795.4832541409996,795.4832541409996,795.4832541409996,795.4832541409996,795.4832541409996,57,44,55,38,55,55,6.0,0.5825983279937645,796.078650353993,797.7735141139929,,,,,,,147,f,19,2023-04-03_19h26.53.083,RL,2022.2.4,60.20919081170494,
1,93,0,93,0,,,,,,,,,,None,797.7735141139929,797.7735141139929,797.7735141139929,797.7735141139929,797.7735141139929,797.7735141139929,i,0.2518523369944887,798.0912771879957,798.0912771879957,798.0912771879957,798.0912771879957,798.0912771879957,798.0912771879957,798.3561301579975,798.3561301579975,800.3324481159943,800.3324481159943,800.3702949949948,800.3702949949948,800.3702949949948,800.3702949949948,800.3702949949948,800.3702949949948,800.3702949949948,800.3702949949948,800.3702949949948,800.3702949949948,800.3702949949948,800.3702949949948,800.3702949949948,800.3702949949948,800.3702949949948,802.8747624139942,802.8747624139942,802.8747624139942,802.8747624139942,802.8747624139942,49,46,61,38,61,79,5.0,0.5304975819963147,803.4178178369984,805.1938192689995,,,,,,,147,f,19,2023-04-03_19h26.53.083,RL,2022.2.4,60.20919081170494,
1,94,0,94,0,,,,,,,,,,None,805.1938192689995,805.1938192689995,805.1938192689995,805.1938192689995,805.1938192689995,805.1938192689995,i,0.27512625999952434,805.5139109309966,805.5139109309966,805.5139109309966,805.5139109309966,805.5139109309966,805.5139109309966,805.784962918995,805.784962918995,807.2936473729933,807.2936473729933,807.3124096389947,807.3124096389947,807.3124096389947,807.3124096389947,807.3124096389947,807.3124096389947,807.3124096389947,807.3124096389947,807.3124096389947,807.3124096389947,807.3124096389947,807.3124096389947,807.3124096389947,807.3124096389947,807.3124096389947,809.8216995009934,809.8216995009934,809.8216995009934,809.8216995009934,809.8216995009934,41,36,54,31,54,79,4.0,1.2182286260067485,811.053744150995,812.663827851,,,,,,,147,f,19,2023-04-03_19h26.53.083,RL,2022.2.4,60.20919081170494,
1,95,0,95,0,,,,,,,,,,None,812.663827851,812.663827851,812.663827851,812.663827851,812.663827851,812.663827851,i,0.24470471200038446,812.9574736419963,812.9574736419963,812.9574736419963,812.9574736419963,812.9574736419963,812.9574736419963,813.2255668549988,813.2255668549988,814.7234930679988,814.7234930679988,814.7471196569968,814.7471196569968,814.7471196569968,814.7471196569968,814.7471196569968,814.7471196569968,814.7471196569968,814.7471196569968,814.7471196569968,814.7471196569968,814.7471196569968,814.7471196569968,814.7471196569968,814.7471196569968,814.7471196569968,817.2445274229976,817.2445274229976,817.2445274229976,817.2445274229976,817.2445274229976,41,39,58,35,58,59,5.0,0.8024914099951275,818.0648053699988,819.8176239229942,,,,,,,147,f,19,2023-04-03_19h26.53.083,RL,2022.2.4,60.20919081170494,
1,96,0,96,0,,,,,,,,,,None,819.8176239229942,819.8176239229942,819.8176239229942,819.8176239229942,819.8176239229942,819.8176239229942,i,0.2910297390044434,820.1603554989997,820.1603554989997,820.1603554989997,820.1603554989997,820.1603554989997,820.1603554989997,820.4272374109933,820.4272374109933,822.3225446059951,822.3225446059951,822.3466818159941,822.3466818159941,822.3466818159941,822.3466818159941,822.3466818159941,822.3466818159941,822.3466818159941,822.3466818159941,822.3466818159941,822.3466818159941,822.3466818159941,822.3466818159941,822.3466818159941,822.3466818159941,822.3466818159941,824.8472953599994,824.8472953599994,824.8472953599994,824.8472953599994,824.8472953599994,47,33,60,22,60,80,5.0,0.4166980939990026,825.2775831279941,826.8042756119976,,,,,,,147,f,19,2023-04-03_19h26.53.083,RL,2022.2.4,60.20919081170494,
1,97,0,97,0,,,,,,,,,,None,826.8042756119976,826.8042756119976,826.8042756119976,826.8042756119976,826.8042756119976,826.8042756119976,i,0.4014459000027273,827.2427251529953,827.2427251529953,827.2427251529953,827.2427251529953,827.2427251529953,827.2427251529953,827.5126919339964,827.5126919339964,829.0388821559973,829.0388821559973,829.066158759997,829.066158759997,829.066158759997,829.066158759997,829.066158759997,829.066158759997,829.066158759997,829.066158759997,829.066158759997,829.066158759997,829.066158759997,829.066158759997,829.066158759997,829.066158759997,829.066158759997,831.5669707309935,831.5669707309935,831.5669707309935,831.5669707309935,831.5669707309935,54,32,52,30,52,53,5.0,0.40217883799778065,831.9815763949955,833.6242670759966,,,,,,,147,f,19,2023-04-03_19h26.53.083,RL,2022.2.4,60.20919081170494,
1,98,0,98,0,,,,,,,,,,None,833.6242670759966,833.6242670759966,833.6242670759966,833.6242670759966,833.6242670759966,833.6242670759966,i,0.3469612059998326,834.0124877359995,834.0124877359995,834.0124877359995,834.0124877359995,834.0124877359995,834.0124877359995,834.2834511989931,834.2834511989931,835.4369765869997,835.4369765869997,835.4772702609989,835.4772702609989,835.4772702609989,835.4772702609989,835.4772702609989,835.4772702609989,835.4772702609989,835.4772702609989,835.4772702609989,835.4772702609989,835.4772702609989,835.4772702609989,835.4772702609989,835.4772702609989,835.4772702609989,837.9915238679969,837.9915238679969,837.9915238679969,837.9915238679969,837.9915238679969,47,41,54,30,54,70,4.0,0.5142359469973599,838.5173118819948,840.1889457509969,,,,,,,147,f,19,2023-04-03_19h26.53.083,RL,2022.2.4,60.20919081170494,
1,99,0,99,0,,,,,,,,,,None,840.1889457509969,840.1889457509969,840.1889457509969,840.1889457509969,840.1889457509969,840.1889457509969,i,0.2985306769987801,840.530096814,840.530096814,840.530096814,840.530096814,840.530096814,840.530096814,840.8020960379945,840.8020960379945,841.9894687429987,841.9894687429987,842.0292581359972,842.0292581359972,842.0292581359972,842.0292581359972,842.0292581359972,842.0292581359972,842.0292581359972,842.0292581359972,842.0292581359972,842.0292581359972,842.0292581359972,842.0292581359972,842.0292581359972,842.0292581359972,842.0292581359972,844.539469036994,844.539469036994,844.539469036994,844.539469036994,844.539469036994,40,40,63,29,63,79,4.0,0.38467788999696495,844.938177707998,846.6969640069947,,,,,,,147,f,19,2023-04-03_19h26.53.083,RL,2022.2.4,60.20919081170494,
1,100,0,100,0,,,,,,,,,,None,846.6969640069947,846.6969640069947,846.6969640069947,846.6969640069947,846.6969640069947,846.6969640069947,i,0.5768295060042874,847.316478899993,847.316478899993,847.316478899993,847.316478899993,847.316478899993,847.316478899993,847.5884321389967,847.5884321389967,848.8301572439959,848.8301572439959,848.8703400919985,848.8703400919985,848.8703400919985,848.8703400919985,848.8703400919985,848.8703400919985,848.8703400919985,848.8703400919985,848.8703400919985,848.8703400919985,848.8703400919985,848.8703400919985,848.8703400919985,848.8703400919985,848.8703400919985,851.3805779739996,851.3805779739996,851.3805779739996,851.3805779739996,851.3805779739996,43,36,62,30,62,78,4.0,0.5136129050006275,851.9066560349966,853.6668960889947,,,,,,,147,f,19,2023-04-03_19h26.53.083,RL,2022.2.4,60.20919081170494,
1,101,0,101,0,,,,,,,,,,None,853.6668960889947,853.6668960889947,853.6668960889947,853.6668960889947,853.6668960889947,853.6668960889947,r,0.3195285879992298,854.0370316639965,854.0370316639965,854.0370316639965,854.0370316639965,854.0370316639965,854.0370316639965,854.3053530259931,854.3053530259931,855.7054039759969,855.7054039759969,855.7462748899998,855.7462748899998,855.7462748899998,855.7462748899998,855.7462748899998,855.7462748899998,855.7462748899998,855.7462748899998,855.7462748899998,855.7462748899998,855.7462748899998,855.7462748899998,855.7462748899998,855.7462748899998,855.7462748899998,858.2504353889963,858.2504353889963,858.2504353889963,858.2504353889963,858.2504353889963,53,38,57,33,53,84,3.0,0.8719002319994615,859.1377813949948,860.7700256459939,,,,,,,147,f,19,2023-04-03_19h26.53.083,RL,2022.2.4,60.20919081170494,
1,102,0,102,0,,,,,,,,,,None,860.7700256459939,860.7700256459939,860.7700256459939,860.7700256459939,860.7700256459939,860.7700256459939,i,0.277463472004456,861.0894096839984,861.0894096839984,861.0894096839984,861.0894096839984,861.0894096839984,861.0894096839984,861.3601054539977,861.3601054539977,863.1128470729964,863.1128470729964,863.152968767994,863.152968767994,863.152968767994,863.152968767994,863.152968767994,863.152968767994,863.152968767994,863.152968767994,863.152968767994,863.152968767994,863.152968767994,863.152968767994,863.152968767994,863.152968767994,863.152968767994,865.653137796995,865.653137796995,865.653137796995,865.653137796995,865.653137796995,46,43,56,35,56,49,5.0,1.1164255539988517,866.7818357679935,868.7741927119932,,,,,,,147,f,19,2023-04-03_19h26.53.083,RL,2022.2.4,60.20919081170494,
1,103,0,103,0,,,,,,,,,,None,868.7741927119932,868.7741927119932,868.7741927119932,868.7741927119932,868.7741927119932,868.7741927119932,i,0.28206657700502547,869.0998706399987,869.0998706399987,869.0998706399987,869.0998706399987,869.0998706399987,869.0998706399987,869.3656364889976,869.3656364889976,870.5142963349936,870.5142963349936,870.5524504949935,870.5524504949935,870.5524504949935,870.5524504949935,870.5524504949935,870.5524504949935,870.5524504949935,870.5524504949935,870.5524504949935,870.5524504949935,870.5524504949935,870.5524504949935,870.5524504949935,870.5524504949935,870.5524504949935,873.0605615699969,873.0605615699969,873.0605615699969,873.0605615699969,873.0605615699969,45,38,58,31,58,77,4.0,0.8574852000019746,873.9319249039982,875.6609757009937,,,,,,,147,f,19,2023-04-03_19h26.53.083,RL,2022.2.4,60.20919081170494,
1,104,0,104,0,,,,,,,,,,None,875.6609757009937,875.6609757009937,875.6609757009937,875.6609757009937,875.6609757009937,875.6609757009937,i,0.39893877600115957,876.1018788589936,876.1018788589936,876.1018788589936,876.1018788589936,876.1018788589936,876.1018788589936,876.3687714509942,876.3687714509942,878.1954929319982,878.1954929319982,878.2364489049942,878.2364489049942,878.2364489049942,878.2364489049942,878.2364489049942,878.2364489049942,878.2364489049942,878.2364489049942,878.2364489049942,878.2364489049942,878.2364489049942,878.2364489049942,878.2364489049942,878.2364489049942,878.2364489049942,880.7420278529971,880.7420278529971,880.7420278529971,880.7420278529971,880.7420278529971,45,40,53,34,53,69,4.0,0.5808699450062704,881.336325338998,882.8811779359967,,,,,,,147,f,19,2023-04-03_19h26.53.083,RL,2022.2.4,60.20919081170494,
1,105,0,105,0,,,,,,,,,,None,882.8811779359967,882.8811779359967,882.8811779359967,882.8811779359967,882.8811779359967,882.8811779359967,i,0.5340104970018729,883.4694478839956,883.4694478839956,883.4694478839956,883.4694478839956,883.4694478839956,883.4694478839956,883.7379747359955,883.7379747359955,885.0888940139994,885.0888940139994,885.1131167259955,885.1131167259955,885.1131167259955,885.1131167259955,885.1131167259955,885.1131167259955,885.1131167259955,885.1131167259955,885.1131167259955,885.1131167259955,885.1131167259955,885.1131167259955,885.1131167259955,885.1131167259955,885.1131167259955,887.6247815629977,887.6247815629977,887.6247815629977,887.6247815629977,887.6247815629977,41,36,46,29,46,78,3.0,0.5529811320011504,888.1923599209986,889.933873602,,,,,,,147,f,19,2023-04-03_19h26.53.083,RL,2022.2.4,60.20919081170494,
1,106,0,106,0,,,,,,,,,,None,889.933873602,889.933873602,889.933873602,889.933873602,889.933873602,889.933873602,i,0.3116983479994815,890.2931169179938,890.2931169179938,890.2931169179938,890.2931169179938,890.2931169179938,890.2931169179938,890.5604624309999,890.5604624309999,892.0126357239933,892.0126357239933,892.0528762299946,892.0528762299946,892.0528762299946,892.0528762299946,892.0528762299946,892.0528762299946,892.0528762299946,892.0528762299946,892.0528762299946,892.0528762299946,892.0528762299946,892.0528762299946,892.0528762299946,892.0528762299946,892.0528762299946,894.5599596269967,894.5599596269967,894.5599596269967,894.5599596269967,894.5599596269967,33,29,49,17,49,69,3.0,0.4843296269973507,895.0583288139969,896.8203118039964,,,,,,,147,f,19,2023-04-03_19h26.53.083,RL,2022.2.4,60.20919081170494,
1,107,0,107,0,,,,,,,,,,None,896.8203118039964,896.8203118039964,896.8203118039964,896.8203118039964,896.8203118039964,896.8203118039964,i,0.29494549299852224,897.1614932669981,897.1614932669981,897.1614932669981,897.1614932669981,897.1614932669981,897.1614932669981,897.4277929049931,897.4277929049931,899.1475069759981,899.1475069759981,899.1870852389984,899.1870852389984,899.1870852389984,899.1870852389984,899.1870852389984,899.1870852389984,899.1870852389984,899.1870852389984,899.1870852389984,899.1870852389984,899.1870852389984,899.1870852389984,899.1870852389984,899.1870852389984,899.1870852389984,901.6839780169976,901.6839780169976,901.6839780169976,901.6839780169976,901.6839780169976,41,30,51,24,51,65,3.0,0.4449714629954542,902.1430545719995,903.773264890995,,,,,,,147,f,19,2023-04-03_19h26.53.083,RL,2022.2.4,60.20919081170494,
1,108,0,108,0,,,,,,,,,,None,903.773264890995,903.773264890995,903.773264890995,903.773264890995,903.773264890995,903.773264890995,f,0.817428751004627,904.6467899809941,904.6467899809941,904.6467899809941,904.6467899809941,904.6467899809941,904.6467899809941,904.9144838219945,904.9144838219945,906.5836518179931,906.5836518179931,906.6220279759946,906.6220279759946,906.6220279759946,906.6220279759946,906.6220279759946,906.6220279759946,906.6220279759946,906.6220279759946,906.6220279759946,906.6220279759946,906.6220279759946,906.6220279759946,906.6220279759946,906.6220279759946,906.6220279759946,909.1330148609995,909.1330148609995,909.1330148609995,909.1330148609995,909.1330148609995,46,34,43,34,34,74,3.0,0.3552396899976884,909.5040206599951,911.3609747399969,,,,,,,147,f,19,2023-04-03_19h26.53.083,RL,2022.2.4,60.20919081170494,
1,109,0,109,0,,,,,,,,,,None,911.3609747399969,911.3609747399969,911.3609747399969,911.3609747399969,911.3609747399969,911.3609747399969,i,0.24691470399557147,911.6539476589969,911.6539476589969,911.6539476589969,911.6539476589969,911.6539476589969,911.6539476589969,911.9195192739935,911.9195192739935,912.7773150899957,912.7773150899957,912.8175649379991,912.8175649379991,912.8175649379991,912.8175649379991,912.8175649379991,912.8175649379991,912.8175649379991,912.8175649379991,912.8175649379991,912.8175649379991,912.8175649379991,912.8175649379991,912.8175649379991,912.8175649379991,912.8175649379991,915.3244513709942,915.3244513709942,915.3244513709942,915.3244513709942,915.3244513709942,44,33,41,19,41,76,3.0,1.0158747150053387,916.3545171309961,918.1475759079985,,,,,,,147,f,19,2023-04-03_19h26.53.083,RL,2022.2.4,60.20919081170494,
1,110,0,110,0,,,,,,,,,,None,918.1475759079985,918.1475759079985,918.1475759079985,918.1475759079985,918.1475759079985,918.1475759079985,i,0.38466139799857046,918.573634427994,918.573634427994,918.573634427994,918.573634427994,918.573634427994,918.573634427994,918.8387811889988,918.8387811889988,920.684798643997,920.684798643997,920.7266383189999,920.7266383189999,920.7266383189999,920.7266383189999,920.7266383189999,920.7266383189999,920.7266383189999,920.7266383189999,920.7266383189999,920.7266383189999,920.7266383189999,920.7266383189999,920.7266383189999,920.7266383189999,920.7266383189999,923.225539097999,923.225539097999,923.225539097999,923.225539097999,923.225539097999,42,45,47,20,47,61,2.0,0.7352211990000797,923.9745370679957,925.9509534849931,,,,,,,147,f,19,2023-04-03_19h26.53.083,RL,2022.2.4,60.20919081170494,
1,111,0,111,0,,,,,,,,,,None,925.9509534849931,925.9509534849931,925.9509534849931,925.9509534849931,925.9509534849931,925.9509534849931,i,0.35775729099987075,926.3610821119946,926.3610821119946,926.3610821119946,926.3610821119946,926.3610821119946,926.3610821119946,926.6269905929948,926.6269905929948,928.1709300499933,928.1709300499933,928.2122964439986,928.2122964439986,928.2122964439986,928.2122964439986,928.2122964439986,928.2122964439986,928.2122964439986,928.2122964439986,928.2122964439986,928.2122964439986,928.2122964439986,928.2122964439986,928.2122964439986,928.2122964439986,928.2122964439986,930.709018841997,930.709018841997,930.709018841997,930.709018841997,930.709018841997,43,38,48,18,48,75,3.0,0.40754126999672735,931.1288207029938,933.0881852719976,,,,,,,147,f,19,2023-04-03_19h26.53.083,RL,2022.2.4,60.20919081170494,
1,112,0,112,0,,,,,,,,,,None,933.0881852719976,933.0881852719976,933.0881852719976,933.0881852719976,933.0881852719976,933.0881852719976,i,0.3737252829960198,933.514531132998,933.514531132998,933.514531132998,933.514531132998,933.514531132998,933.514531132998,933.7802045399949,933.7802045399949,935.022671273,935.022671273,935.063174719995,935.063174719995,935.063174719995,935.063174719995,935.063174719995,935.063174719995,935.063174719995,935.063174719995,935.063174719995,935.063174719995,935.063174719995,935.063174719995,935.063174719995,935.063174719995,935.063174719995,937.5766881999953,937.5766881999953,937.5766881999953,937.5766881999953,937.5766881999953,47,40,43,19,43,64,3.0,1.0386286459979601,938.6272872469999,940.3557523299969,,,,,,,147,f,19,2023-04-03_19h26.53.083,RL,2022.2.4,60.20919081170494,
1,113,0,113,0,,,,,,,,,,None,940.3557523299969,940.3557523299969,940.3557523299969,940.3557523299969,940.3557523299969,940.3557523299969,i,0.2684397160046501,940.6811621979941,940.6811621979941,940.6811621979941,940.6811621979941,940.6811621979941,940.6811621979941,940.9488870939967,940.9488870939967,942.2454043199978,942.2454043199978,942.2870540039949,942.2870540039949,942.2870540039949,942.2870540039949,942.2870540039949,942.2870540039949,942.2870540039949,942.2870540039949,942.2870540039949,942.2870540039949,942.2870540039949,942.2870540039949,942.2870540039949,942.2870540039949,942.2870540039949,944.7977484769945,944.7977484769945,944.7977484769945,944.7977484769945,944.7977484769945,52,36,43,20,43,52,3.0,0.45703883000533096,945.2678826369956,947.2111227999994,,,,,,,147,f,19,2023-04-03_19h26.53.083,RL,2022.2.4,60.20919081170494,
1,114,0,114,0,,,,,,,,,,None,947.2111227999994,947.2111227999994,947.2111227999994,947.2111227999994,947.2111227999994,947.2111227999994,j,0.29676661499979673,947.5518131399949,947.5518131399949,947.5518131399949,947.5518131399949,947.5518131399949,947.5518131399949,947.820183977994,947.820183977994,949.0800237979929,949.0800237979929,949.103146439993,949.103146439993,949.103146439993,949.103146439993,949.103146439993,949.103146439993,949.103146439993,949.103146439993,949.103146439993,949.103146439993,949.103146439993,949.103146439993,949.103146439993,949.103146439993,949.103146439993,951.600738821995,951.600738821995,951.600738821995,951.600738821995,951.600738821995,50,38,39,19,19,67,2.0,0.8572853350051446,952.4703775799935,953.9976812739988,,,,,,,147,f,19,2023-04-03_19h26.53.083,RL,2022.2.4,60.20919081170494,
1,115,0,115,0,,,,,,,,,,None,953.9976812739988,953.9976812739988,953.9976812739988,953.9976812739988,953.9976812739988,953.9976812739988,i,0.31634421100170584,954.3530808549986,954.3530808549986,954.3530808549986,954.3530808549986,954.3530808549986,954.3530808549986,954.6212237339932,954.6212237339932,956.041048534993,956.041048534993,956.0810951989988,956.0810951989988,956.0810951989988,956.0810951989988,956.0810951989988,956.0810951989988,956.0810951989988,956.0810951989988,956.0810951989988,956.0810951989988,956.0810951989988,956.0810951989988,956.0810951989988,956.0810951989988,956.0810951989988,958.5901451119935,958.5901451119935,958.5901451119935,958.5901451119935,958.5901451119935,46,41,44,16,44,57,4.0,0.9369955970032606,959.5404900409994,961.4670239349944,,,,,,,147,f,19,2023-04-03_19h26.53.083,RL,2022.2.4,60.20919081170494,
