bandit,trials.thisRepN,trials.thisTrialN,trials.thisN,trials.thisIndex,instru_img1.started,instru_resp.started,instru_resp.keys,instru_resp.rt,instru_img2.started,instru_resp2.started,instru_resp2.keys,instru_resp2.rt,fixbefore_2.started,rest_response.keys,red.started,green.started,yellow.started,blue.started,choose_bandit.started,Fixation.started,choose_bandit.keys,choose_bandit.rt,black.started,red_2.started,green_2.started,yellow_2.started,blue_2.started,fixation_2.started,docs.started,image_2.started,docs.stopped,image_2.stopped,black.stopped,red_2.stopped,green_2.stopped,yellow_2.stopped,blue_2.stopped,fixation_2.stopped,black_com.started,reward_sub.started,palyerb.started,reward__sub.started,compare.started,red_compare.started,green_com.started,yellow_com.started,blue_com.started,image_3.started,slider.started,text.started,image_4.started,image_5.started,rewardyellow,rewardred,rewardblue,rewardgreen,subchoose,playerb,slider.response,slider.rt,intertrialfix.started,intertrialfix.stopped,rest_image.started,rest_response.started,rest_response.rt,image.started,key_resp.started,key_resp.keys,participant,Gender,Age,date,expName,psychopyVersion,frameRate,
,,,,,47.518455300014466,47.518455300014466,space,6.60787000018172,,,,,,,,,,,,,,,,,,,,,,,,,,,,,,,,,,,,,,,,,,,,,,,,,,,,,,,,,,,,,148,f,18,2023-04-05_09h45.40.494,RL,2022.2.4,60.005964540494084,
,,,,,,,,,54.15972230001353,54.15972230001353,y,38.47226100019179,,,,,,,,,,,,,,,,,,,,,,,,,,,,,,,,,,,,,,,,,,,,,,,,,,,,,,,,,148,f,18,2023-04-05_09h45.40.494,RL,2022.2.4,60.005964540494084,
1,0,0,0,0,,,,,,,,,92.64893279992975,None,93.67028409987688,93.67028409987688,93.67028409987688,93.67028409987688,93.67028409987688,93.67028409987688,j,0.3754569001030177,94.0917036999017,94.0917036999017,94.0917036999017,94.0917036999017,94.0917036999017,94.0917036999017,94.37836700002663,94.37836700002663,95.95713740005158,95.95713740005158,95.97604710003361,95.97604710003361,95.97604710003361,95.97604710003361,95.97604710003361,95.97604710003361,95.97604710003361,95.97604710003361,95.97604710003361,95.97604710003361,95.97604710003361,95.97604710003361,95.97604710003361,95.97604710003361,95.97604710003361,98.48350530001335,98.48350530001335,98.48350530001335,98.48350530001335,98.48350530001335,45,75,51,57,57,58,4.0,2.276093600085005,100.81766199995764,102.72211540001445,,,,,,,148,f,18,2023-04-05_09h45.40.494,RL,2022.2.4,60.005964540494084,
1,1,0,1,0,,,,,,,,,,None,102.72211540001445,102.72211540001445,102.72211540001445,102.72211540001445,102.72211540001445,102.72211540001445,f,0.6289718998596072,103.3714288000483,103.3714288000483,103.3714288000483,103.3714288000483,103.3714288000483,103.3714288000483,103.6696703999769,103.6696703999769,104.88287790003233,104.88287790003233,104.88287790003233,104.88287790003233,104.88287790003233,104.88287790003233,104.88287790003233,104.88287790003233,104.88287790003233,104.88287790003233,104.88287790003233,104.88287790003233,104.88287790003233,104.88287790003233,104.88287790003233,104.88287790003233,104.88287790003233,107.3920493000187,107.3920493000187,107.3920493000187,107.3920493000187,107.3920493000187,29,76,49,51,76,53,6.0,1.9106026999652386,109.3199258998502,111.2815610000398,,,,,,,148,f,18,2023-04-05_09h45.40.494,RL,2022.2.4,60.005964540494084,
1,2,0,2,0,,,,,,,,,,None,111.2815610000398,111.2815610000398,111.2815610000398,111.2815610000398,111.2815610000398,111.2815610000398,i,0.960351699963212,112.26375449984334,112.26375449984334,112.26375449984334,112.26375449984334,112.26375449984334,112.26375449984334,112.56217020004988,112.56217020004988,113.45975519996136,113.45975519996136,113.45975519996136,113.45975519996136,113.45975519996136,113.45975519996136,113.45975519996136,113.45975519996136,113.45975519996136,113.45975519996136,113.45975519996136,113.45975519996136,113.45975519996136,113.45975519996136,113.45975519996136,113.45975519996136,113.45975519996136,115.96837399993092,115.96837399993092,115.96837399993092,115.96837399993092,115.96837399993092,29,72,56,62,56,39,6.0,3.605976999970153,119.59174569998868,121.38777399994433,,,,,,,148,f,18,2023-04-05_09h45.40.494,RL,2022.2.4,60.005964540494084,
1,3,0,3,0,,,,,,,,,,None,121.38777399994433,121.38777399994433,121.38777399994433,121.38777399994433,121.38777399994433,121.38777399994433,i,0.5244265999644995,121.93745790002868,121.93745790002868,121.93745790002868,121.93745790002868,121.93745790002868,121.93745790002868,122.23568749986589,122.23568749986589,123.59824109985493,123.59824109985493,123.59824109985493,123.59824109985493,123.59824109985493,123.59824109985493,123.59824109985493,123.59824109985493,123.59824109985493,123.59824109985493,123.59824109985493,123.59824109985493,123.59824109985493,123.59824109985493,123.59824109985493,123.59824109985493,123.59824109985493,126.1076630000025,126.1076630000025,126.1076630000025,126.1076630000025,126.1076630000025,25,75,48,53,48,48,6.0,0.9634334000293165,127.0883953999728,128.8839306998998,,,,,,,148,f,18,2023-04-05_09h45.40.494,RL,2022.2.4,60.005964540494084,
1,4,0,4,0,,,,,,,,,,None,128.8839306998998,128.8839306998998,128.8839306998998,128.8839306998998,128.8839306998998,128.8839306998998,r,0.7301768998149782,129.63486530003138,129.63486530003138,129.63486530003138,129.63486530003138,129.63486530003138,129.63486530003138,129.93097990006208,129.93097990006208,131.89209809992462,131.89209809992462,131.90895359986462,131.90895359986462,131.90895359986462,131.90895359986462,131.90895359986462,131.90895359986462,131.90895359986462,131.90895359986462,131.90895359986462,131.90895359986462,131.90895359986462,131.90895359986462,131.90895359986462,131.90895359986462,131.90895359986462,134.41867779986933,134.41867779986933,134.41867779986933,134.41867779986933,134.41867779986933,36,73,42,62,36,52,5.0,2.04371550003998,136.47916219988838,138.09185319999233,,,,,,,148,f,18,2023-04-05_09h45.40.494,RL,2022.2.4,60.005964540494084,
1,5,0,5,0,,,,,,,,,,None,138.09185319999233,138.09185319999233,138.09185319999233,138.09185319999233,138.09185319999233,138.09185319999233,i,0.4531608000397682,138.57442989991978,138.57442989991978,138.57442989991978,138.57442989991978,138.57442989991978,138.57442989991978,138.87366089993156,138.87366089993156,139.7046071998775,139.7046071998775,139.7046071998775,139.7046071998775,139.7046071998775,139.7046071998775,139.7046071998775,139.7046071998775,139.7046071998775,139.7046071998775,139.7046071998775,139.7046071998775,139.7046071998775,139.7046071998775,139.7046071998775,139.7046071998775,139.7046071998775,142.2136174000334,142.2136174000334,142.2136174000334,142.2136174000334,142.2136174000334,31,82,40,64,40,51,5.0,2.9411040998529643,145.17231569997966,146.90145469992422,,,,,,,148,f,18,2023-04-05_09h45.40.494,RL,2022.2.4,60.005964540494084,
1,6,0,6,0,,,,,,,,,,None,146.90145469992422,146.90145469992422,146.90145469992422,146.90145469992422,146.90145469992422,146.90145469992422,j,0.294335899874568,147.21815870003775,147.21815870003775,147.21815870003775,147.21815870003775,147.21815870003775,147.21815870003775,147.5167590000201,147.5167590000201,149.12882309989072,149.12882309989072,149.12882309989072,149.12882309989072,149.12882309989072,149.12882309989072,149.12882309989072,149.12882309989072,149.12882309989072,149.12882309989072,149.12882309989072,149.12882309989072,149.12882309989072,149.12882309989072,149.12882309989072,149.12882309989072,149.12882309989072,151.63814549986273,151.63814549986273,151.63814549986273,151.63814549986273,151.63814549986273,39,79,44,68,68,34,6.0,2.0270795999094844,153.68202920001931,155.39453559997492,,,,,,,148,f,18,2023-04-05_09h45.40.494,RL,2022.2.4,60.005964540494084,
1,7,0,7,0,,,,,,,,,,None,155.39453559997492,155.39453559997492,155.39453559997492,155.39453559997492,155.39453559997492,155.39453559997492,j,0.36686299997381866,155.79432619991712,155.79432619991712,155.79432619991712,155.79432619991712,155.79432619991712,155.79432619991712,156.09330710000359,156.09330710000359,157.6888305998873,157.6888305998873,157.6888305998873,157.6888305998873,157.6888305998873,157.6888305998873,157.6888305998873,157.6888305998873,157.6888305998873,157.6888305998873,157.6888305998873,157.6888305998873,157.6888305998873,157.6888305998873,157.6888305998873,157.6888305998873,157.6888305998873,160.19790289993398,160.19790289993398,160.19790289993398,160.19790289993398,160.19790289993398,36,68,40,64,64,54,5.0,2.1932832999154925,162.4086241000332,164.15417169989087,,,,,,,148,f,18,2023-04-05_09h45.40.494,RL,2022.2.4,60.005964540494084,
1,8,0,8,0,,,,,,,,,,None,164.15417169989087,164.15417169989087,164.15417169989087,164.15417169989087,164.15417169989087,164.15417169989087,j,0.3077219999395311,164.48860249994323,164.48860249994323,164.48860249994323,164.48860249994323,164.48860249994323,164.48860249994323,164.785862499848,164.785862499848,165.76665739994496,165.76665739994496,165.76665739994496,165.76665739994496,165.76665739994496,165.76665739994496,165.76665739994496,165.76665739994496,165.76665739994496,165.76665739994496,165.76665739994496,165.76665739994496,165.76665739994496,165.76665739994496,165.76665739994496,165.76665739994496,165.76665739994496,168.2758795998525,168.2758795998525,168.2758795998525,168.2758795998525,168.2758795998525,41,61,41,68,68,37,7.0,1.7281986998859793,170.02120790001936,171.550413900055,,,,,,,148,f,18,2023-04-05_09h45.40.494,RL,2022.2.4,60.005964540494084,
1,9,0,9,0,,,,,,,,,,None,171.550413900055,171.550413900055,171.550413900055,171.550413900055,171.550413900055,171.550413900055,r,0.2953482000157237,171.86829090001993,171.86829090001993,171.86829090001993,171.86829090001993,171.86829090001993,171.86829090001993,172.16619089990854,172.16619089990854,174.11031670006923,174.11031670006923,174.11031670006923,174.11031670006923,174.11031670006923,174.11031670006923,174.11031670006923,174.11031670006923,174.11031670006923,174.11031670006923,174.11031670006923,174.11031670006923,174.11031670006923,174.11031670006923,174.11031670006923,174.11031670006923,174.11031670006923,176.61952840001322,176.61952840001322,176.61952840001322,176.61952840001322,176.61952840001322,44,69,44,65,44,56,4.0,1.8440966999623924,178.4814416000154,180.2435514999088,,,,,,,148,f,18,2023-04-05_09h45.40.494,RL,2022.2.4,60.005964540494084,
1,10,0,10,0,,,,,,,,,,None,180.2435514999088,180.2435514999088,180.2435514999088,180.2435514999088,180.2435514999088,180.2435514999088,f,0.28105430002324283,180.54409349989146,180.54409349989146,180.54409349989146,180.54409349989146,180.54409349989146,180.54409349989146,180.84204069990665,180.84204069990665,182.5878136998508,182.5878136998508,182.5878136998508,182.5878136998508,182.5878136998508,182.5878136998508,182.5878136998508,182.5878136998508,182.5878136998508,182.5878136998508,182.5878136998508,182.5878136998508,182.5878136998508,182.5878136998508,182.5878136998508,182.5878136998508,182.5878136998508,185.09635929996148,185.09635929996148,185.09635929996148,185.09635929996148,185.09635929996148,54,73,44,58,73,49,7.0,1.8279303999152035,186.94126589992084,188.63749639992602,,,,,,,148,f,18,2023-04-05_09h45.40.494,RL,2022.2.4,60.005964540494084,
1,11,0,11,0,,,,,,,,,,None,188.63749639992602,188.63749639992602,188.63749639992602,188.63749639992602,188.63749639992602,188.63749639992602,i,0.2742072001565248,188.9378800999839,188.9378800999839,188.9378800999839,188.9378800999839,188.9378800999839,188.9378800999839,189.2362778999377,189.2362778999377,190.54907249985263,190.54907249985263,190.54907249985263,190.54907249985263,190.54907249985263,190.54907249985263,190.54907249985263,190.54907249985263,190.54907249985263,190.54907249985263,190.54907249985263,190.54907249985263,190.54907249985263,190.54907249985263,190.54907249985263,190.54907249985263,190.54907249985263,193.05833379994147,193.05833379994147,193.05833379994147,193.05833379994147,193.05833379994147,38,71,34,61,34,31,6.0,1.1796651999466121,194.2546546999365,195.9010665998794,,,,,,,148,f,18,2023-04-05_09h45.40.494,RL,2022.2.4,60.005964540494084,
1,12,0,12,0,,,,,,,,,,None,195.9010665998794,195.9010665998794,195.9010665998794,195.9010665998794,195.9010665998794,195.9010665998794,f,0.26758879981935024,196.200863200007,196.200863200007,196.200863200007,196.200863200007,196.200863200007,196.200863200007,196.4998164998833,196.4998164998833,197.36409529997036,197.36409529997036,197.36409529997036,197.36409529997036,197.36409529997036,197.36409529997036,197.36409529997036,197.36409529997036,197.36409529997036,197.36409529997036,197.36409529997036,197.36409529997036,197.36409529997036,197.36409529997036,197.36409529997036,197.36409529997036,197.36409529997036,199.87291079992428,199.87291079992428,199.87291079992428,199.87291079992428,199.87291079992428,33,74,43,72,74,45,6.0,1.412553699919954,201.30200899997726,203.01471340004355,,,,,,,148,f,18,2023-04-05_09h45.40.494,RL,2022.2.4,60.005964540494084,
1,13,0,13,0,,,,,,,,,,None,203.01471340004355,203.01471340004355,203.01471340004355,203.01471340004355,203.01471340004355,203.01471340004355,i,0.2514986000023782,203.29784119990654,203.29784119990654,203.29784119990654,203.29784119990654,203.29784119990654,203.29784119990654,203.59699709992856,203.59699709992856,204.57725790003315,204.57725790003315,204.57725790003315,204.57725790003315,204.57725790003315,204.57725790003315,204.57725790003315,204.57725790003315,204.57725790003315,204.57725790003315,204.57725790003315,204.57725790003315,204.57725790003315,204.57725790003315,204.57725790003315,204.57725790003315,204.57725790003315,207.08668529987335,207.08668529987335,207.08668529987335,207.08668529987335,207.08668529987335,40,73,45,62,45,48,6.0,2.8248286000452936,209.92887989990413,211.45826989994384,,,,,,,148,f,18,2023-04-05_09h45.40.494,RL,2022.2.4,60.005964540494084,
1,14,0,14,0,,,,,,,,,,None,211.45826989994384,211.45826989994384,211.45826989994384,211.45826989994384,211.45826989994384,211.45826989994384,r,0.5394774999003857,212.02570950007066,212.02570950007066,212.02570950007066,212.02570950007066,212.02570950007066,212.02570950007066,212.32283880002797,212.32283880002797,213.96846010000445,213.96846010000445,213.96846010000445,213.96846010000445,213.96846010000445,213.96846010000445,213.96846010000445,213.96846010000445,213.96846010000445,213.96846010000445,213.96846010000445,213.96846010000445,213.96846010000445,213.96846010000445,213.96846010000445,213.96846010000445,213.96846010000445,216.47746989992447,216.47746989992447,216.47746989992447,216.47746989992447,216.47746989992447,44,72,41,65,44,52,5.0,1.9439905998297036,218.439086999977,220.06827539997175,,,,,,,148,f,18,2023-04-05_09h45.40.494,RL,2022.2.4,60.005964540494084,
1,15,0,15,0,,,,,,,,,,None,220.06827539997175,220.06827539997175,220.06827539997175,220.06827539997175,220.06827539997175,220.06827539997175,i,0.37544490001164377,220.46845899987966,220.46845899987966,220.46845899987966,220.46845899987966,220.46845899987966,220.46845899987966,220.76680079987273,220.76680079987273,221.93024939997122,221.93024939997122,221.93024939997122,221.93024939997122,221.93024939997122,221.93024939997122,221.93024939997122,221.93024939997122,221.93024939997122,221.93024939997122,221.93024939997122,221.93024939997122,221.93024939997122,221.93024939997122,221.93024939997122,221.93024939997122,221.93024939997122,224.43917999998666,224.43917999998666,224.43917999998666,224.43917999998666,224.43917999998666,50,71,42,69,42,45,5.0,0.8303206001874059,225.28679729998112,226.98285639984533,,,,,,,148,f,18,2023-04-05_09h45.40.494,RL,2022.2.4,60.005964540494084,
1,16,0,16,0,,,,,,,,,,None,226.98285639984533,226.98285639984533,226.98285639984533,226.98285639984533,226.98285639984533,226.98285639984533,i,0.2930286000482738,227.30174529994838,227.30174529994838,227.30174529994838,227.30174529994838,227.30174529994838,227.30174529994838,227.59782040002756,227.59782040002756,229.55908160004765,229.55908160004765,229.55908160004765,229.55908160004765,229.55908160004765,229.55908160004765,229.55908160004765,229.55908160004765,229.55908160004765,229.55908160004765,229.55908160004765,229.55908160004765,229.55908160004765,229.55908160004765,229.55908160004765,229.55908160004765,229.55908160004765,232.0686146998778,232.0686146998778,232.0686146998778,232.0686146998778,232.0686146998778,52,69,35,61,35,44,5.0,1.512152299983427,233.5977147000376,235.16067099990323,,,,,,,148,f,18,2023-04-05_09h45.40.494,RL,2022.2.4,60.005964540494084,
1,17,0,17,0,,,,,,,,,,None,235.16067099990323,235.16067099990323,235.16067099990323,235.16067099990323,235.16067099990323,235.16067099990323,i,0.40135379997082055,235.59358410001732,235.59358410001732,235.59358410001732,235.59358410001732,235.59358410001732,235.59358410001732,235.89221119997092,235.89221119997092,237.83678899984807,237.83678899984807,237.83678899984807,237.83678899984807,237.83678899984807,237.83678899984807,237.83678899984807,237.83678899984807,237.83678899984807,237.83678899984807,237.83678899984807,237.83678899984807,237.83678899984807,237.83678899984807,237.83678899984807,237.83678899984807,237.83678899984807,240.34559380006976,240.34559380006976,240.34559380006976,240.34559380006976,240.34559380006976,51,80,43,66,43,30,5.0,0.8634907999075949,241.2264568998944,243.02234939998016,,,,,,,148,f,18,2023-04-05_09h45.40.494,RL,2022.2.4,60.005964540494084,
1,18,0,18,0,,,,,,,,,,None,243.02234939998016,243.02234939998016,243.02234939998016,243.02234939998016,243.02234939998016,243.02234939998016,f,0.24694119999185205,243.28857109998353,243.28857109998353,243.28857109998353,243.28857109998353,243.28857109998353,243.28857109998353,243.5879071999807,243.5879071999807,245.4493630998768,245.4493630998768,245.4493630998768,245.4493630998768,245.4493630998768,245.4493630998768,245.4493630998768,245.4493630998768,245.4493630998768,245.4493630998768,245.4493630998768,245.4493630998768,245.4493630998768,245.4493630998768,245.4493630998768,245.4493630998768,245.4493630998768,247.95844459999353,247.95844459999353,247.95844459999353,247.95844459999353,247.95844459999353,59,67,45,69,67,33,6.0,0.8640888000372797,248.83932879986241,250.61824569990858,,,,,,,148,f,18,2023-04-05_09h45.40.494,RL,2022.2.4,60.005964540494084,
1,19,0,19,0,,,,,,,,,,None,250.61824569990858,250.61824569990858,250.61824569990858,250.61824569990858,250.61824569990858,250.61824569990858,j,0.29757679998874664,250.93554949993268,250.93554949993268,250.93554949993268,250.93554949993268,250.93554949993268,250.93554949993268,251.23376189987175,251.23376189987175,252.13120949990116,252.13120949990116,252.13120949990116,252.13120949990116,252.13120949990116,252.13120949990116,252.13120949990116,252.13120949990116,252.13120949990116,252.13120949990116,252.13120949990116,252.13120949990116,252.13120949990116,252.13120949990116,252.13120949990116,252.13120949990116,252.13120949990116,254.64019949990325,254.64019949990325,254.64019949990325,254.64019949990325,254.64019949990325,54,78,47,64,64,43,6.0,1.9442630000412464,256.60143169993535,258.546758600045,,,,,,,148,f,18,2023-04-05_09h45.40.494,RL,2022.2.4,60.005964540494084,
1,20,0,20,0,,,,,,,,,,None,258.546758600045,258.546758600045,258.546758600045,258.546758600045,258.546758600045,258.546758600045,j,0.2912192998919636,258.8643360999413,258.8643360999413,258.8643360999413,258.8643360999413,258.8643360999413,258.8643360999413,259.16206209990196,259.16206209990196,260.5743472999893,260.5743472999893,260.59118089987896,260.59118089987896,260.59118089987896,260.59118089987896,260.59118089987896,260.59118089987896,260.59118089987896,260.59118089987896,260.59118089987896,260.59118089987896,260.59118089987896,260.59118089987896,260.59118089987896,260.59118089987896,260.59118089987896,263.1004281998612,263.1004281998612,263.1004281998612,263.1004281998612,263.1004281998612,53,74,49,55,55,33,6.0,1.3122548998799175,264.430266499985,265.9763847000431,,,,,,,148,f,18,2023-04-05_09h45.40.494,RL,2022.2.4,60.005964540494084,
1,21,0,21,0,,,,,,,,,,None,265.9763847000431,265.9763847000431,265.9763847000431,265.9763847000431,265.9763847000431,265.9763847000431,r,0.2335373000241816,266.24279739987105,266.24279739987105,266.24279739987105,266.24279739987105,266.24279739987105,266.24279739987105,266.54192309989594,266.54192309989594,268.05441459990107,268.05441459990107,268.05441459990107,268.05441459990107,268.05441459990107,268.05441459990107,268.05441459990107,268.05441459990107,268.05441459990107,268.05441459990107,268.05441459990107,268.05441459990107,268.05441459990107,268.05441459990107,268.05441459990107,268.05441459990107,268.05441459990107,270.5633298999164,270.5633298999164,270.5633298999164,270.5633298999164,270.5633298999164,60,70,46,60,60,25,6.0,0.7473104000091553,271.3279820999596,272.85773950000294,,,,,,,148,f,18,2023-04-05_09h45.40.494,RL,2022.2.4,60.005964540494084,
1,22,0,22,0,,,,,,,,,,None,272.85773950000294,272.85773950000294,272.85773950000294,272.85773950000294,272.85773950000294,272.85773950000294,f,0.23477329988963902,273.1248532999307,273.1248532999307,273.1248532999307,273.1248532999307,273.1248532999307,273.1248532999307,273.42307919985615,273.42307919985615,274.98560769995674,274.98560769995674,274.98560769995674,274.98560769995674,274.98560769995674,274.98560769995674,274.98560769995674,274.98560769995674,274.98560769995674,274.98560769995674,274.98560769995674,274.98560769995674,274.98560769995674,274.98560769995674,274.98560769995674,274.98560769995674,274.98560769995674,277.4943508000579,277.4943508000579,277.4943508000579,277.4943508000579,277.4943508000579,50,74,38,64,74,38,7.0,1.9775165999308228,279.4890480998438,281.3013899999205,,,,,,,148,f,18,2023-04-05_09h45.40.494,RL,2022.2.4,60.005964540494084,
1,23,0,23,0,,,,,,,,,,None,281.3013899999205,281.3013899999205,281.3013899999205,281.3013899999205,281.3013899999205,281.3013899999205,f,0.2383640999905765,281.5680106000509,281.5680106000509,281.5680106000509,281.5680106000509,281.5680106000509,281.5680106000509,281.8667887998745,281.8667887998745,283.72809089999646,283.72809089999646,283.72809089999646,283.72809089999646,283.72809089999646,283.72809089999646,283.72809089999646,283.72809089999646,283.72809089999646,283.72809089999646,283.72809089999646,283.72809089999646,283.72809089999646,283.72809089999646,283.72809089999646,283.72809089999646,283.72809089999646,286.23704699985683,286.23704699985683,286.23704699985683,286.23704699985683,286.23704699985683,56,73,42,64,73,41,6.0,1.0460471000988036,287.3010124999564,289.29623940004967,,,,,,,148,f,18,2023-04-05_09h45.40.494,RL,2022.2.4,60.005964540494084,
1,24,0,24,0,,,,,,,,,,None,289.29623940004967,289.29623940004967,289.29623940004967,289.29623940004967,289.29623940004967,289.29623940004967,i,0.24993710010312498,289.5807858000044,289.5807858000044,289.5807858000044,289.5807858000044,289.5807858000044,289.5807858000044,289.87812629994005,289.87812629994005,290.9253469998948,290.9253469998948,290.9253469998948,290.9253469998948,290.9253469998948,290.9253469998948,290.9253469998948,290.9253469998948,290.9253469998948,290.9253469998948,290.9253469998948,290.9253469998948,290.9253469998948,290.9253469998948,290.9253469998948,290.9253469998948,290.9253469998948,293.4335946000647,293.4335946000647,293.4335946000647,293.4335946000647,293.4335946000647,55,71,39,64,39,49,5.0,1.99412290006876,295.44546610000543,297.0916369999759,,,,,,,148,f,18,2023-04-05_09h45.40.494,RL,2022.2.4,60.005964540494084,
1,25,0,25,0,,,,,,,,,,None,297.0916369999759,297.0916369999759,297.0916369999759,297.0916369999759,297.0916369999759,297.0916369999759,r,0.27083549997769296,297.3918289998546,297.3918289998546,297.3918289998546,297.3918289998546,297.3918289998546,297.3918289998546,297.6901779999025,297.6901779999025,299.4185657000635,299.4185657000635,299.4185657000635,299.4185657000635,299.4185657000635,299.4185657000635,299.4185657000635,299.4185657000635,299.4185657000635,299.4185657000635,299.4185657000635,299.4185657000635,299.4185657000635,299.4185657000635,299.4185657000635,299.4185657000635,299.4185657000635,301.9278054998722,301.9278054998722,301.9278054998722,301.9278054998722,301.9278054998722,60,64,48,61,60,35,5.0,1.4784765001386404,303.4234448999632,305.16954010003246,,,,,,,148,f,18,2023-04-05_09h45.40.494,RL,2022.2.4,60.005964540494084,
1,26,0,26,0,,,,,,,,,,None,305.16954010003246,305.16954010003246,305.16954010003246,305.16954010003246,305.16954010003246,305.16954010003246,i,0.28417449980042875,305.4858502999414,305.4858502999414,305.4858502999414,305.4858502999414,305.4858502999414,305.4858502999414,305.78478719992563,305.78478719992563,307.61275309999473,307.61275309999473,307.61275309999473,307.61275309999473,307.61275309999473,307.61275309999473,307.61275309999473,307.61275309999473,307.61275309999473,307.61275309999473,307.61275309999473,307.61275309999473,307.61275309999473,307.61275309999473,307.61275309999473,307.61275309999473,307.61275309999473,310.12203800003044,310.12203800003044,310.12203800003044,310.12203800003044,310.12203800003044,55,61,44,58,44,33,5.0,0.9460879000835121,311.086168800015,312.93156190006994,,,,,,,148,f,18,2023-04-05_09h45.40.494,RL,2022.2.4,60.005964540494084,
1,27,0,27,0,,,,,,,,,,None,312.93156190006994,312.93156190006994,312.93156190006994,312.93156190006994,312.93156190006994,312.93156190006994,i,0.2641877999994904,313.21689689997584,313.21689689997584,313.21689689997584,313.21689689997584,313.21689689997584,313.21689689997584,313.51344250002876,313.51344250002876,314.577613200061,314.577613200061,314.577613200061,314.577613200061,314.577613200061,314.577613200061,314.577613200061,314.577613200061,314.577613200061,314.577613200061,314.577613200061,314.577613200061,314.577613200061,314.577613200061,314.577613200061,314.577613200061,314.577613200061,317.0865837999154,317.0865837999154,317.0865837999154,317.0865837999154,317.0865837999154,48,69,32,60,32,50,4.0,0.963066800031811,318.06674059992656,319.9291647998616,,,,,,,148,f,18,2023-04-05_09h45.40.494,RL,2022.2.4,60.005964540494084,
1,28,0,28,0,,,,,,,,,,None,319.9291647998616,319.9291647998616,319.9291647998616,319.9291647998616,319.9291647998616,319.9291647998616,j,0.2340788000728935,320.1965186998714,320.1965186998714,320.1965186998714,320.1965186998714,320.1965186998714,320.1965186998714,320.4944064000156,320.4944064000156,322.1400883998722,322.1400883998722,322.1400883998722,322.1400883998722,322.1400883998722,322.1400883998722,322.1400883998722,322.1400883998722,322.1400883998722,322.1400883998722,322.1400883998722,322.1400883998722,322.1400883998722,322.1400883998722,322.1400883998722,322.1400883998722,322.1400883998722,324.64924619998783,324.64924619998783,324.64924619998783,324.64924619998783,324.64924619998783,55,62,42,53,53,47,4.0,0.8633184998761863,325.5301381999161,327.40890199993737,,,,,,,148,f,18,2023-04-05_09h45.40.494,RL,2022.2.4,60.005964540494084,
1,29,0,29,0,,,,,,,,,,None,327.40890199993737,327.40890199993737,327.40890199993737,327.40890199993737,327.40890199993737,327.40890199993737,f,0.2664882999379188,327.7085512999911,327.7085512999911,327.7085512999911,327.7085512999911,327.7085512999911,327.7085512999911,328.00718600000255,328.00718600000255,329.4865427999757,329.4865427999757,329.4865427999757,329.4865427999757,329.4865427999757,329.4865427999757,329.4865427999757,329.4865427999757,329.4865427999757,329.4865427999757,329.4865427999757,329.4865427999757,329.4865427999757,329.4865427999757,329.4865427999757,329.4865427999757,329.4865427999757,331.99551579984836,331.99551579984836,331.99551579984836,331.99551579984836,331.99551579984836,46,60,45,53,60,28,5.0,1.0467445000540465,333.0595239000395,334.95484249992296,,,,,,,148,f,18,2023-04-05_09h45.40.494,RL,2022.2.4,60.005964540494084,
1,30,0,30,0,,,,,,,,,,None,334.95484249992296,334.95484249992296,334.95484249992296,334.95484249992296,334.95484249992296,334.95484249992296,i,0.358312499942258,335.3383603000548,335.3383603000548,335.3383603000548,335.3383603000548,335.3383603000548,335.3383603000548,335.6363772000186,335.6363772000186,336.81621209997684,336.81621209997684,336.81621209997684,336.81621209997684,336.81621209997684,336.81621209997684,336.81621209997684,336.81621209997684,336.81621209997684,336.81621209997684,336.81621209997684,336.81621209997684,336.81621209997684,336.81621209997684,336.81621209997684,336.81621209997684,336.81621209997684,339.32569209998474,339.32569209998474,339.32569209998474,339.32569209998474,339.32569209998474,45,63,47,59,47,49,5.0,0.8134035000111908,340.1564466999844,341.68643829994835,,,,,,,148,f,18,2023-04-05_09h45.40.494,RL,2022.2.4,60.005964540494084,
1,31,0,31,0,,,,,,,,,,None,341.68643829994835,341.68643829994835,341.68643829994835,341.68643829994835,341.68643829994835,341.68643829994835,r,0.42413350008428097,342.13703950005583,342.13703950005583,342.13703950005583,342.13703950005583,342.13703950005583,342.13703950005583,342.4346523999702,342.4346523999702,343.78063379996456,343.78063379996456,343.79768309998326,343.79768309998326,343.79768309998326,343.79768309998326,343.79768309998326,343.79768309998326,343.79768309998326,343.79768309998326,343.79768309998326,343.79768309998326,343.79768309998326,343.79768309998326,343.79768309998326,343.79768309998326,343.79768309998326,346.30662110005505,346.30662110005505,346.30662110005505,346.30662110005505,346.30662110005505,56,59,43,53,56,26,6.0,1.5611539001110941,347.88583419984207,349.7477748999372,,,,,,,148,f,18,2023-04-05_09h45.40.494,RL,2022.2.4,60.005964540494084,
1,32,0,32,0,,,,,,,,,,None,349.7477748999372,349.7477748999372,349.7477748999372,349.7477748999372,349.7477748999372,349.7477748999372,i,0.3298471998423338,350.0976771998685,350.0976771998685,350.0976771998685,350.0976771998685,350.0976771998685,350.0976771998685,350.39626930002123,350.39626930002123,351.55948649998754,351.55948649998754,351.55948649998754,351.55948649998754,351.55948649998754,351.55948649998754,351.55948649998754,351.55948649998754,351.55948649998754,351.55948649998754,351.55948649998754,351.55948649998754,351.55948649998754,351.55948649998754,351.55948649998754,351.55948649998754,351.55948649998754,354.0685222998727,354.0685222998727,354.0685222998727,354.0685222998727,354.0685222998727,44,68,34,52,34,50,5.0,1.6447845997754484,355.73094110004604,357.46012729988433,,,,,,,148,f,18,2023-04-05_09h45.40.494,RL,2022.2.4,60.005964540494084,
1,33,0,33,0,,,,,,,,,,None,357.46012729988433,357.46012729988433,357.46012729988433,357.46012729988433,357.46012729988433,357.46012729988433,r,0.7047725000884384,358.19276669993997,358.19276669993997,358.19276669993997,358.19276669993997,358.19276669993997,358.19276669993997,358.49092320003547,358.49092320003547,359.7708431999199,359.7708431999199,359.7708431999199,359.7708431999199,359.7708431999199,359.7708431999199,359.7708431999199,359.7708431999199,359.7708431999199,359.7708431999199,359.7708431999199,359.7708431999199,359.7708431999199,359.7708431999199,359.7708431999199,359.7708431999199,359.7708431999199,362.2797290000599,362.2797290000599,362.2797290000599,362.2797290000599,362.2797290000599,45,59,52,62,45,39,5.0,3.024433499900624,365.3212327999063,367.21670540003106,,,,,,,148,f,18,2023-04-05_09h45.40.494,RL,2022.2.4,60.005964540494084,
1,34,0,34,0,,,,,,,,,,None,367.21670540003106,367.21670540003106,367.21670540003106,367.21670540003106,367.21670540003106,367.21670540003106,i,0.25431340001523495,367.5001941998489,367.5001941998489,367.5001941998489,367.5001941998489,367.5001941998489,367.5001941998489,367.79900879994966,367.79900879994966,368.7129599999171,368.7129599999171,368.7129599999171,368.7129599999171,368.7129599999171,368.7129599999171,368.7129599999171,368.7129599999171,368.7129599999171,368.7129599999171,368.7129599999171,368.7129599999171,368.7129599999171,368.7129599999171,368.7129599999171,368.7129599999171,368.7129599999171,371.2221237998456,371.2221237998456,371.2221237998456,371.2221237998456,371.2221237998456,52,60,46,56,46,49,5.0,1.245397899998352,372.4852574998513,374.0481141000055,,,,,,,148,f,18,2023-04-05_09h45.40.494,RL,2022.2.4,60.005964540494084,
1,35,0,35,0,,,,,,,,,,None,374.0481141000055,374.0481141000055,374.0481141000055,374.0481141000055,374.0481141000055,374.0481141000055,r,0.4146098999772221,374.4806872999761,374.4806872999761,374.4806872999761,374.4806872999761,374.4806872999761,374.4806872999761,374.7795748000499,374.7795748000499,375.72702650004067,375.72702650004067,375.72702650004067,375.72702650004067,375.72702650004067,375.72702650004067,375.72702650004067,375.72702650004067,375.72702650004067,375.72702650004067,375.72702650004067,375.72702650004067,375.72702650004067,375.72702650004067,375.72702650004067,375.72702650004067,375.72702650004067,378.236366200028,378.236366200028,378.236366200028,378.236366200028,378.236366200028,46,69,55,58,46,45,5.0,1.112363199936226,379.3660251998808,380.96279400005005,,,,,,,148,f,18,2023-04-05_09h45.40.494,RL,2022.2.4,60.005964540494084,
1,36,0,36,0,,,,,,,,,,None,380.96279400005005,380.96279400005005,380.96279400005005,380.96279400005005,380.96279400005005,380.96279400005005,i,0.4170878999866545,381.413518599933,381.413518599933,381.413518599933,381.413518599933,381.413518599933,381.413518599933,381.71093950001523,381.71093950001523,382.85767609998584,382.85767609998584,382.8739773000125,382.8739773000125,382.8739773000125,382.8739773000125,382.8739773000125,382.8739773000125,382.8739773000125,382.8739773000125,382.8739773000125,382.8739773000125,382.8739773000125,382.8739773000125,382.8739773000125,382.8739773000125,382.8739773000125,385.383371300064,385.383371300064,385.383371300064,385.383371300064,385.383371300064,38,60,48,64,48,42,5.0,0.8633483999874443,386.26440940005705,387.7940278998576,,,,,,,148,f,18,2023-04-05_09h45.40.494,RL,2022.2.4,60.005964540494084,
1,37,0,37,0,,,,,,,,,,None,387.7940278998576,387.7940278998576,387.7940278998576,387.7940278998576,387.7940278998576,387.7940278998576,f,0.36948540015146136,388.1932302999776,388.1932302999776,388.1932302999776,388.1932302999776,388.1932302999776,388.1932302999776,388.4923888000194,388.4923888000194,389.5229321999941,389.5229321999941,389.5229321999941,389.5229321999941,389.5229321999941,389.5229321999941,389.5229321999941,389.5229321999941,389.5229321999941,389.5229321999941,389.5229321999941,389.5229321999941,389.5229321999941,389.5229321999941,389.5229321999941,389.5229321999941,389.5229321999941,392.03198069985956,392.03198069985956,392.03198069985956,392.03198069985956,392.03198069985956,38,55,45,61,55,65,4.0,1.2630406999960542,393.3115759000648,395.1240699000191,,,,,,,148,f,18,2023-04-05_09h45.40.494,RL,2022.2.4,60.005964540494084,
1,38,0,38,0,,,,,,,,,,None,395.1240699000191,395.1240699000191,395.1240699000191,395.1240699000191,395.1240699000191,395.1240699000191,i,0.45595710002817214,395.6082021999173,395.6082021999173,395.6082021999173,395.6082021999173,395.6082021999173,395.6082021999173,395.9056627000682,395.9056627000682,396.75308599998243,396.75308599998243,396.75308599998243,396.75308599998243,396.75308599998243,396.75308599998243,396.75308599998243,396.75308599998243,396.75308599998243,396.75308599998243,396.75308599998243,396.75308599998243,396.75308599998243,396.75308599998243,396.75308599998243,396.75308599998243,396.75308599998243,399.26215219986625,399.26215219986625,399.26215219986625,399.26215219986625,399.26215219986625,40,64,45,64,45,51,4.0,1.1292824000120163,400.40876989997923,402.3376515998971,,,,,,,148,f,18,2023-04-05_09h45.40.494,RL,2022.2.4,60.005964540494084,
1,39,0,39,0,,,,,,,,,,None,402.3376515998971,402.3376515998971,402.3376515998971,402.3376515998971,402.3376515998971,402.3376515998971,j,0.2853762998711318,402.6556863000151,402.6556863000151,402.6556863000151,402.6556863000151,402.6556863000151,402.6556863000151,402.95285220001824,402.95285220001824,403.90049139992334,403.90049139992334,403.90049139992334,403.90049139992334,403.90049139992334,403.90049139992334,403.90049139992334,403.90049139992334,403.90049139992334,403.90049139992334,403.90049139992334,403.90049139992334,403.90049139992334,403.90049139992334,403.90049139992334,403.90049139992334,403.90049139992334,406.40903549990617,406.40903549990617,406.40903549990617,406.40903549990617,406.40903549990617,46,60,49,61,61,36,5.0,0.9641127998474985,407.3900826999452,409.1025755999144,,,,,,,148,f,18,2023-04-05_09h45.40.494,RL,2022.2.4,60.005964540494084,
1,40,0,40,0,,,,,,,,,,None,409.1025755999144,409.1025755999144,409.1025755999144,409.1025755999144,409.1025755999144,409.1025755999144,r,0.2834644999820739,409.4206594999414,409.4206594999414,409.4206594999414,409.4206594999414,409.4206594999414,409.4206594999414,409.7178845999297,409.7178845999297,410.5490232000593,410.5490232000593,410.5490232000593,410.5490232000593,410.5490232000593,410.5490232000593,410.5490232000593,410.5490232000593,410.5490232000593,410.5490232000593,410.5490232000593,410.5490232000593,410.5490232000593,410.5490232000593,410.5490232000593,410.5490232000593,410.5490232000593,413.0579422998708,413.0579422998708,413.0579422998708,413.0579422998708,413.0579422998708,48,60,47,59,48,62,4.0,1.677925799973309,414.7530588998925,416.3826973999385,,,,,,,148,f,18,2023-04-05_09h45.40.494,RL,2022.2.4,60.005964540494084,
1,41,0,41,0,,,,,,,,,,None,416.3826973999385,416.3826973999385,416.3826973999385,416.3826973999385,416.3826973999385,416.3826973999385,f,0.2711650999262929,416.6845299999695,416.6845299999695,416.6845299999695,416.6845299999695,416.6845299999695,416.6845299999695,416.98148299986497,416.98148299986497,418.04517890000716,418.04517890000716,418.04517890000716,418.04517890000716,418.04517890000716,418.04517890000716,418.04517890000716,418.04517890000716,418.04517890000716,418.04517890000716,418.04517890000716,418.04517890000716,418.04517890000716,418.04517890000716,418.04517890000716,418.04517890000716,418.04517890000716,420.55402190005407,420.55402190005407,420.55402190005407,420.55402190005407,420.55402190005407,55,58,51,74,58,52,5.0,1.21273160004057,421.78375070006587,423.3636808998417,,,,,,,148,f,18,2023-04-05_09h45.40.494,RL,2022.2.4,60.005964540494084,
1,42,0,42,0,,,,,,,,,,None,423.3636808998417,423.3636808998417,423.3636808998417,423.3636808998417,423.3636808998417,423.3636808998417,j,0.3036795000080019,423.69810430007055,423.69810430007055,423.69810430007055,423.69810430007055,423.69810430007055,423.69810430007055,423.99569149990566,423.99569149990566,425.3749394000042,425.3749394000042,425.39161240006797,425.39161240006797,425.39161240006797,425.39161240006797,425.39161240006797,425.39161240006797,425.39161240006797,425.39161240006797,425.39161240006797,425.39161240006797,425.39161240006797,425.39161240006797,425.39161240006797,425.39161240006797,425.39161240006797,427.9009040999226,427.9009040999226,427.9009040999226,427.9009040999226,427.9009040999226,49,60,48,72,72,58,5.0,1.4288500999100506,429.3466115000192,431.32528349990025,,,,,,,148,f,18,2023-04-05_09h45.40.494,RL,2022.2.4,60.005964540494084,
1,43,0,43,0,,,,,,,,,,None,431.32528349990025,431.32528349990025,431.32528349990025,431.32528349990025,431.32528349990025,431.32528349990025,r,0.4331476998049766,431.7916013998911,431.7916013998911,431.7916013998911,431.7916013998911,431.7916013998911,431.7916013998911,432.08971069986,432.08971069986,433.51958459988236,433.51958459988236,433.51958459988236,433.51958459988236,433.51958459988236,433.51958459988236,433.51958459988236,433.51958459988236,433.51958459988236,433.51958459988236,433.51958459988236,433.51958459988236,433.51958459988236,433.51958459988236,433.51958459988236,433.51958459988236,433.51958459988236,436.028853100026,436.028853100026,436.028853100026,436.028853100026,436.028853100026,55,57,47,63,55,59,5.0,0.9297973001375794,436.9759774999693,438.72157910000533,,,,,,,148,f,18,2023-04-05_09h45.40.494,RL,2022.2.4,60.005964540494084,
1,44,0,44,0,,,,,,,,,,None,438.72157910000533,438.72157910000533,438.72157910000533,438.72157910000533,438.72157910000533,438.72157910000533,i,0.38435729988850653,439.1394958999008,439.1394958999008,439.1394958999008,439.1394958999008,439.1394958999008,439.1394958999008,439.43646229989827,439.43646229989827,441.36444330005907,441.36444330005907,441.36444330005907,441.36444330005907,441.36444330005907,441.36444330005907,441.36444330005907,441.36444330005907,441.36444330005907,441.36444330005907,441.36444330005907,441.36444330005907,441.36444330005907,441.36444330005907,441.36444330005907,441.36444330005907,441.36444330005907,443.8740193999838,443.8740193999838,443.8740193999838,443.8740193999838,443.8740193999838,59,49,50,64,50,55,5.0,0.9470701001118869,444.8377208998427,446.43367900000885,,,,,,,148,f,18,2023-04-05_09h45.40.494,RL,2022.2.4,60.005964540494084,
1,45,0,45,0,,,,,,,,,,None,446.43367900000885,446.43367900000885,446.43367900000885,446.43367900000885,446.43367900000885,446.43367900000885,r,0.47941279993392527,446.9331624000333,446.9331624000333,446.9331624000333,446.9331624000333,446.9331624000333,446.9331624000333,447.2321675000712,447.2321675000712,449.12683129985817,449.12683129985817,449.12683129985817,449.12683129985817,449.12683129985817,449.12683129985817,449.12683129985817,449.12683129985817,449.12683129985817,449.12683129985817,449.12683129985817,449.12683129985817,449.12683129985817,449.12683129985817,449.12683129985817,449.12683129985817,449.12683129985817,451.63603059994057,451.63603059994057,451.63603059994057,451.63603059994057,451.63603059994057,59,51,44,56,59,55,5.0,0.6641214999835938,452.31709180003963,453.863773399964,,,,,,,148,f,18,2023-04-05_09h45.40.494,RL,2022.2.4,60.005964540494084,
1,46,0,46,0,,,,,,,,,,None,453.863773399964,453.863773399964,453.863773399964,453.863773399964,453.863773399964,453.863773399964,i,0.5917352000251412,454.4807325999718,454.4807325999718,454.4807325999718,454.4807325999718,454.4807325999718,454.4807325999718,454.77823389996774,454.77823389996774,456.672979200026,456.672979200026,456.672979200026,456.672979200026,456.672979200026,456.672979200026,456.672979200026,456.672979200026,456.672979200026,456.672979200026,456.672979200026,456.672979200026,456.672979200026,456.672979200026,456.672979200026,456.672979200026,456.672979200026,459.1817914999556,459.1817914999556,459.1817914999556,459.1817914999556,459.1817914999556,56,61,56,56,56,45,5.0,1.4120590998791158,460.611434499966,462.2908033998683,,,,,,,148,f,18,2023-04-05_09h45.40.494,RL,2022.2.4,60.005964540494084,
1,47,0,47,0,,,,,,,,,,None,462.2908033998683,462.2908033998683,462.2908033998683,462.2908033998683,462.2908033998683,462.2908033998683,j,0.40097630000673234,462.7235510000028,462.7235510000028,462.7235510000028,462.7235510000028,462.7235510000028,462.7235510000028,463.02208029991016,463.02208029991016,464.26881829998456,464.26881829998456,464.26881829998456,464.26881829998456,464.26881829998456,464.26881829998456,464.26881829998456,464.26881829998456,464.26881829998456,464.26881829998456,464.26881829998456,464.26881829998456,464.26881829998456,464.26881829998456,464.26881829998456,464.26881829998456,464.26881829998456,466.77799410000443,466.77799410000443,466.77799410000443,466.77799410000443,466.77799410000443,59,54,51,62,62,54,5.0,0.6644955000374466,467.45931850001216,468.97264339984395,,,,,,,148,f,18,2023-04-05_09h45.40.494,RL,2022.2.4,60.005964540494084,
1,48,0,48,0,,,,,,,,,,None,468.97264339984395,468.97264339984395,468.97264339984395,468.97264339984395,468.97264339984395,468.97264339984395,j,0.3073989001568407,469.3057589000091,469.3057589000091,469.3057589000091,469.3057589000091,469.3057589000091,469.3057589000091,469.604257900035,469.604257900035,471.1667021999601,471.1667021999601,471.1667021999601,471.1667021999601,471.1667021999601,471.1667021999601,471.1667021999601,471.1667021999601,471.1667021999601,471.1667021999601,471.1667021999601,471.1667021999601,471.1667021999601,471.1667021999601,471.1667021999601,471.1667021999601,471.1667021999601,473.67565430002287,473.67565430002287,473.67565430002287,473.67565430002287,473.67565430002287,51,61,48,68,68,45,6.0,1.1132252998650074,474.8061400000006,476.7678346999455,,,,,,,148,f,18,2023-04-05_09h45.40.494,RL,2022.2.4,60.005964540494084,
1,49,0,49,0,,,,,,,,,,None,476.7678346999455,476.7678346999455,476.7678346999455,476.7678346999455,476.7678346999455,476.7678346999455,j,0.398615799844265,477.1856019999832,477.1856019999832,477.1856019999832,477.1856019999832,477.1856019999832,477.1856019999832,477.4827884999104,477.4827884999104,478.3139795998577,478.3139795998577,478.3139795998577,478.3139795998577,478.3139795998577,478.3139795998577,478.3139795998577,478.3139795998577,478.3139795998577,478.3139795998577,478.3139795998577,478.3139795998577,478.3139795998577,478.3139795998577,478.3139795998577,478.3139795998577,478.3139795998577,480.8230399999302,480.8230399999302,480.8230399999302,480.8230399999302,480.8230399999302,54,56,45,57,57,43,6.0,2.3600769001059234,483.19990499992855,485.16164919990115,,,,,,,148,f,18,2023-04-05_09h45.40.494,RL,2022.2.4,60.005964540494084,
1,50,0,50,0,,,,,,,,,,None,485.16164919990115,485.16164919990115,485.16164919990115,485.16164919990115,485.16164919990115,485.16164919990115,r,0.4009077998343855,485.5945353000425,485.5945353000425,485.5945353000425,485.5945353000425,485.5945353000425,485.5945353000425,485.89307129988447,485.89307129988447,487.6715863000136,487.6715863000136,487.6715863000136,487.6715863000136,487.6715863000136,487.6715863000136,487.6715863000136,487.6715863000136,487.6715863000136,487.6715863000136,487.6715863000136,487.6715863000136,487.6715863000136,487.6715863000136,487.6715863000136,487.6715863000136,487.6715863000136,490.18047420005314,490.18047420005314,490.18047420005314,490.18047420005314,490.18047420005314,51,57,40,66,51,35,6.0,3.090740099782124,493.28886389988475,495.00146419997327,,,,,,,148,f,18,2023-04-05_09h45.40.494,RL,2022.2.4,60.005964540494084,
1,51,0,51,0,,,,,,,,,,None,495.00146419997327,495.00146419997327,495.00146419997327,495.00146419997327,495.00146419997327,495.00146419997327,f,0.2262618001550436,495.2524122998584,495.2524122998584,495.2524122998584,495.2524122998584,495.2524122998584,495.2524122998584,495.5499168999959,495.5499168999959,496.7470158999786,496.7470158999786,496.7470158999786,496.7470158999786,496.7470158999786,496.7470158999786,496.7470158999786,496.7470158999786,496.7470158999786,496.7470158999786,496.7470158999786,496.7470158999786,496.7470158999786,496.7470158999786,496.7470158999786,496.7470158999786,496.7470158999786,499.25578649993986,499.25578649993986,499.25578649993986,499.25578649993986,499.25578649993986,49,47,48,66,47,42,6.0,0.7140786000527442,499.98708610003814,501.9992708999198,,,,,,,148,f,18,2023-04-05_09h45.40.494,RL,2022.2.4,60.005964540494084,
1,52,0,52,0,,,,,,,,,,None,501.9992708999198,501.9992708999198,501.9992708999198,501.9992708999198,501.9992708999198,501.9992708999198,i,0.31166569981724024,502.3317573000677,502.3317573000677,502.3317573000677,502.3317573000677,502.3317573000677,502.3317573000677,502.63092550006695,502.63092550006695,503.8278025998734,503.8278025998734,503.8278025998734,503.8278025998734,503.8278025998734,503.8278025998734,503.8278025998734,503.8278025998734,503.8278025998734,503.8278025998734,503.8278025998734,503.8278025998734,503.8278025998734,503.8278025998734,503.8278025998734,503.8278025998734,503.8278025998734,506.3367574000731,506.3367574000731,506.3367574000731,506.3367574000731,506.3367574000731,46,54,44,70,44,40,5.0,1.2455561000388116,507.5996109000407,509.11304669990204,,,,,,,148,f,18,2023-04-05_09h45.40.494,RL,2022.2.4,60.005964540494084,
1,53,0,53,0,,,,,,,,,,None,509.11304669990204,509.11304669990204,509.11304669990204,509.11304669990204,509.11304669990204,509.11304669990204,r,0.49448420014232397,509.63069600006565,509.63069600006565,509.63069600006565,509.63069600006565,509.63069600006565,509.63069600006565,509.9277963999193,509.9277963999193,511.2070913000498,511.2070913000498,511.2240819998551,511.2240819998551,511.2240819998551,511.2240819998551,511.2240819998551,511.2240819998551,511.2240819998551,511.2240819998551,511.2240819998551,511.2240819998551,511.2240819998551,511.2240819998551,511.2240819998551,511.2240819998551,511.2240819998551,513.7329601000529,513.7329601000529,513.7329601000529,513.7329601000529,513.7329601000529,57,44,47,54,57,41,5.0,1.3289881001692265,515.0795422999654,516.7753729999531,,,,,,,148,f,18,2023-04-05_09h45.40.494,RL,2022.2.4,60.005964540494084,
1,54,0,54,0,,,,,,,,,,None,516.7753729999531,516.7753729999531,516.7753729999531,516.7753729999531,516.7753729999531,516.7753729999531,i,0.3338733999989927,517.1417280999012,517.1417280999012,517.1417280999012,517.1417280999012,517.1417280999012,517.1417280999012,517.4404835000169,517.4404835000169,519.0694780000485,519.0694780000485,519.0694780000485,519.0694780000485,519.0694780000485,519.0694780000485,519.0694780000485,519.0694780000485,519.0694780000485,519.0694780000485,519.0694780000485,519.0694780000485,519.0694780000485,519.0694780000485,519.0694780000485,519.0694780000485,519.0694780000485,521.5782977000345,521.5782977000345,521.5782977000345,521.5782977000345,521.5782977000345,54,44,47,57,47,42,7.0,1.1794955001678318,522.7751102000475,524.620490500005,,,,,,,148,f,18,2023-04-05_09h45.40.494,RL,2022.2.4,60.005964540494084,
1,55,0,55,0,,,,,,,,,,None,524.620490500005,524.620490500005,524.620490500005,524.620490500005,524.620490500005,524.620490500005,i,0.28621629998087883,524.9373458998743,524.9373458998743,524.9373458998743,524.9373458998743,524.9373458998743,524.9373458998743,525.2358772000298,525.2358772000298,526.7152495000046,526.7152495000046,526.7152495000046,526.7152495000046,526.7152495000046,526.7152495000046,526.7152495000046,526.7152495000046,526.7152495000046,526.7152495000046,526.7152495000046,526.7152495000046,526.7152495000046,526.7152495000046,526.7152495000046,526.7152495000046,526.7152495000046,529.2240875000134,529.2240875000134,529.2240875000134,529.2240875000134,529.2240875000134,60,41,55,60,55,34,6.0,2.3097691000439227,531.5508878000546,533.4797522998415,,,,,,,148,f,18,2023-04-05_09h45.40.494,RL,2022.2.4,60.005964540494084,
1,56,0,56,0,,,,,,,,,,None,533.4797522998415,533.4797522998415,533.4797522998415,533.4797522998415,533.4797522998415,533.4797522998415,f,0.33753639995120466,533.8461978998967,533.8461978998967,533.8461978998967,533.8461978998967,533.8461978998967,533.8461978998967,534.1450332000386,534.1450332000386,535.2086422999855,535.2086422999855,535.2086422999855,535.2086422999855,535.2086422999855,535.2086422999855,535.2086422999855,535.2086422999855,535.2086422999855,535.2086422999855,535.2086422999855,535.2086422999855,535.2086422999855,535.2086422999855,535.2086422999855,535.2086422999855,535.2086422999855,537.7175425000023,537.7175425000023,537.7175425000023,537.7175425000023,537.7175425000023,54,44,40,65,44,25,5.0,1.2795521998777986,539.0141958999448,540.9428099999204,,,,,,,148,f,18,2023-04-05_09h45.40.494,RL,2022.2.4,60.005964540494084,
1,57,0,57,0,,,,,,,,,,None,540.9428099999204,540.9428099999204,540.9428099999204,540.9428099999204,540.9428099999204,540.9428099999204,f,1.456379400100559,542.4234334998764,542.4234334998764,542.4234334998764,542.4234334998764,542.4234334998764,542.4234334998764,542.7216683998704,542.7216683998704,543.868322199909,543.868322199909,543.868322199909,543.868322199909,543.868322199909,543.868322199909,543.868322199909,543.868322199909,543.868322199909,543.868322199909,543.868322199909,543.868322199909,543.868322199909,543.868322199909,543.868322199909,543.868322199909,543.868322199909,546.3774558999576,546.3774558999576,546.3774558999576,546.3774558999576,546.3774558999576,59,36,49,60,36,21,4.0,1.7776606001425534,548.1723603999708,549.9678493000101,,,,,,,148,f,18,2023-04-05_09h45.40.494,RL,2022.2.4,60.005964540494084,
1,58,0,58,0,,,,,,,,,,None,549.9678493000101,549.9678493000101,549.9678493000101,549.9678493000101,549.9678493000101,549.9678493000101,i,0.33941580005921423,550.3343237999361,550.3343237999361,550.3343237999361,550.3343237999361,550.3343237999361,550.3343237999361,550.6330430998933,550.6330430998933,552.4947523998562,552.4947523998562,552.4947523998562,552.4947523998562,552.4947523998562,552.4947523998562,552.4947523998562,552.4947523998562,552.4947523998562,552.4947523998562,552.4947523998562,552.4947523998562,552.4947523998562,552.4947523998562,552.4947523998562,552.4947523998562,552.4947523998562,555.003709499957,555.003709499957,555.003709499957,555.003709499957,555.003709499957,49,30,54,52,54,31,5.0,3.489719299832359,558.5105170998722,560.4230339999776,,,,,,,148,f,18,2023-04-05_09h45.40.494,RL,2022.2.4,60.005964540494084,
1,59,0,59,0,,,,,,,,,,None,560.4230339999776,560.4230339999776,560.4230339999776,560.4230339999776,560.4230339999776,560.4230339999776,r,0.25753879989497364,560.707171499962,560.707171499962,560.707171499962,560.707171499962,560.707171499962,560.707171499962,561.0050790000241,561.0050790000241,562.8493949999101,562.8493949999101,562.8664460999426,562.8664460999426,562.8664460999426,562.8664460999426,562.8664460999426,562.8664460999426,562.8664460999426,562.8664460999426,562.8664460999426,562.8664460999426,562.8664460999426,562.8664460999426,562.8664460999426,562.8664460999426,562.8664460999426,565.3754010000266,565.3754010000266,565.3754010000266,565.3754010000266,565.3754010000266,51,34,59,58,51,30,6.0,1.710798199987039,567.1042132000439,568.7502436998766,,,,,,,148,f,18,2023-04-05_09h45.40.494,RL,2022.2.4,60.005964540494084,
1,60,0,60,0,,,,,,,,,,None,568.7502436998766,568.7502436998766,568.7502436998766,568.7502436998766,568.7502436998766,568.7502436998766,f,0.2810122000519186,569.051211199956,569.051211199956,569.051211199956,569.051211199956,569.051211199956,569.051211199956,569.3489480998833,569.3489480998833,570.7782631998416,570.7782631998416,570.7782631998416,570.7782631998416,570.7782631998416,570.7782631998416,570.7782631998416,570.7782631998416,570.7782631998416,570.7782631998416,570.7782631998416,570.7782631998416,570.7782631998416,570.7782631998416,570.7782631998416,570.7782631998416,570.7782631998416,573.2872869998682,573.2872869998682,573.2872869998682,573.2872869998682,573.2872869998682,55,37,52,63,37,35,6.0,2.5257290001027286,575.8300963998772,577.6259379999246,,,,,,,148,f,18,2023-04-05_09h45.40.494,RL,2022.2.4,60.005964540494084,
1,61,0,61,0,,,,,,,,,,None,577.6259379999246,577.6259379999246,577.6259379999246,577.6259379999246,577.6259379999246,577.6259379999246,i,0.4110757000744343,578.0583087999839,578.0583087999839,578.0583087999839,578.0583087999839,578.0583087999839,578.0583087999839,578.3576247000601,578.3576247000601,580.2026438000612,580.2026438000612,580.2026438000612,580.2026438000612,580.2026438000612,580.2026438000612,580.2026438000612,580.2026438000612,580.2026438000612,580.2026438000612,580.2026438000612,580.2026438000612,580.2026438000612,580.2026438000612,580.2026438000612,580.2026438000612,580.2026438000612,582.711209199857,582.711209199857,582.711209199857,582.711209199857,582.711209199857,54,23,54,64,54,36,6.0,1.1627529999241233,583.8916794999968,585.5045888000168,,,,,,,148,f,18,2023-04-05_09h45.40.494,RL,2022.2.4,60.005964540494084,
1,62,0,62,0,,,,,,,,,,None,585.5045888000168,585.5045888000168,585.5045888000168,585.5045888000168,585.5045888000168,585.5045888000168,f,0.3247500001452863,585.8552147999872,585.8552147999872,585.8552147999872,585.8552147999872,585.8552147999872,585.8552147999872,586.1528857999947,586.1528857999947,587.7484146999195,587.7484146999195,587.7484146999195,587.7484146999195,587.7484146999195,587.7484146999195,587.7484146999195,587.7484146999195,587.7484146999195,587.7484146999195,587.7484146999195,587.7484146999195,587.7484146999195,587.7484146999195,587.7484146999195,587.7484146999195,587.7484146999195,590.2576897998806,590.2576897998806,590.2576897998806,590.2576897998806,590.2576897998806,53,22,53,48,22,43,5.0,1.5456095999106765,591.8201305998955,593.615654299967,,,,,,,148,f,18,2023-04-05_09h45.40.494,RL,2022.2.4,60.005964540494084,
1,63,0,63,0,,,,,,,,,,None,593.615654299967,593.615654299967,593.615654299967,593.615654299967,593.615654299967,593.615654299967,i,0.31039889995008707,593.9483906000387,593.9483906000387,593.9483906000387,593.9483906000387,593.9483906000387,593.9483906000387,594.2474533000495,594.2474533000495,596.1253488999791,596.1253488999791,596.1253488999791,596.1253488999791,596.1253488999791,596.1253488999791,596.1253488999791,596.1253488999791,596.1253488999791,596.1253488999791,596.1253488999791,596.1253488999791,596.1253488999791,596.1253488999791,596.1253488999791,596.1253488999791,596.1253488999791,598.6346765998751,598.6346765998751,598.6346765998751,598.6346765998751,598.6346765998751,54,27,52,61,52,35,5.0,2.907908200053498,601.5601746998727,603.5050985000562,,,,,,,148,f,18,2023-04-05_09h45.40.494,RL,2022.2.4,60.005964540494084,
1,64,0,64,0,,,,,,,,,,None,603.5050985000562,603.5050985000562,603.5050985000562,603.5050985000562,603.5050985000562,603.5050985000562,i,0.28433219995349646,603.8216421999969,603.8216421999969,603.8216421999969,603.8216421999969,603.8216421999969,603.8216421999969,604.1207140998449,604.1207140998449,605.6330498000607,605.6330498000607,605.6330498000607,605.6330498000607,605.6330498000607,605.6330498000607,605.6330498000607,605.6330498000607,605.6330498000607,605.6330498000607,605.6330498000607,605.6330498000607,605.6330498000607,605.6330498000607,605.6330498000607,605.6330498000607,605.6330498000607,608.1421823999844,608.1421823999844,608.1421823999844,608.1421823999844,608.1421823999844,52,32,56,53,56,33,5.0,1.760487699881196,609.9206822998822,611.7661659999285,,,,,,,148,f,18,2023-04-05_09h45.40.494,RL,2022.2.4,60.005964540494084,
1,65,0,65,0,,,,,,,,,,None,611.7661659999285,611.7661659999285,611.7661659999285,611.7661659999285,611.7661659999285,611.7661659999285,r,0.3094108998775482,612.100119400071,612.100119400071,612.100119400071,612.100119400071,612.100119400071,612.100119400071,612.3979096000548,612.3979096000548,613.212474900065,613.212474900065,613.212474900065,613.212474900065,613.212474900065,613.212474900065,613.212474900065,613.212474900065,613.212474900065,613.212474900065,613.212474900065,613.212474900065,613.212474900065,613.212474900065,613.212474900065,613.212474900065,613.212474900065,615.7214331999421,615.7214331999421,615.7214331999421,615.7214331999421,615.7214331999421,61,29,72,57,61,30,5.0,1.1630199002102017,616.9014208000153,618.6806824000087,,,,,,,148,f,18,2023-04-05_09h45.40.494,RL,2022.2.4,60.005964540494084,
1,66,0,66,0,,,,,,,,,,None,618.6806824000087,618.6806824000087,618.6806824000087,618.6806824000087,618.6806824000087,618.6806824000087,i,0.3026431000325829,619.0137626999058,619.0137626999058,619.0137626999058,619.0137626999058,619.0137626999058,619.0137626999058,619.3122604999226,619.3122604999226,621.1241154999007,621.1241154999007,621.1241154999007,621.1241154999007,621.1241154999007,621.1241154999007,621.1241154999007,621.1241154999007,621.1241154999007,621.1241154999007,621.1241154999007,621.1241154999007,621.1241154999007,621.1241154999007,621.1241154999007,621.1241154999007,621.1241154999007,623.6333016999997,623.6333016999997,623.6333016999997,623.6333016999997,623.6333016999997,62,30,57,55,57,47,6.0,2.6588572999462485,626.3093019998632,627.8553549000062,,,,,,,148,f,18,2023-04-05_09h45.40.494,RL,2022.2.4,60.005964540494084,
1,67,0,67,0,,,,,,,,,,None,627.8553549000062,627.8553549000062,627.8553549000062,627.8553549000062,627.8553549000062,627.8553549000062,f,0.2833744001109153,628.172011599876,628.172011599876,628.172011599876,628.172011599876,628.172011599876,628.172011599876,628.4709274000488,628.4709274000488,630.4654001998715,630.4654001998715,630.4654001998715,630.4654001998715,630.4654001998715,630.4654001998715,630.4654001998715,630.4654001998715,630.4654001998715,630.4654001998715,630.4654001998715,630.4654001998715,630.4654001998715,630.4654001998715,630.4654001998715,630.4654001998715,630.4654001998715,632.9744225000031,632.9744225000031,632.9744225000031,632.9744225000031,632.9744225000031,62,29,56,63,29,27,6.0,1.4285088998731226,634.4203862000722,636.2993927998468,,,,,,,148,f,18,2023-04-05_09h45.40.494,RL,2022.2.4,60.005964540494084,
1,68,0,68,0,,,,,,,,,,None,636.2993927998468,636.2993927998468,636.2993927998468,636.2993927998468,636.2993927998468,636.2993927998468,j,0.2913103001192212,636.6175855998881,636.6175855998881,636.6175855998881,636.6175855998881,636.6175855998881,636.6175855998881,636.9145366998855,636.9145366998855,638.4263742999174,638.4263742999174,638.4263742999174,638.4263742999174,638.4263742999174,638.4263742999174,638.4263742999174,638.4263742999174,638.4263742999174,638.4263742999174,638.4263742999174,638.4263742999174,638.4263742999174,638.4263742999174,638.4263742999174,638.4263742999174,638.4263742999174,640.935696600005,640.935696600005,640.935696600005,640.935696600005,640.935696600005,64,31,61,55,55,41,6.0,0.7149743000045419,641.6674110998865,643.6790668000467,,,,,,,148,f,18,2023-04-05_09h45.40.494,RL,2022.2.4,60.005964540494084,
1,69,0,69,0,,,,,,,,,,None,643.6790668000467,643.6790668000467,643.6790668000467,643.6790668000467,643.6790668000467,643.6790668000467,j,0.2630921001546085,643.9640889998991,643.9640889998991,643.9640889998991,643.9640889998991,643.9640889998991,643.9640889998991,644.2608477000613,644.2608477000613,645.7736273999326,645.7736273999326,645.7736273999326,645.7736273999326,645.7736273999326,645.7736273999326,645.7736273999326,645.7736273999326,645.7736273999326,645.7736273999326,645.7736273999326,645.7736273999326,645.7736273999326,645.7736273999326,645.7736273999326,645.7736273999326,645.7736273999326,648.2827240999322,648.2827240999322,648.2827240999322,648.2827240999322,648.2827240999322,59,35,66,49,49,37,6.0,1.1118201999925077,649.4124920000322,651.1088425000198,,,,,,,148,f,18,2023-04-05_09h45.40.494,RL,2022.2.4,60.005964540494084,
1,70,0,70,0,,,,,,,,,,None,651.1088425000198,651.1088425000198,651.1088425000198,651.1088425000198,651.1088425000198,651.1088425000198,j,0.3361021000891924,651.474822399905,651.474822399905,651.474822399905,651.474822399905,651.474822399905,651.474822399905,651.7738997999113,651.7738997999113,653.5691257999279,653.5691257999279,653.5691257999279,653.5691257999279,653.5691257999279,653.5691257999279,653.5691257999279,653.5691257999279,653.5691257999279,653.5691257999279,653.5691257999279,653.5691257999279,653.5691257999279,653.5691257999279,653.5691257999279,653.5691257999279,653.5691257999279,656.0781243999954,656.0781243999954,656.0781243999954,656.0781243999954,656.0781243999954,60,34,65,55,55,44,6.0,0.9800472999922931,657.075275799958,658.6548710998613,,,,,,,148,f,18,2023-04-05_09h45.40.494,RL,2022.2.4,60.005964540494084,
1,71,0,71,0,,,,,,,,,,None,658.6548710998613,658.6548710998613,658.6548710998613,658.6548710998613,658.6548710998613,658.6548710998613,i,0.5478101000189781,659.2204324998893,659.2204324998893,659.2204324998893,659.2204324998893,659.2204324998893,659.2204324998893,659.5192996999249,659.5192996999249,661.4476763999555,661.4476763999555,661.4476763999555,661.4476763999555,661.4476763999555,661.4476763999555,661.4476763999555,661.4476763999555,661.4476763999555,661.4476763999555,661.4476763999555,661.4476763999555,661.4476763999555,661.4476763999555,661.4476763999555,661.4476763999555,661.4476763999555,663.9564473999199,663.9564473999199,663.9564473999199,663.9564473999199,663.9564473999199,60,42,60,46,60,39,6.0,0.8300522000063211,664.8041892999317,666.3836985998787,,,,,,,148,f,18,2023-04-05_09h45.40.494,RL,2022.2.4,60.005964540494084,
1,72,0,72,0,,,,,,,,,,None,666.3836985998787,666.3836985998787,666.3836985998787,666.3836985998787,666.3836985998787,666.3836985998787,j,0.32556090014986694,666.7352463998832,666.7352463998832,666.7352463998832,666.7352463998832,666.7352463998832,666.7352463998832,667.0322672999464,667.0322672999464,668.8103473000228,668.8103473000228,668.8103473000228,668.8103473000228,668.8103473000228,668.8103473000228,668.8103473000228,668.8103473000228,668.8103473000228,668.8103473000228,668.8103473000228,668.8103473000228,668.8103473000228,668.8103473000228,668.8103473000228,668.8103473000228,668.8103473000228,671.3199916998856,671.3199916998856,671.3199916998856,671.3199916998856,671.3199916998856,60,35,58,52,52,32,6.0,3.157372700050473,674.4944821000099,676.2068169999402,,,,,,,148,f,18,2023-04-05_09h45.40.494,RL,2022.2.4,60.005964540494084,
1,73,0,73,0,,,,,,,,,,None,676.2068169999402,676.2068169999402,676.2068169999402,676.2068169999402,676.2068169999402,676.2068169999402,i,0.26694510015659034,676.5068880999461,676.5068880999461,676.5068880999461,676.5068880999461,676.5068880999461,676.5068880999461,676.805064199958,676.805064199958,678.5677346000448,678.5677346000448,678.5677346000448,678.5677346000448,678.5677346000448,678.5677346000448,678.5677346000448,678.5677346000448,678.5677346000448,678.5677346000448,678.5677346000448,678.5677346000448,678.5677346000448,678.5677346000448,678.5677346000448,678.5677346000448,678.5677346000448,681.0762014000211,681.0762014000211,681.0762014000211,681.0762014000211,681.0762014000211,64,42,58,44,58,31,6.0,0.9468183000572026,682.0403589999769,683.7363314998802,,,,,,,148,f,18,2023-04-05_09h45.40.494,RL,2022.2.4,60.005964540494084,
1,74,0,74,0,,,,,,,,,,None,683.7363314998802,683.7363314998802,683.7363314998802,683.7363314998802,683.7363314998802,683.7363314998802,r,0.265012500109151,684.0193558998872,684.0193558998872,684.0193558998872,684.0193558998872,684.0193558998872,684.0193558998872,684.3185823999811,684.3185823999811,685.6978132999502,685.6978132999502,685.6978132999502,685.6978132999502,685.6978132999502,685.6978132999502,685.6978132999502,685.6978132999502,685.6978132999502,685.6978132999502,685.6978132999502,685.6978132999502,685.6978132999502,685.6978132999502,685.6978132999502,685.6978132999502,685.6978132999502,688.2068830998614,688.2068830998614,688.2068830998614,688.2068830998614,688.2068830998614,56,44,54,64,56,35,6.0,0.7466220001224428,688.9717059999239,690.5842144000344,,,,,,,148,f,18,2023-04-05_09h45.40.494,RL,2022.2.4,60.005964540494084,
1,75,0,75,0,,,,,,,,,,q,743.8224895999301,743.8224895999301,743.8224895999301,743.8224895999301,743.8224895999301,743.8224895999301,i,0.6165047998074442,744.4713051998988,744.4713051998988,744.4713051998988,744.4713051998988,744.4713051998988,744.4713051998988,744.769811199978,744.769811199978,745.7005125998985,745.7005125998985,745.7174912998453,745.7174912998453,745.7174912998453,745.7174912998453,745.7174912998453,745.7174912998453,745.7174912998453,745.7174912998453,745.7174912998453,745.7174912998453,745.7174912998453,745.7174912998453,745.7174912998453,745.7174912998453,745.7174912998453,748.2266813998576,748.2266813998576,748.2266813998576,748.2266813998576,748.2266813998576,61,33,47,56,47,31,5.0,1.5768270001281053,749.821680800058,751.4016062999144,690.5842144000344,690.5842144000344,53.205691299866885,,,,148,f,18,2023-04-05_09h45.40.494,RL,2022.2.4,60.005964540494084,
1,76,0,76,0,,,,,,,,,,None,751.4016062999144,751.4016062999144,751.4016062999144,751.4016062999144,751.4016062999144,751.4016062999144,f,0.2808493000920862,751.7025778000243,751.7025778000243,751.7025778000243,751.7025778000243,751.7025778000243,751.7025778000243,752.0002045999281,752.0002045999281,753.3796423999593,753.3796423999593,753.3796423999593,753.3796423999593,753.3796423999593,753.3796423999593,753.3796423999593,753.3796423999593,753.3796423999593,753.3796423999593,753.3796423999593,753.3796423999593,753.3796423999593,753.3796423999593,753.3796423999593,753.3796423999593,753.3796423999593,755.8887509000488,755.8887509000488,755.8887509000488,755.8887509000488,755.8887509000488,62,40,52,51,40,29,5.0,0.8640829001087695,756.770021900069,758.7650377999526,,,,,,,148,f,18,2023-04-05_09h45.40.494,RL,2022.2.4,60.005964540494084,
1,77,0,77,0,,,,,,,,,,None,758.7650377999526,758.7650377999526,758.7650377999526,758.7650377999526,758.7650377999526,758.7650377999526,j,0.5237400999758393,759.3138375999406,759.3138375999406,759.3138375999406,759.3138375999406,759.3138375999406,759.3138375999406,759.6131382000167,759.6131382000167,761.1090374998748,761.1090374998748,761.1090374998748,761.1090374998748,761.1090374998748,761.1090374998748,761.1090374998748,761.1090374998748,761.1090374998748,761.1090374998748,761.1090374998748,761.1090374998748,761.1090374998748,761.1090374998748,761.1090374998748,761.1090374998748,761.1090374998748,763.6182085999753,763.6182085999753,763.6182085999753,763.6182085999753,763.6182085999753,55,39,48,57,57,40,6.0,1.1627919001039118,764.7980944998562,766.5771804999094,,,,,,,148,f,18,2023-04-05_09h45.40.494,RL,2022.2.4,60.005964540494084,
1,78,0,78,0,,,,,,,,,,None,766.5771804999094,766.5771804999094,766.5771804999094,766.5771804999094,766.5771804999094,766.5771804999094,r,0.2736686000134796,766.8781490998808,766.8781490998808,766.8781490998808,766.8781490998808,766.8781490998808,766.8781490998808,767.175857400056,767.175857400056,768.1231869000476,768.1231869000476,768.1231869000476,768.1231869000476,768.1231869000476,768.1231869000476,768.1231869000476,768.1231869000476,768.1231869000476,768.1231869000476,768.1231869000476,768.1231869000476,768.1231869000476,768.1231869000476,768.1231869000476,768.1231869000476,768.1231869000476,770.6321985998657,770.6321985998657,770.6321985998657,770.6321985998657,770.6321985998657,64,35,45,44,64,20,6.0,0.647893900051713,771.2968478000257,772.8765688999556,,,,,,,148,f,18,2023-04-05_09h45.40.494,RL,2022.2.4,60.005964540494084,
1,79,0,79,0,,,,,,,,,,None,772.8765688999556,772.8765688999556,772.8765688999556,772.8765688999556,772.8765688999556,772.8765688999556,f,0.32374330004677176,773.2266408000141,773.2266408000141,773.2266408000141,773.2266408000141,773.2266408000141,773.2266408000141,773.5250192000531,773.5250192000531,775.2864760998636,775.2864760998636,775.3032640998717,775.3032640998717,775.3032640998717,775.3032640998717,775.3032640998717,775.3032640998717,775.3032640998717,775.3032640998717,775.3032640998717,775.3032640998717,775.3032640998717,775.3032640998717,775.3032640998717,775.3032640998717,775.3032640998717,777.8126236998942,777.8126236998942,777.8126236998942,777.8126236998942,777.8126236998942,61,29,49,54,29,34,6.0,0.8802533000707626,778.7100658998825,780.6217175999191,,,,,,,148,f,18,2023-04-05_09h45.40.494,RL,2022.2.4,60.005964540494084,
1,80,0,80,0,,,,,,,,,,None,780.6217175999191,780.6217175999191,780.6217175999191,780.6217175999191,780.6217175999191,780.6217175999191,r,0.3302813998889178,780.9718875000253,780.9718875000253,780.9718875000253,780.9718875000253,780.9718875000253,780.9718875000253,781.2706172000617,781.2706172000617,782.3344383998774,782.3344383998774,782.3344383998774,782.3344383998774,782.3344383998774,782.3344383998774,782.3344383998774,782.3344383998774,782.3344383998774,782.3344383998774,782.3344383998774,782.3344383998774,782.3344383998774,782.3344383998774,782.3344383998774,782.3344383998774,782.3344383998774,784.8433653998654,784.8433653998654,784.8433653998654,784.8433653998654,784.8433653998654,64,32,37,54,64,24,6.0,1.495230000000447,786.3559778998606,788.1349140999373,,,,,,,148,f,18,2023-04-05_09h45.40.494,RL,2022.2.4,60.005964540494084,
1,81,0,81,0,,,,,,,,,,None,788.1349140999373,788.1349140999373,788.1349140999373,788.1349140999373,788.1349140999373,788.1349140999373,r,0.2746341999154538,788.4355877998751,788.4355877998751,788.4355877998751,788.4355877998751,788.4355877998751,788.4355877998751,788.7333007999696,788.7333007999696,789.5977119000163,789.5977119000163,789.5977119000163,789.5977119000163,789.5977119000163,789.5977119000163,789.5977119000163,789.5977119000163,789.5977119000163,789.5977119000163,789.5977119000163,789.5977119000163,789.5977119000163,789.5977119000163,789.5977119000163,789.5977119000163,789.5977119000163,792.106862799963,792.106862799963,792.106862799963,792.106862799963,792.106862799963,65,30,43,49,65,26,6.0,0.6811116000171751,792.8047329999972,794.5171815999784,,,,,,,148,f,18,2023-04-05_09h45.40.494,RL,2022.2.4,60.005964540494084,
1,82,0,82,0,,,,,,,,,,None,794.5171815999784,794.5171815999784,794.5171815999784,794.5171815999784,794.5171815999784,794.5171815999784,r,0.46542379981838167,795.0013339999132,795.0013339999132,795.0013339999132,795.0013339999132,795.0013339999132,795.0013339999132,795.2990151999984,795.2990151999984,796.2300044998992,796.2300044998992,796.2300044998992,796.2300044998992,796.2300044998992,796.2300044998992,796.2300044998992,796.2300044998992,796.2300044998992,796.2300044998992,796.2300044998992,796.2300044998992,796.2300044998992,796.2300044998992,796.2300044998992,796.2300044998992,796.2300044998992,798.7388140000403,798.7388140000403,798.7388140000403,798.7388140000403,798.7388140000403,62,32,33,61,62,26,6.0,0.7637533000670373,799.5199984000064,801.3653639999684,,,,,,,148,f,18,2023-04-05_09h45.40.494,RL,2022.2.4,60.005964540494084,
1,83,0,83,0,,,,,,,,,,None,801.3653639999684,801.3653639999684,801.3653639999684,801.3653639999684,801.3653639999684,801.3653639999684,r,0.28067220002412796,801.6649763998576,801.6649763998576,801.6649763998576,801.6649763998576,801.6649763998576,801.6649763998576,801.9640957999509,801.9640957999509,802.7951118999626,802.7951118999626,802.7951118999626,802.7951118999626,802.7951118999626,802.7951118999626,802.7951118999626,802.7951118999626,802.7951118999626,802.7951118999626,802.7951118999626,802.7951118999626,802.7951118999626,802.7951118999626,802.7951118999626,802.7951118999626,802.7951118999626,805.3042571998667,805.3042571998667,805.3042571998667,805.3042571998667,805.3042571998667,60,38,46,53,60,21,6.0,1.1628469999413937,806.4842840000056,808.2798605000135,,,,,,,148,f,18,2023-04-05_09h45.40.494,RL,2022.2.4,60.005964540494084,
1,84,0,84,0,,,,,,,,,,None,808.2798605000135,808.2798605000135,808.2798605000135,808.2798605000135,808.2798605000135,808.2798605000135,j,0.4983942999970168,808.7964391000569,808.7964391000569,808.7964391000569,808.7964391000569,808.7964391000569,808.7964391000569,809.0946857999079,809.0946857999079,810.5570066999644,810.5570066999644,810.5570066999644,810.5570066999644,810.5570066999644,810.5570066999644,810.5570066999644,810.5570066999644,810.5570066999644,810.5570066999644,810.5570066999644,810.5570066999644,810.5570066999644,810.5570066999644,810.5570066999644,810.5570066999644,810.5570066999644,813.0658142999746,813.0658142999746,813.0658142999746,813.0658142999746,813.0658142999746,57,37,41,54,54,33,6.0,2.111730699893087,815.1939131000545,816.8398849999066,,,,,,,148,f,18,2023-04-05_09h45.40.494,RL,2022.2.4,60.005964540494084,
1,85,0,85,0,,,,,,,,,,None,816.8398849999066,816.8398849999066,816.8398849999066,816.8398849999066,816.8398849999066,816.8398849999066,j,0.2600058999378234,817.1249937999528,817.1249937999528,817.1249937999528,817.1249937999528,817.1249937999528,817.1249937999528,817.4216372999363,817.4216372999363,818.9673333999235,818.9673333999235,818.9673333999235,818.9673333999235,818.9673333999235,818.9673333999235,818.9673333999235,818.9673333999235,818.9673333999235,818.9673333999235,818.9673333999235,818.9673333999235,818.9673333999235,818.9673333999235,818.9673333999235,818.9673333999235,818.9673333999235,821.476419699844,821.476419699844,821.476419699844,821.476419699844,821.476419699844,51,39,43,60,60,25,6.0,1.0798984998837113,822.5733504998498,824.2527355998755,,,,,,,148,f,18,2023-04-05_09h45.40.494,RL,2022.2.4,60.005964540494084,
1,86,0,86,0,,,,,,,,,,None,824.2527355998755,824.2527355998755,824.2527355998755,824.2527355998755,824.2527355998755,824.2527355998755,j,0.33490250003524125,824.6210769999307,824.6210769999307,824.6210769999307,824.6210769999307,824.6210769999307,824.6210769999307,824.9180367998779,824.9180367998779,825.8818963998929,825.8818963998929,825.8818963998929,825.8818963998929,825.8818963998929,825.8818963998929,825.8818963998929,825.8818963998929,825.8818963998929,825.8818963998929,825.8818963998929,825.8818963998929,825.8818963998929,825.8818963998929,825.8818963998929,825.8818963998929,825.8818963998929,828.390828399919,828.390828399919,828.390828399919,828.390828399919,828.390828399919,46,35,47,58,58,20,6.0,1.195916200056672,829.6046422999352,831.2172468998469,,,,,,,148,f,18,2023-04-05_09h45.40.494,RL,2022.2.4,60.005964540494084,
1,87,0,87,0,,,,,,,,,,None,831.2172468998469,831.2172468998469,831.2172468998469,831.2172468998469,831.2172468998469,831.2172468998469,i,0.26395660010166466,831.5012824998703,831.5012824998703,831.5012824998703,831.5012824998703,831.5012824998703,831.5012824998703,831.7994333000388,831.7994333000388,833.2284458999056,833.2284458999056,833.2284458999056,833.2284458999056,833.2284458999056,833.2284458999056,833.2284458999056,833.2284458999056,833.2284458999056,833.2284458999056,833.2284458999056,833.2284458999056,833.2284458999056,833.2284458999056,833.2284458999056,833.2284458999056,833.2284458999056,835.7374201999046,835.7374201999046,835.7374201999046,835.7374201999046,835.7374201999046,49,37,44,56,44,23,6.0,2.259643299970776,838.014874599874,839.7107291999273,,,,,,,148,f,18,2023-04-05_09h45.40.494,RL,2022.2.4,60.005964540494084,
1,88,0,88,0,,,,,,,,,,None,839.7107291999273,839.7107291999273,839.7107291999273,839.7107291999273,839.7107291999273,839.7107291999273,i,0.24439070001244545,839.9782062999438,839.9782062999438,839.9782062999438,839.9782062999438,839.9782062999438,839.9782062999438,840.2762418000493,840.2762418000493,841.6060341000557,841.6060341000557,841.6060341000557,841.6060341000557,841.6060341000557,841.6060341000557,841.6060341000557,841.6060341000557,841.6060341000557,841.6060341000557,841.6060341000557,841.6060341000557,841.6060341000557,841.6060341000557,841.6060341000557,841.6060341000557,841.6060341000557,844.114993999945,844.114993999945,844.114993999945,844.114993999945,844.114993999945,46,51,38,77,38,32,6.0,0.7302431999705732,844.862540199887,846.6252860999666,,,,,,,148,f,18,2023-04-05_09h45.40.494,RL,2022.2.4,60.005964540494084,
1,89,0,89,0,,,,,,,,,,None,846.6252860999666,846.6252860999666,846.6252860999666,846.6252860999666,846.6252860999666,846.6252860999666,r,0.40617570001631975,847.0597488000058,847.0597488000058,847.0597488000058,847.0597488000058,847.0597488000058,847.0597488000058,847.3565634000115,847.3565634000115,848.8028666998725,848.8028666998725,848.8194345000666,848.8194345000666,848.8194345000666,848.8194345000666,848.8194345000666,848.8194345000666,848.8194345000666,848.8194345000666,848.8194345000666,848.8194345000666,848.8194345000666,848.8194345000666,848.8194345000666,848.8194345000666,848.8194345000666,851.3284252998419,851.3284252998419,851.3284252998419,851.3284252998419,851.3284252998419,54,40,51,61,54,26,6.0,0.5978588999714702,851.943336199969,853.5228666998446,,,,,,,148,f,18,2023-04-05_09h45.40.494,RL,2022.2.4,60.005964540494084,
1,90,0,90,0,,,,,,,,,,None,853.5228666998446,853.5228666998446,853.5228666998446,853.5228666998446,853.5228666998446,853.5228666998446,r,0.2912298000883311,853.8391914998647,853.8391914998647,853.8391914998647,853.8391914998647,853.8391914998647,853.8391914998647,854.1384213999845,854.1384213999845,855.335109999869,855.335109999869,855.335109999869,855.335109999869,855.335109999869,855.335109999869,855.335109999869,855.335109999869,855.335109999869,855.335109999869,855.335109999869,855.335109999869,855.335109999869,855.335109999869,855.335109999869,855.335109999869,855.335109999869,857.8440527999774,857.8440527999774,857.8440527999774,857.8440527999774,857.8440527999774,51,45,50,65,51,7,6.0,1.262950399890542,859.1237284999806,860.8365907999687,,,,,,,148,f,18,2023-04-05_09h45.40.494,RL,2022.2.4,60.005964540494084,
1,91,0,91,0,,,,,,,,,,None,860.8365907999687,860.8365907999687,860.8365907999687,860.8365907999687,860.8365907999687,860.8365907999687,j,0.26435690000653267,861.1200355000328,861.1200355000328,861.1200355000328,861.1200355000328,861.1200355000328,861.1200355000328,861.4185343000572,861.4185343000572,863.230189200025,863.230189200025,863.230189200025,863.230189200025,863.230189200025,863.230189200025,863.230189200025,863.230189200025,863.230189200025,863.230189200025,863.230189200025,863.230189200025,863.230189200025,863.230189200025,863.230189200025,863.230189200025,863.230189200025,865.7390546000097,865.7390546000097,865.7390546000097,865.7390546000097,865.7390546000097,50,45,54,62,62,11,6.0,0.9631545001175255,866.7198723999318,868.2331083999015,,,,,,,148,f,18,2023-04-05_09h45.40.494,RL,2022.2.4,60.005964540494084,
1,92,0,92,0,,,,,,,,,,None,868.2331083999015,868.2331083999015,868.2331083999015,868.2331083999015,868.2331083999015,868.2331083999015,j,0.3057607999071479,868.5657488000579,868.5657488000579,868.5657488000579,868.5657488000579,868.5657488000579,868.5657488000579,868.8649395999964,868.8649395999964,869.679354700027,869.679354700027,869.679354700027,869.679354700027,869.679354700027,869.679354700027,869.679354700027,869.679354700027,869.679354700027,869.679354700027,869.679354700027,869.679354700027,869.679354700027,869.679354700027,869.679354700027,869.679354700027,869.679354700027,872.1885222999845,872.1885222999845,872.1885222999845,872.1885222999845,872.1885222999845,47,46,49,64,64,43,6.0,2.5253356001339853,874.7310396998655,876.6767142999452,,,,,,,148,f,18,2023-04-05_09h45.40.494,RL,2022.2.4,60.005964540494084,
1,93,0,93,0,,,,,,,,,,None,876.6767142999452,876.6767142999452,876.6767142999452,876.6767142999452,876.6767142999452,876.6767142999452,j,0.27415740001015365,876.9768492998555,876.9768492998555,876.9768492998555,876.9768492998555,876.9768492998555,876.9768492998555,877.2750621000305,877.2750621000305,878.9204740999267,878.9204740999267,878.9204740999267,878.9204740999267,878.9204740999267,878.9204740999267,878.9204740999267,878.9204740999267,878.9204740999267,878.9204740999267,878.9204740999267,878.9204740999267,878.9204740999267,878.9204740999267,878.9204740999267,878.9204740999267,878.9204740999267,881.4298968999647,881.4298968999647,881.4298968999647,881.4298968999647,881.4298968999647,42,42,40,58,58,22,6.0,0.9470006001647562,882.3938376000151,884.0731146000326,,,,,,,148,f,18,2023-04-05_09h45.40.494,RL,2022.2.4,60.005964540494084,
1,94,0,94,0,,,,,,,,,,None,884.0731146000326,884.0731146000326,884.0731146000326,884.0731146000326,884.0731146000326,884.0731146000326,j,0.28989079990424216,884.3900373000652,884.3900373000652,884.3900373000652,884.3900373000652,884.3900373000652,884.3900373000652,884.6883928000461,884.6883928000461,886.5999263999984,886.5999263999984,886.5999263999984,886.5999263999984,886.5999263999984,886.5999263999984,886.5999263999984,886.5999263999984,886.5999263999984,886.5999263999984,886.5999263999984,886.5999263999984,886.5999263999984,886.5999263999984,886.5999263999984,886.5999263999984,886.5999263999984,889.1088399,889.1088399,889.1088399,889.1088399,889.1088399,49,41,38,59,59,41,6.0,0.8635863999370486,889.9894516000059,891.5025551000144,,,,,,,148,f,18,2023-04-05_09h45.40.494,RL,2022.2.4,60.005964540494084,
1,95,0,95,0,,,,,,,,,,None,891.5025551000144,891.5025551000144,891.5025551000144,891.5025551000144,891.5025551000144,891.5025551000144,r,0.25241769989952445,891.7868272999767,891.7868272999767,891.7868272999767,891.7868272999767,891.7868272999767,891.7868272999767,892.0848876999225,892.0848876999225,893.01573069999,893.01573069999,893.01573069999,893.01573069999,893.01573069999,893.01573069999,893.01573069999,893.01573069999,893.01573069999,893.01573069999,893.01573069999,893.01573069999,893.01573069999,893.01573069999,893.01573069999,893.01573069999,893.01573069999,895.5246951000299,895.5246951000299,895.5246951000299,895.5246951000299,895.5246951000299,53,40,47,59,53,38,6.0,0.6811391001101583,896.2224954999983,897.818879700033,,,,,,,148,f,18,2023-04-05_09h45.40.494,RL,2022.2.4,60.005964540494084,
1,96,0,96,0,,,,,,,,,,None,897.818879700033,897.818879700033,897.818879700033,897.818879700033,897.818879700033,897.818879700033,f,0.2548499000258744,898.1032314999029,898.1032314999029,898.1032314999029,898.1032314999029,898.1032314999029,898.1032314999029,898.4010105000343,898.4010105000343,899.2816733999643,899.2816733999643,899.2816733999643,899.2816733999643,899.2816733999643,899.2816733999643,899.2816733999643,899.2816733999643,899.2816733999643,899.2816733999643,899.2816733999643,899.2816733999643,899.2816733999643,899.2816733999643,899.2816733999643,899.2816733999643,899.2816733999643,901.7910610998515,901.7910610998515,901.7910610998515,901.7910610998515,901.7910610998515,48,37,50,55,37,24,6.0,0.6473028999753296,902.4557177999523,904.0685244998895,,,,,,,148,f,18,2023-04-05_09h45.40.494,RL,2022.2.4,60.005964540494084,
1,97,0,97,0,,,,,,,,,,None,904.0685244998895,904.0685244998895,904.0685244998895,904.0685244998895,904.0685244998895,904.0685244998895,j,0.854776999913156,904.9511853000149,904.9511853000149,904.9511853000149,904.9511853000149,904.9511853000149,904.9511853000149,905.2485100999475,905.2485100999475,906.3458102999721,906.3458102999721,906.3458102999721,906.3458102999721,906.3458102999721,906.3458102999721,906.3458102999721,906.3458102999721,906.3458102999721,906.3458102999721,906.3458102999721,906.3458102999721,906.3458102999721,906.3458102999721,906.3458102999721,906.3458102999721,906.3458102999721,908.8551262998953,908.8551262998953,908.8551262998953,908.8551262998953,908.8551262998953,50,37,57,61,61,16,7.0,1.6120227000210434,910.4838362999726,912.3957698000595,,,,,,,148,f,18,2023-04-05_09h45.40.494,RL,2022.2.4,60.005964540494084,
1,98,0,98,0,,,,,,,,,,None,912.3957698000595,912.3957698000595,912.3957698000595,912.3957698000595,912.3957698000595,912.3957698000595,j,0.3582691999617964,912.7784199998714,912.7784199998714,912.7784199998714,912.7784199998714,912.7784199998714,912.7784199998714,913.0775063999463,913.0775063999463,914.7231290000491,914.7231290000491,914.7231290000491,914.7231290000491,914.7231290000491,914.7231290000491,914.7231290000491,914.7231290000491,914.7231290000491,914.7231290000491,914.7231290000491,914.7231290000491,914.7231290000491,914.7231290000491,914.7231290000491,914.7231290000491,914.7231290000491,917.2320862000342,917.2320862000342,917.2320862000342,917.2320862000342,917.2320862000342,53,38,54,64,64,34,6.0,1.0138012999668717,918.2623139000498,920.0578544000164,,,,,,,148,f,18,2023-04-05_09h45.40.494,RL,2022.2.4,60.005964540494084,
1,99,0,99,0,,,,,,,,,,None,920.0578544000164,920.0578544000164,920.0578544000164,920.0578544000164,920.0578544000164,920.0578544000164,j,0.2988864998333156,920.3742225000169,920.3742225000169,920.3742225000169,920.3742225000169,920.3742225000169,920.3742225000169,920.6735006999224,920.6735006999224,922.3687545000575,922.3687545000575,922.3687545000575,922.3687545000575,922.3687545000575,922.3687545000575,922.3687545000575,922.3687545000575,922.3687545000575,922.3687545000575,922.3687545000575,922.3687545000575,922.3687545000575,922.3687545000575,922.3687545000575,922.3687545000575,922.3687545000575,924.8780978000723,924.8780978000723,924.8780978000723,924.8780978000723,924.8780978000723,55,44,56,66,66,10,7.0,1.2131356000900269,926.1078635000158,927.9199387000408,,,,,,,148,f,18,2023-04-05_09h45.40.494,RL,2022.2.4,60.005964540494084,
1,100,0,100,0,,,,,,,,,,None,927.9199387000408,927.9199387000408,927.9199387000408,927.9199387000408,927.9199387000408,927.9199387000408,j,0.8242889000102878,928.7684458999429,928.7684458999429,928.7684458999429,928.7684458999429,928.7684458999429,928.7684458999429,929.0671345998999,929.0671345998999,930.7294238000177,930.7294238000177,930.7294238000177,930.7294238000177,930.7294238000177,930.7294238000177,930.7294238000177,930.7294238000177,930.7294238000177,930.7294238000177,930.7294238000177,930.7294238000177,930.7294238000177,930.7294238000177,930.7294238000177,930.7294238000177,930.7294238000177,933.2384704998694,933.2384704998694,933.2384704998694,933.2384704998694,933.2384704998694,48,44,43,65,65,23,7.0,1.112470799824223,934.3686527998652,936.0478409000207,,,,,,,148,f,18,2023-04-05_09h45.40.494,RL,2022.2.4,60.005964540494084,
1,101,0,101,0,,,,,,,,,,None,936.0478409000207,936.0478409000207,936.0478409000207,936.0478409000207,936.0478409000207,936.0478409000207,r,0.8733298000879586,936.9470398998819,936.9470398998819,936.9470398998819,936.9470398998819,936.9470398998819,936.9470398998819,937.2450428998563,937.2450428998563,939.1896361999679,939.1896361999679,939.1896361999679,939.1896361999679,939.1896361999679,939.1896361999679,939.1896361999679,939.1896361999679,939.1896361999679,939.1896361999679,939.1896361999679,939.1896361999679,939.1896361999679,939.1896361999679,939.1896361999679,939.1896361999679,939.1896361999679,941.6987025998533,941.6987025998533,941.6987025998533,941.6987025998533,941.6987025998533,56,40,63,75,56,35,7.0,0.9472087000031024,942.662764800014,944.2422634998802,,,,,,,148,f,18,2023-04-05_09h45.40.494,RL,2022.2.4,60.005964540494084,
1,102,0,102,0,,,,,,,,,,None,944.2422634998802,944.2422634998802,944.2422634998802,944.2422634998802,944.2422634998802,944.2422634998802,i,0.8793323000427336,945.14085779991,945.14085779991,945.14085779991,945.14085779991,945.14085779991,945.14085779991,945.4393749998417,945.4393749998417,946.6355288999621,946.6355288999621,946.6355288999621,946.6355288999621,946.6355288999621,946.6355288999621,946.6355288999621,946.6355288999621,946.6355288999621,946.6355288999621,946.6355288999621,946.6355288999621,946.6355288999621,946.6355288999621,946.6355288999621,946.6355288999621,946.6355288999621,949.1447374999989,949.1447374999989,949.1447374999989,949.1447374999989,949.1447374999989,54,33,50,85,50,46,6.0,1.1631162001285702,950.3251656999346,951.8879088999238,,,,,,,148,f,18,2023-04-05_09h45.40.494,RL,2022.2.4,60.005964540494084,
1,103,0,103,0,,,,,,,,,,None,951.8879088999238,951.8879088999238,951.8879088999238,951.8879088999238,951.8879088999238,951.8879088999238,r,0.47708139987662435,952.3869789000601,952.3869789000601,952.3869789000601,952.3869789000601,952.3869789000601,952.3869789000601,952.6862429999746,952.6862429999746,954.1152786000166,954.1152786000166,954.1152786000166,954.1152786000166,954.1152786000166,954.1152786000166,954.1152786000166,954.1152786000166,954.1152786000166,954.1152786000166,954.1152786000166,954.1152786000166,954.1152786000166,954.1152786000166,954.1152786000166,954.1152786000166,954.1152786000166,956.6247495000716,956.6247495000716,956.6247495000716,956.6247495000716,956.6247495000716,53,35,50,66,53,25,7.0,0.9629405001178384,957.6048018999863,959.2345771000255,,,,,,,148,f,18,2023-04-05_09h45.40.494,RL,2022.2.4,60.005964540494084,
1,104,0,104,0,,,,,,,,,,None,959.2345771000255,959.2345771000255,959.2345771000255,959.2345771000255,959.2345771000255,959.2345771000255,i,0.2832982998806983,959.5508385999128,959.5508385999128,959.5508385999128,959.5508385999128,959.5508385999128,959.5508385999128,959.8497764000203,959.8497764000203,960.8634796000551,960.8634796000551,960.8634796000551,960.8634796000551,960.8634796000551,960.8634796000551,960.8634796000551,960.8634796000551,960.8634796000551,960.8634796000551,960.8634796000551,960.8634796000551,960.8634796000551,960.8634796000551,960.8634796000551,960.8634796000551,960.8634796000551,963.3728590998799,963.3728590998799,963.3728590998799,963.3728590998799,963.3728590998799,55,41,52,72,52,22,7.0,0.631058800034225,964.0209979999345,965.8000862000044,,,,,,,148,f,18,2023-04-05_09h45.40.494,RL,2022.2.4,60.005964540494084,
1,105,0,105,0,,,,,,,,,,None,965.8000862000044,965.8000862000044,965.8000862000044,965.8000862000044,965.8000862000044,965.8000862000044,j,0.2514217998832464,966.083328000037,966.083328000037,966.083328000037,966.083328000037,966.083328000037,966.083328000037,966.3821614999324,966.3821614999324,968.2932799998671,968.2932799998671,968.2932799998671,968.2932799998671,968.2932799998671,968.2932799998671,968.2932799998671,968.2932799998671,968.2932799998671,968.2932799998671,968.2932799998671,968.2932799998671,968.2932799998671,968.2932799998671,968.2932799998671,968.2932799998671,968.2932799998671,970.8023365999106,970.8023365999106,970.8023365999106,970.8023365999106,970.8023365999106,54,41,53,80,80,31,7.0,0.9138360000215471,971.7333347999956,973.3792308999691,,,,,,,148,f,18,2023-04-05_09h45.40.494,RL,2022.2.4,60.005964540494084,
1,106,0,106,0,,,,,,,,,,None,973.3792308999691,973.3792308999691,973.3792308999691,973.3792308999691,973.3792308999691,973.3792308999691,j,0.26470449985936284,973.6624992999714,973.6624992999714,973.6624992999714,973.6624992999714,973.6624992999714,973.6624992999714,973.9614784999285,973.9614784999285,975.7065351000056,975.7065351000056,975.7065351000056,975.7065351000056,975.7065351000056,975.7065351000056,975.7065351000056,975.7065351000056,975.7065351000056,975.7065351000056,975.7065351000056,975.7065351000056,975.7065351000056,975.7065351000056,975.7065351000056,975.7065351000056,975.7065351000056,978.2157745999284,978.2157745999284,978.2157745999284,978.2157745999284,978.2157745999284,42,36,56,69,69,27,7.0,1.794141300022602,980.0274028000422,981.7565013000276,,,,,,,148,f,18,2023-04-05_09h45.40.494,RL,2022.2.4,60.005964540494084,
1,107,0,107,0,,,,,,,,,,None,981.7565013000276,981.7565013000276,981.7565013000276,981.7565013000276,981.7565013000276,981.7565013000276,f,0.4387969998642802,982.2233132000547,982.2233132000547,982.2233132000547,982.2233132000547,982.2233132000547,982.2233132000547,982.5214305999689,982.5214305999689,983.8676944999024,983.8676944999024,983.8676944999024,983.8676944999024,983.8676944999024,983.8676944999024,983.8676944999024,983.8676944999024,983.8676944999024,983.8676944999024,983.8676944999024,983.8676944999024,983.8676944999024,983.8676944999024,983.8676944999024,983.8676944999024,983.8676944999024,986.3767870999873,986.3767870999873,986.3767870999873,986.3767870999873,986.3767870999873,40,38,59,68,38,37,7.0,0.8464790999423712,987.2410853998736,989.1695137999486,,,,,,,148,f,18,2023-04-05_09h45.40.494,RL,2022.2.4,60.005964540494084,
1,108,0,108,0,,,,,,,,,,None,989.1695137999486,989.1695137999486,989.1695137999486,989.1695137999486,989.1695137999486,989.1695137999486,j,0.3638180000707507,989.5525692999363,989.5525692999363,989.5525692999363,989.5525692999363,989.5525692999363,989.5525692999363,989.8514010999352,989.8514010999352,991.4634378000628,991.4634378000628,991.4634378000628,991.4634378000628,991.4634378000628,991.4634378000628,991.4634378000628,991.4634378000628,991.4634378000628,991.4634378000628,991.4634378000628,991.4634378000628,991.4634378000628,991.4634378000628,991.4634378000628,991.4634378000628,991.4634378000628,993.9727683998644,993.9727683998644,993.9727683998644,993.9727683998644,993.9727683998644,55,38,58,69,69,47,6.0,1.0301238000392914,995.0198309998959,996.7320689999033,,,,,,,148,f,18,2023-04-05_09h45.40.494,RL,2022.2.4,60.005964540494084,
1,109,0,109,0,,,,,,,,,,None,996.7320689999033,996.7320689999033,996.7320689999033,996.7320689999033,996.7320689999033,996.7320689999033,j,0.39866629987955093,997.1493659999687,997.1493659999687,997.1493659999687,997.1493659999687,997.1493659999687,997.1493659999687,997.4469746998511,997.4469746998511,999.2754720000084,999.2754720000084,999.2754720000084,999.2754720000084,999.2754720000084,999.2754720000084,999.2754720000084,999.2754720000084,999.2754720000084,999.2754720000084,999.2754720000084,999.2754720000084,999.2754720000084,999.2754720000084,999.2754720000084,999.2754720000084,999.2754720000084,1001.7843980998732,1001.7843980998732,1001.7843980998732,1001.7843980998732,1001.7843980998732,58,49,57,75,75,50,6.0,1.345208000158891,1003.1471171998419,1005.0597186000086,,,,,,,148,f,18,2023-04-05_09h45.40.494,RL,2022.2.4,60.005964540494084,
1,110,0,110,0,,,,,,,,,,None,1005.0597186000086,1005.0597186000086,1005.0597186000086,1005.0597186000086,1005.0597186000086,1005.0597186000086,r,0.5130950999446213,1005.5923559998628,1005.5923559998628,1005.5923559998628,1005.5923559998628,1005.5923559998628,1005.5923559998628,1005.8910064999945,1005.8910064999945,1007.3037896000315,1007.3037896000315,1007.3037896000315,1007.3037896000315,1007.3037896000315,1007.3037896000315,1007.3037896000315,1007.3037896000315,1007.3037896000315,1007.3037896000315,1007.3037896000315,1007.3037896000315,1007.3037896000315,1007.3037896000315,1007.3037896000315,1007.3037896000315,1007.3037896000315,1009.8123514000326,1009.8123514000326,1009.8123514000326,1009.8123514000326,1009.8123514000326,59,39,57,78,59,22,6.0,0.8304727000650018,1010.6604726999067,1012.4561300000641,,,,,,,148,f,18,2023-04-05_09h45.40.494,RL,2022.2.4,60.005964540494084,
1,111,0,111,0,,,,,,,,,,None,1012.4561300000641,1012.4561300000641,1012.4561300000641,1012.4561300000641,1012.4561300000641,1012.4561300000641,r,0.4300383999943733,1012.9050229999702,1012.9050229999702,1012.9050229999702,1012.9050229999702,1012.9050229999702,1012.9050229999702,1013.2043232999276,1013.2043232999276,1014.6337867998518,1014.6337867998518,1014.6337867998518,1014.6337867998518,1014.6337867998518,1014.6337867998518,1014.6337867998518,1014.6337867998518,1014.6337867998518,1014.6337867998518,1014.6337867998518,1014.6337867998518,1014.6337867998518,1014.6337867998518,1014.6337867998518,1014.6337867998518,1014.6337867998518,1017.142824199982,1017.142824199982,1017.142824199982,1017.142824199982,1017.142824199982,61,41,67,87,61,45,6.0,0.8141350999940187,1017.973775099963,1019.7362867998891,,,,,,,148,f,18,2023-04-05_09h45.40.494,RL,2022.2.4,60.005964540494084,
1,112,0,112,0,,,,,,,,,,None,1019.7362867998891,1019.7362867998891,1019.7362867998891,1019.7362867998891,1019.7362867998891,1019.7362867998891,i,0.3078850000165403,1020.0705724,1020.0705724,1020.0705724,1020.0705724,1020.0705724,1020.0705724,1020.3677669998724,1020.3677669998724,1021.8638720999006,1021.8638720999006,1021.8807008999866,1021.8807008999866,1021.8807008999866,1021.8807008999866,1021.8807008999866,1021.8807008999866,1021.8807008999866,1021.8807008999866,1021.8807008999866,1021.8807008999866,1021.8807008999866,1021.8807008999866,1021.8807008999866,1021.8807008999866,1021.8807008999866,1024.3897517998703,1024.3897517998703,1024.3897517998703,1024.3897517998703,1024.3897517998703,69,47,56,78,56,51,6.0,0.7642437999602407,1025.1707508000545,1026.8167959998827,,,,,,,148,f,18,2023-04-05_09h45.40.494,RL,2022.2.4,60.005964540494084,
1,113,0,113,0,,,,,,,,,,None,1026.8167959998827,1026.8167959998827,1026.8167959998827,1026.8167959998827,1026.8167959998827,1026.8167959998827,i,0.24999059992842376,1027.1011580999475,1027.1011580999475,1027.1011580999475,1027.1011580999475,1027.1011580999475,1027.1011580999475,1027.399036000017,1027.399036000017,1028.8616289000493,1028.8616289000493,1028.8616289000493,1028.8616289000493,1028.8616289000493,1028.8616289000493,1028.8616289000493,1028.8616289000493,1028.8616289000493,1028.8616289000493,1028.8616289000493,1028.8616289000493,1028.8616289000493,1028.8616289000493,1028.8616289000493,1028.8616289000493,1028.8616289000493,1031.3703552999068,1031.3703552999068,1031.3703552999068,1031.3703552999068,1031.3703552999068,67,52,56,85,56,25,6.0,0.8144346000626683,1032.2017449999694,1033.8974868999794,,,,,,,148,f,18,2023-04-05_09h45.40.494,RL,2022.2.4,60.005964540494084,
1,114,0,114,0,,,,,,,,,,None,1033.8974868999794,1033.8974868999794,1033.8974868999794,1033.8974868999794,1033.8974868999794,1033.8974868999794,j,0.266656800173223,1034.1990409998689,1034.1990409998689,1034.1990409998689,1034.1990409998689,1034.1990409998689,1034.1990409998689,1034.4962945999578,1034.4962945999578,1036.2911342999432,1036.2911342999432,1036.3079094998538,1036.3079094998538,1036.3079094998538,1036.3079094998538,1036.3079094998538,1036.3079094998538,1036.3079094998538,1036.3079094998538,1036.3079094998538,1036.3079094998538,1036.3079094998538,1036.3079094998538,1036.3079094998538,1036.3079094998538,1036.3079094998538,1038.8165720000397,1038.8165720000397,1038.8165720000397,1038.8165720000397,1038.8165720000397,68,45,60,80,80,46,7.0,1.0958501000422984,1039.930590099888,1041.8923640998546,,,,,,,148,f,18,2023-04-05_09h45.40.494,RL,2022.2.4,60.005964540494084,
