bandit,trials.thisRepN,trials.thisTrialN,trials.thisN,trials.thisIndex,instru_img1.started,instru_resp.started,instru_resp.keys,instru_resp.rt,instru_img2.started,instru_resp2.started,instru_resp2.keys,instru_resp2.rt,fixbefore_2.started,rest_response.keys,red.started,green.started,yellow.started,blue.started,choose_bandit.started,Fixation.started,choose_bandit.keys,choose_bandit.rt,black.started,red_2.started,green_2.started,yellow_2.started,blue_2.started,fixation_2.started,docs.started,image_2.started,docs.stopped,image_2.stopped,black.stopped,red_2.stopped,green_2.stopped,yellow_2.stopped,blue_2.stopped,fixation_2.stopped,black_com.started,reward_sub.started,palyerb.started,reward__sub.started,compare.started,red_compare.started,green_com.started,yellow_com.started,blue_com.started,image_3.started,slider.started,text.started,image_4.started,image_5.started,rewardyellow,rewardred,rewardblue,rewardgreen,subchoose,playerb,slider.response,slider.rt,intertrialfix.started,intertrialfix.stopped,bigx.started,bigx.stopped,rest_image.started,rest_response.started,rest_response.rt,image.started,key_resp.started,key_resp.keys,participant,Gender,Age,date,expName,psychopyVersion,frameRate,
,,,,,29.612558616998285,29.612558616998285,space,4.612591605997295,,,,,,,,,,,,,,,,,,,,,,,,,,,,,,,,,,,,,,,,,,,,,,,,,,,,,,,,,,,,,,,149,m,22,2023-04-03_10h08.13.471,RL,2022.2.4,60.82365520522723,
,,,,,,,,,34.27028348000022,34.27028348000022,space,23.624033831001725,,,,,,,,,,,,,,,,,,,,,,,,,,,,,,,,,,,,,,,,,,,,,,,,,,,,,,,,,,,149,m,22,2023-04-03_10h08.13.471,RL,2022.2.4,60.82365520522723,
1,0,0,0,0,,,,,,,,,57.92747936899832,None,58.939957139999024,58.939957139999024,58.939957139999024,58.939957139999024,58.939957139999024,58.939957139999024,f,0.5476821510019363,59.56612230999963,59.56612230999963,59.56612230999963,59.56612230999963,59.56612230999963,59.56612230999963,59.82029289899947,59.82029289899947,60.893728670998826,60.893728670998826,60.96395327699793,60.96395327699793,60.96395327699793,60.96395327699793,60.96395327699793,60.96395327699793,60.96395327699793,60.96395327699793,60.96395327699793,60.96395327699793,60.96395327699793,60.96395327699793,60.96395327699793,60.96395327699793,60.96395327699793,63.4694270100008,63.4694270100008,63.4694270100008,63.4694270100008,63.4694270100008,46,65,31,48,65,58,5.0,2.3112185779973515,65.79512275600064,67.78340266599844,,,,,,,,,149,m,22,2023-04-03_10h08.13.471,RL,2022.2.4,60.82365520522723,
1,1,0,1,0,,,,,,,,,,None,67.78340266599844,67.78340266599844,67.78340266599844,67.78340266599844,67.78340266599844,67.78340266599844,j,0.6935270790017967,68.57030317400131,68.57030317400131,68.57030317400131,68.57030317400131,68.57030317400131,68.57030317400131,68.7906322739982,68.7906322739982,70.31081502600136,70.31081502600136,70.40291234300093,70.40291234300093,70.40291234300093,70.40291234300093,70.40291234300093,70.40291234300093,70.40291234300093,70.40291234300093,70.40291234300093,70.40291234300093,70.40291234300093,70.40291234300093,70.40291234300093,70.40291234300093,70.40291234300093,72.90759880900077,72.90759880900077,72.90759880900077,72.90759880900077,72.90759880900077,42,69,33,52,52,35,6.0,3.046956513000623,75.96979908800131,77.57180141400022,,,,,,,,,149,m,22,2023-04-03_10h08.13.471,RL,2022.2.4,60.82365520522723,
1,2,0,2,0,,,,,,,,,,None,77.57180141400022,77.57180141400022,77.57180141400022,77.57180141400022,77.57180141400022,77.57180141400022,r,1.0038292999997793,78.66079553500094,78.66079553500094,78.66079553500094,78.66079553500094,78.66079553500094,78.66079553500094,78.89549459800037,78.89549459800037,79.88256693899893,79.88256693899893,79.9574309339987,79.9574309339987,79.9574309339987,79.9574309339987,79.9574309339987,79.9574309339987,79.9574309339987,79.9574309339987,79.9574309339987,79.9574309339987,79.9574309339987,79.9574309339987,79.9574309339987,79.9574309339987,79.9574309339987,82.44997956099905,82.44997956099905,82.44997956099905,82.44997956099905,82.44997956099905,53,74,32,52,53,48,5.0,1.1853181750011572,83.64945906600042,85.15923191899856,,,,,,,,,149,m,22,2023-04-03_10h08.13.471,RL,2022.2.4,60.82365520522723,
1,3,0,3,0,,,,,,,,,,None,85.15923191899856,85.15923191899856,85.15923191899856,85.15923191899856,85.15923191899856,85.15923191899856,i,0.5625204749994737,85.85358064599859,85.85358064599859,85.85358064599859,85.85358064599859,85.85358064599859,85.85358064599859,86.03566386999955,86.03566386999955,87.5003562569982,87.5003562569982,87.64288848999786,87.64288848999786,87.64288848999786,87.64288848999786,87.64288848999786,87.64288848999786,87.64288848999786,87.64288848999786,87.64288848999786,87.64288848999786,87.64288848999786,87.64288848999786,87.64288848999786,87.64288848999786,87.64288848999786,90.13694327099802,90.13694327099802,90.13694327099802,90.13694327099802,90.13694327099802,55,83,37,47,37,61,4.0,1.3180464090000896,91.46846619400094,93.31258158399942,,,,,,,,,149,m,22,2023-04-03_10h08.13.471,RL,2022.2.4,60.82365520522723,
1,4,0,4,0,,,,,,,,,,None,93.31258158399942,93.31258158399942,93.31258158399942,93.31258158399942,93.31258158399942,93.31258158399942,j,0.7219498710001062,94.12271941499785,94.12271941499785,94.12271941499785,94.12271941499785,94.12271941499785,94.12271941499785,94.38648641300097,94.38648641300097,95.77079796600083,95.77079796600083,95.81208740999864,95.81208740999864,95.81208740999864,95.81208740999864,95.81208740999864,95.81208740999864,95.81208740999864,95.81208740999864,95.81208740999864,95.81208740999864,95.81208740999864,95.81208740999864,95.81208740999864,95.81208740999864,95.81208740999864,98.31707625299896,98.31707625299896,98.31707625299896,98.31707625299896,98.31707625299896,66,78,29,46,46,53,4.0,2.6269455090005067,100.95523595299892,102.83417203000135,,,,,,,,,149,m,22,2023-04-03_10h08.13.471,RL,2022.2.4,60.82365520522723,
1,5,0,5,0,,,,,,,,,,None,102.83417203000135,102.83417203000135,102.83417203000135,102.83417203000135,102.83417203000135,102.83417203000135,r,0.7048814689987921,103.62498161699841,103.62498161699841,103.62498161699841,103.62498161699841,103.62498161699841,103.62498161699841,103.89135923899812,103.89135923899812,105.07888573300079,105.07888573300079,105.11759001099927,105.11759001099927,105.11759001099927,105.11759001099927,105.11759001099927,105.11759001099927,105.11759001099927,105.11759001099927,105.11759001099927,105.11759001099927,105.11759001099927,105.11759001099927,105.11759001099927,105.11759001099927,105.11759001099927,107.62182137800119,107.62182137800119,107.62182137800119,107.62182137800119,107.62182137800119,59,88,26,49,59,73,3.0,0.6106577099999413,108.24593396799901,110.10263027199835,,,,,,,,,149,m,22,2023-04-03_10h08.13.471,RL,2022.2.4,60.82365520522723,
1,6,0,6,0,,,,,,,,,,None,110.10263027199835,110.10263027199835,110.10263027199835,110.10263027199835,110.10263027199835,110.10263027199835,i,0.543195995996939,110.70867488799922,110.70867488799922,110.70867488799922,110.70867488799922,110.70867488799922,110.70867488799922,110.96025944299981,110.96025944299981,112.09133074700003,112.09133074700003,112.13248531999852,112.13248531999852,112.13248531999852,112.13248531999852,112.13248531999852,112.13248531999852,112.13248531999852,112.13248531999852,112.13248531999852,112.13248531999852,112.13248531999852,112.13248531999852,112.13248531999852,112.13248531999852,112.13248531999852,114.63063086799957,114.63063086799957,114.63063086799957,114.63063086799957,114.63063086799957,66,74,32,41,32,79,3.0,0.7843558549975569,115.42738461299814,117.00695764899865,,,,,,,,,149,m,22,2023-04-03_10h08.13.471,RL,2022.2.4,60.82365520522723,
1,7,0,7,0,,,,,,,,,,None,117.00695764899865,117.00695764899865,117.00695764899865,117.00695764899865,117.00695764899865,117.00695764899865,r,0.7145528059991193,117.77597879200039,117.77597879200039,117.77597879200039,117.77597879200039,117.77597879200039,117.77597879200039,118.03175221899801,118.03175221899801,119.99910695799917,119.99910695799917,120.03817400600019,120.03817400600019,120.03817400600019,120.03817400600019,120.03817400600019,120.03817400600019,120.03817400600019,120.03817400600019,120.03817400600019,120.03817400600019,120.03817400600019,120.03817400600019,120.03817400600019,120.03817400600019,120.03817400600019,122.54144647700014,122.54144647700014,122.54144647700014,122.54144647700014,122.54144647700014,69,78,32,46,69,71,4.0,0.6280268939990492,123.18248128699997,124.81123633799871,,,,,,,,,149,m,22,2023-04-03_10h08.13.471,RL,2022.2.4,60.82365520522723,
1,8,0,8,0,,,,,,,,,,None,124.81123633799871,124.81123633799871,124.81123633799871,124.81123633799871,124.81123633799871,124.81123633799871,f,0.4045654280016606,125.28899209799783,125.28899209799783,125.28899209799783,125.28899209799783,125.28899209799783,125.28899209799783,125.53603329600082,125.53603329600082,127.38955753199843,127.38955753199843,127.44612448499902,127.44612448499902,127.44612448499902,127.44612448499902,127.44612448499902,127.44612448499902,127.44612448499902,127.44612448499902,127.44612448499902,127.44612448499902,127.44612448499902,127.44612448499902,127.44612448499902,127.44612448499902,127.44612448499902,129.9552434770012,129.9552434770012,129.9552434770012,129.9552434770012,129.9552434770012,64,64,29,43,64,70,4.0,0.5698878360017261,130.5345967180001,132.22960731299827,,,,,,,,,149,m,22,2023-04-03_10h08.13.471,RL,2022.2.4,60.82365520522723,
1,9,0,9,0,,,,,,,,,,None,132.22960731299827,132.22960731299827,132.22960731299827,132.22960731299827,132.22960731299827,132.22960731299827,j,0.7913387670014345,133.0845483890007,133.0845483890007,133.0845483890007,133.0845483890007,133.0845483890007,133.0845483890007,133.33724836300098,133.33724836300098,134.23290268100027,134.23290268100027,134.2893558830001,134.2893558830001,134.2893558830001,134.2893558830001,134.2893558830001,134.2893558830001,134.2893558830001,134.2893558830001,134.2893558830001,134.2893558830001,134.2893558830001,134.2893558830001,134.2893558830001,134.2893558830001,134.2893558830001,136.79902996999954,136.79902996999954,136.79902996999954,136.79902996999954,136.79902996999954,66,71,32,53,53,81,3.0,2.5964971969988255,139.40768703899812,140.9857039870003,,,,,,,,,149,m,22,2023-04-03_10h08.13.471,RL,2022.2.4,60.82365520522723,
1,10,0,10,0,,,,,,,,,,None,140.9857039870003,140.9857039870003,140.9857039870003,140.9857039870003,140.9857039870003,140.9857039870003,i,0.6045079409996106,141.67722752699774,141.67722752699774,141.67722752699774,141.67722752699774,141.67722752699774,141.67722752699774,141.90966755200134,141.90966755200134,143.6479925700005,143.6479925700005,143.71862186399812,143.71862186399812,143.71862186399812,143.71862186399812,143.71862186399812,143.71862186399812,143.71862186399812,143.71862186399812,143.71862186399812,143.71862186399812,143.71862186399812,143.71862186399812,143.71862186399812,143.71862186399812,143.71862186399812,146.2276828489994,146.2276828489994,146.2276828489994,146.2276828489994,146.2276828489994,59,55,28,56,28,75,3.0,2.708602778999193,148.95168622399797,150.70689639099874,,,,,,,,,149,m,22,2023-04-03_10h08.13.471,RL,2022.2.4,60.82365520522723,
1,11,0,11,0,,,,,,,,,,None,150.70689639099874,150.70689639099874,150.70689639099874,150.70689639099874,150.70689639099874,150.70689639099874,i,0.5641559830000915,151.31865443800052,151.31865443800052,151.31865443800052,151.31865443800052,151.31865443800052,151.31865443800052,151.58646614700046,151.58646614700046,152.5033532339985,152.5033532339985,152.54212735399778,152.54212735399778,152.54212735399778,152.54212735399778,152.54212735399778,152.54212735399778,152.54212735399778,152.54212735399778,152.54212735399778,152.54212735399778,152.54212735399778,152.54212735399778,152.54212735399778,152.54212735399778,152.54212735399778,155.04120220999903,155.04120220999903,155.04120220999903,155.04120220999903,155.04120220999903,63,61,35,51,35,75,3.0,1.3099262620016816,156.36241060999964,157.92496556300102,,,,,,,,,149,m,22,2023-04-03_10h08.13.471,RL,2022.2.4,60.82365520522723,
1,12,0,12,0,,,,,,,,,,None,157.92496556300102,157.92496556300102,157.92496556300102,157.92496556300102,157.92496556300102,157.92496556300102,r,1.2931459049978002,159.27126233799936,159.27126233799936,159.27126233799936,159.27126233799936,159.27126233799936,159.27126233799936,159.53310776199942,159.53310776199942,160.85080476000076,160.85080476000076,160.89001690900113,160.89001690900113,160.89001690900113,160.89001690900113,160.89001690900113,160.89001690900113,160.89001690900113,160.89001690900113,160.89001690900113,160.89001690900113,160.89001690900113,160.89001690900113,160.89001690900113,160.89001690900113,160.89001690900113,163.39411430700056,163.39411430700056,163.39411430700056,163.39411430700056,163.39411430700056,59,59,26,57,59,56,5.0,1.2295922109988169,164.63574228799916,166.28041642300013,,,,,,,,,149,m,22,2023-04-03_10h08.13.471,RL,2022.2.4,60.82365520522723,
1,13,0,13,0,,,,,,,,,,None,166.28041642300013,166.28041642300013,166.28041642300013,166.28041642300013,166.28041642300013,166.28041642300013,i,0.8647042589982448,167.1995340709982,167.1995340709982,167.1995340709982,167.1995340709982,167.1995340709982,167.1995340709982,167.46912738399988,167.46912738399988,168.8351319229987,168.8351319229987,168.85903589499867,168.85903589499867,168.85903589499867,168.85903589499867,168.85903589499867,168.85903589499867,168.85903589499867,168.85903589499867,168.85903589499867,168.85903589499867,168.85903589499867,168.85903589499867,168.85903589499867,168.85903589499867,168.85903589499867,171.37013125199883,171.37013125199883,171.37013125199883,171.37013125199883,171.37013125199883,65,51,20,56,20,52,2.0,1.0220825979995425,172.40541812399897,174.1843814390013,,,,,,,,,149,m,22,2023-04-03_10h08.13.471,RL,2022.2.4,60.82365520522723,
1,14,0,14,0,,,,,,,,,,None,174.1843814390013,174.1843814390013,174.1843814390013,174.1843814390013,174.1843814390013,174.1843814390013,j,0.5489284220020636,174.79709639900102,174.79709639900102,174.79709639900102,174.79709639900102,174.79709639900102,174.79709639900102,175.07359197099868,175.07359197099868,176.76019347799956,176.76019347799956,176.78422126199803,176.78422126199803,176.78422126199803,176.78422126199803,176.78422126199803,176.78422126199803,176.78422126199803,176.78422126199803,176.78422126199803,176.78422126199803,176.78422126199803,176.78422126199803,176.78422126199803,176.78422126199803,176.78422126199803,179.2957093570003,179.2957093570003,179.2957093570003,179.2957093570003,179.2957093570003,62,55,21,57,57,71,3.0,0.8190266599995084,180.12699974600037,181.70501353700092,,,,,,,,,149,m,22,2023-04-03_10h08.13.471,RL,2022.2.4,60.82365520522723,
1,15,0,15,0,,,,,,,,,,None,181.70501353700092,181.70501353700092,181.70501353700092,181.70501353700092,181.70501353700092,181.70501353700092,i,0.734410166998714,182.50759271700008,182.50759271700008,182.50759271700008,182.50759271700008,182.50759271700008,182.50759271700008,182.76210332999835,182.76210332999835,184.50754195500122,184.50754195500122,184.56323785899804,184.56323785899804,184.56323785899804,184.56323785899804,184.56323785899804,184.56323785899804,184.56323785899804,184.56323785899804,184.56323785899804,184.56323785899804,184.56323785899804,184.56323785899804,184.56323785899804,184.56323785899804,184.56323785899804,187.06573813100113,187.06573813100113,187.06573813100113,187.06573813100113,187.06573813100113,53,55,24,72,24,76,2.0,0.8017310290015303,187.8807530519989,189.47470600100132,,,,,,,,,149,m,22,2023-04-03_10h08.13.471,RL,2022.2.4,60.82365520522723,
1,16,0,16,0,,,,,,,,,,None,189.47470600100132,189.47470600100132,189.47470600100132,189.47470600100132,189.47470600100132,189.47470600100132,r,0.6917248610006936,190.2319388399992,190.2319388399992,190.2319388399992,190.2319388399992,190.2319388399992,190.2319388399992,190.49787803100116,190.49787803100116,192.16623467099998,192.16623467099998,192.20540008199896,192.20540008199896,192.20540008199896,192.20540008199896,192.20540008199896,192.20540008199896,192.20540008199896,192.20540008199896,192.20540008199896,192.20540008199896,192.20540008199896,192.20540008199896,192.20540008199896,192.20540008199896,192.20540008199896,194.70467216199904,194.70467216199904,194.70467216199904,194.70467216199904,194.70467216199904,53,58,34,52,53,54,4.0,0.6158607750003284,195.3333287050009,197.26049049300127,,,,,,,,,149,m,22,2023-04-03_10h08.13.471,RL,2022.2.4,60.82365520522723,
1,17,0,17,0,,,,,,,,,,None,197.26049049300127,197.26049049300127,197.26049049300127,197.26049049300127,197.26049049300127,197.26049049300127,i,0.9338738149999699,198.26574355900084,198.26574355900084,198.26574355900084,198.26574355900084,198.26574355900084,198.26574355900084,198.53620845800106,198.53620845800106,200.37200719400062,200.37200719400062,200.41184439599965,200.41184439599965,200.41184439599965,200.41184439599965,200.41184439599965,200.41184439599965,200.41184439599965,200.41184439599965,200.41184439599965,200.41184439599965,200.41184439599965,200.41184439599965,200.41184439599965,200.41184439599965,200.41184439599965,202.90783325699886,202.90783325699886,202.90783325699886,202.90783325699886,202.90783325699886,55,53,26,49,26,68,4.0,1.4827012040004774,204.4025152079994,206.38317359199937,,,,,,,,,149,m,22,2023-04-03_10h08.13.471,RL,2022.2.4,60.82365520522723,
1,18,0,18,0,,,,,,,,,,None,206.38317359199937,206.38317359199937,206.38317359199937,206.38317359199937,206.38317359199937,206.38317359199937,f,0.9400992209994001,207.3850056279989,207.3850056279989,207.3850056279989,207.3850056279989,207.3850056279989,207.3850056279989,207.63944991799872,207.63944991799872,208.66226303299845,208.66226303299845,208.71550335999927,208.71550335999927,208.71550335999927,208.71550335999927,208.71550335999927,208.71550335999927,208.71550335999927,208.71550335999927,208.71550335999927,208.71550335999927,208.71550335999927,208.71550335999927,208.71550335999927,208.71550335999927,208.71550335999927,211.22129584600043,211.22129584600043,211.22129584600043,211.22129584600043,211.22129584600043,42,64,29,62,64,70,4.0,1.9738404249983432,213.20756130500013,214.903804354999,,,,,,,,,149,m,22,2023-04-03_10h08.13.471,RL,2022.2.4,60.82365520522723,
1,19,0,19,0,,,,,,,,,,None,214.903804354999,214.903804354999,214.903804354999,214.903804354999,214.903804354999,214.903804354999,j,0.423147493002034,215.387118147999,215.387118147999,215.387118147999,215.387118147999,215.387118147999,215.387118147999,215.64259297199897,215.64259297199897,216.7722043520007,216.7722043520007,216.82703240200135,216.82703240200135,216.82703240200135,216.82703240200135,216.82703240200135,216.82703240200135,216.82703240200135,216.82703240200135,216.82703240200135,216.82703240200135,216.82703240200135,216.82703240200135,216.82703240200135,216.82703240200135,216.82703240200135,219.33389003699995,219.33389003699995,219.33389003699995,219.33389003699995,219.33389003699995,47,61,29,54,54,75,3.0,1.1142138600007456,220.46238860999802,222.05749587399987,,,,,,,,,149,m,22,2023-04-03_10h08.13.471,RL,2022.2.4,60.82365520522723,
1,20,0,20,0,,,,,,,,,,None,222.05749587399987,222.05749587399987,222.05749587399987,222.05749587399987,222.05749587399987,222.05749587399987,i,0.8554449430012028,222.97908331299914,222.97908331299914,222.97908331299914,222.97908331299914,222.97908331299914,222.97908331299914,223.22868906999793,223.22868906999793,224.23249896500056,224.23249896500056,224.287064346001,224.287064346001,224.287064346001,224.287064346001,224.287064346001,224.287064346001,224.287064346001,224.287064346001,224.287064346001,224.287064346001,224.287064346001,224.287064346001,224.287064346001,224.287064346001,224.287064346001,226.78742101199896,226.78742101199896,226.78742101199896,226.78742101199896,226.78742101199896,47,67,28,57,28,80,2.0,2.0158473149967904,228.8162634299988,230.59451683500083,,,,,,,,,149,m,22,2023-04-03_10h08.13.471,RL,2022.2.4,60.82365520522723,
1,21,0,21,0,,,,,,,,,,None,230.59451683500083,230.59451683500083,230.59451683500083,230.59451683500083,230.59451683500083,230.59451683500083,r,0.5136121289979201,231.16753107600016,231.16753107600016,231.16753107600016,231.16753107600016,231.16753107600016,231.16753107600016,231.42048140100087,231.42048140100087,233.0060288249988,233.0060288249988,233.04718049499934,233.04718049499934,233.04718049499934,233.04718049499934,233.04718049499934,233.04718049499934,233.04718049499934,233.04718049499934,233.04718049499934,233.04718049499934,233.04718049499934,233.04718049499934,233.04718049499934,233.04718049499934,233.04718049499934,235.5417881129979,235.5417881129979,235.5417881129979,235.5417881129979,235.5417881129979,50,68,34,58,50,81,2.0,1.2979061600017303,236.85241521599892,238.7483278719992,,,,,,,,,149,m,22,2023-04-03_10h08.13.471,RL,2022.2.4,60.82365520522723,
1,22,0,22,0,,,,,,,,,,None,238.7483278719992,238.7483278719992,238.7483278719992,238.7483278719992,238.7483278719992,238.7483278719992,j,1.0782901720012887,239.89352144999793,239.89352144999793,239.89352144999793,239.89352144999793,239.89352144999793,239.89352144999793,240.1417900689994,240.1417900689994,241.41536117500073,241.41536117500073,241.47008796299997,241.47008796299997,241.47008796299997,241.47008796299997,241.47008796299997,241.47008796299997,241.47008796299997,241.47008796299997,241.47008796299997,241.47008796299997,241.47008796299997,241.47008796299997,241.47008796299997,241.47008796299997,241.47008796299997,243.97611688699908,243.97611688699908,243.97611688699908,243.97611688699908,243.97611688699908,43,62,28,57,57,69,3.0,0.8016463130006741,244.78967532000024,246.36812373700013,,,,,,,,,149,m,22,2023-04-03_10h08.13.471,RL,2022.2.4,60.82365520522723,
1,23,0,23,0,,,,,,,,,,None,246.36812373700013,246.36812373700013,246.36812373700013,246.36812373700013,246.36812373700013,246.36812373700013,f,0.5659527130010247,247.01449480500014,247.01449480500014,247.01449480500014,247.01449480500014,247.01449480500014,247.01449480500014,247.26327459499953,247.26327459499953,249.05398411699935,249.05398411699935,249.1092115879983,249.1092115879983,249.1092115879983,249.1092115879983,249.1092115879983,249.1092115879983,249.1092115879983,249.1092115879983,249.1092115879983,249.1092115879983,249.1092115879983,249.1092115879983,249.1092115879983,249.1092115879983,249.1092115879983,251.6200014620008,251.6200014620008,251.6200014620008,251.6200014620008,251.6200014620008,44,62,27,58,62,80,3.0,1.3980992830001924,253.02773880400127,254.6707802509991,,,,,,,,,149,m,22,2023-04-03_10h08.13.471,RL,2022.2.4,60.82365520522723,
1,24,0,24,0,,,,,,,,,,None,254.6707802509991,254.6707802509991,254.6707802509991,254.6707802509991,254.6707802509991,254.6707802509991,j,0.522969137000473,255.2675577150003,255.2675577150003,255.2675577150003,255.2675577150003,255.2675577150003,255.2675577150003,255.51380165500086,255.51380165500086,257.0631041339984,257.0631041339984,257.1192362639995,257.1192362639995,257.1192362639995,257.1192362639995,257.1192362639995,257.1192362639995,257.1192362639995,257.1192362639995,257.1192362639995,257.1192362639995,257.1192362639995,257.1192362639995,257.1192362639995,257.1192362639995,257.1192362639995,259.618705891,259.618705891,259.618705891,259.618705891,259.618705891,51,59,28,55,55,55,3.0,0.8155282100015029,260.4469008929991,262.29265480400136,,,,,,,,,149,m,22,2023-04-03_10h08.13.471,RL,2022.2.4,60.82365520522723,
1,25,0,25,0,,,,,,,,,,None,262.29265480400136,262.29265480400136,262.29265480400136,262.29265480400136,262.29265480400136,262.29265480400136,i,1.007436134001182,263.35388033300114,263.35388033300114,263.35388033300114,263.35388033300114,263.35388033300114,263.35388033300114,263.61613099999886,263.61613099999886,264.5842972729988,264.5842972729988,264.6228061239999,264.6228061239999,264.6228061239999,264.6228061239999,264.6228061239999,264.6228061239999,264.6228061239999,264.6228061239999,264.6228061239999,264.6228061239999,264.6228061239999,264.6228061239999,264.6228061239999,264.6228061239999,264.6228061239999,267.13050552300047,267.13050552300047,267.13050552300047,267.13050552300047,267.13050552300047,42,56,36,60,36,65,3.0,1.1491622100002132,268.2970755389979,270.24471621200064,,,,,,,,,149,m,22,2023-04-03_10h08.13.471,RL,2022.2.4,60.82365520522723,
1,26,0,26,0,,,,,,,,,,None,270.24471621200064,270.24471621200064,270.24471621200064,270.24471621200064,270.24471621200064,270.24471621200064,r,0.9534333100018557,271.2645727169984,271.2645727169984,271.2645727169984,271.2645727169984,271.2645727169984,271.2645727169984,271.5199130619985,271.5199130619985,272.43618101299944,272.43618101299944,272.49355761100014,272.49355761100014,272.49355761100014,272.49355761100014,272.49355761100014,272.49355761100014,272.49355761100014,272.49355761100014,272.49355761100014,272.49355761100014,272.49355761100014,272.49355761100014,272.49355761100014,272.49355761100014,272.49355761100014,274.993679307001,274.993679307001,274.993679307001,274.993679307001,274.993679307001,55,54,41,62,55,80,2.0,1.3319431419986358,276.33823548799774,278.05046731699986,,,,,,,,,149,m,22,2023-04-03_10h08.13.471,RL,2022.2.4,60.82365520522723,
1,27,0,27,0,,,,,,,,,,None,278.05046731699986,278.05046731699986,278.05046731699986,278.05046731699986,278.05046731699986,278.05046731699986,i,1.0153849220005213,279.11465363299794,279.11465363299794,279.11465363299794,279.11465363299794,279.11465363299794,279.11465363299794,279.3896329989984,279.3896329989984,281.219899290998,281.219899290998,281.26216645399836,281.26216645399836,281.26216645399836,281.26216645399836,281.26216645399836,281.26216645399836,281.26216645399836,281.26216645399836,281.26216645399836,281.26216645399836,281.26216645399836,281.26216645399836,281.26216645399836,281.26216645399836,281.26216645399836,283.7614221549993,283.7614221549993,283.7614221549993,283.7614221549993,283.7614221549993,50,51,45,57,45,93,2.0,0.6180848289986898,284.3919206999999,285.92073970899946,,,,,,,,,149,m,22,2023-04-03_10h08.13.471,RL,2022.2.4,60.82365520522723,
1,28,0,28,0,,,,,,,,,,None,285.92073970899946,285.92073970899946,285.92073970899946,285.92073970899946,285.92073970899946,285.92073970899946,f,0.3341814639970835,286.29990019899924,286.29990019899924,286.29990019899924,286.29990019899924,286.29990019899924,286.29990019899924,286.5611167200004,286.5611167200004,287.49684355299905,287.49684355299905,287.5532894559983,287.5532894559983,287.5532894559983,287.5532894559983,287.5532894559983,287.5532894559983,287.5532894559983,287.5532894559983,287.5532894559983,287.5532894559983,287.5532894559983,287.5532894559983,287.5532894559983,287.5532894559983,287.5532894559983,290.06183697099914,290.06183697099914,290.06183697099914,290.06183697099914,290.06183697099914,44,58,32,54,58,73,4.0,1.4916286539992143,291.5696713280013,293.2221575129988,,,,,,,,,149,m,22,2023-04-03_10h08.13.471,RL,2022.2.4,60.82365520522723,
1,29,0,29,0,,,,,,,,,,None,293.2221575129988,293.2221575129988,293.2221575129988,293.2221575129988,293.2221575129988,293.2221575129988,j,0.4783596259985643,293.75249686700045,293.75249686700045,293.75249686700045,293.75249686700045,293.75249686700045,293.75249686700045,294.014164158998,294.014164158998,295.33346194800106,295.33346194800106,295.3714195270004,295.3714195270004,295.3714195270004,295.3714195270004,295.3714195270004,295.3714195270004,295.3714195270004,295.3714195270004,295.3714195270004,295.3714195270004,295.3714195270004,295.3714195270004,295.3714195270004,295.3714195270004,295.3714195270004,297.878984160001,297.878984160001,297.878984160001,297.878984160001,297.878984160001,44,58,34,52,52,91,3.0,1.2231212799997593,299.11343573499835,300.9766633629988,,,,,,,,,149,m,22,2023-04-03_10h08.13.471,RL,2022.2.4,60.82365520522723,
1,30,0,30,0,,,,,,,,,,None,300.9766633629988,300.9766633629988,300.9766633629988,300.9766633629988,300.9766633629988,300.9766633629988,i,0.3296424959989963,301.3594490280011,301.3594490280011,301.3594490280011,301.3594490280011,301.3594490280011,301.3594490280011,301.6167717870012,301.6167717870012,303.1890369370012,303.1890369370012,303.2456702060008,303.2456702060008,303.2456702060008,303.2456702060008,303.2456702060008,303.2456702060008,303.2456702060008,303.2456702060008,303.2456702060008,303.2456702060008,303.2456702060008,303.2456702060008,303.2456702060008,303.2456702060008,303.2456702060008,305.74303850999786,305.74303850999786,305.74303850999786,305.74303850999786,305.74303850999786,47,58,32,57,32,80,2.0,2.899263950999739,308.6566527719988,310.5821969790013,,,,,,,,,149,m,22,2023-04-03_10h08.13.471,RL,2022.2.4,60.82365520522723,
1,31,0,31,0,,,,,,,,,,None,310.5821969790013,310.5821969790013,310.5821969790013,310.5821969790013,310.5821969790013,310.5821969790013,r,0.4441953690002265,311.0753281569996,311.0753281569996,311.0753281569996,311.0753281569996,311.0753281569996,311.0753281569996,311.34005092499865,311.34005092499865,313.28663690599933,313.28663690599933,313.33514531200126,313.33514531200126,313.33514531200126,313.33514531200126,313.33514531200126,313.33514531200126,313.33514531200126,313.33514531200126,313.33514531200126,313.33514531200126,313.33514531200126,313.33514531200126,313.33514531200126,313.33514531200126,313.33514531200126,315.83909796399894,315.83909796399894,315.83909796399894,315.83909796399894,315.83909796399894,48,63,52,60,48,92,3.0,0.6548962130000291,316.50614671400035,318.4365833209995,,,,,,,,,149,m,22,2023-04-03_10h08.13.471,RL,2022.2.4,60.82365520522723,
1,32,0,32,0,,,,,,,,,,None,318.4365833209995,318.4365833209995,318.4365833209995,318.4365833209995,318.4365833209995,318.4365833209995,f,0.561269567002455,319.0516909609978,319.0516909609978,319.0516909609978,319.0516909609978,319.0516909609978,319.0516909609978,319.32553623700005,319.32553623700005,320.5727040919992,320.5727040919992,320.61443151599815,320.61443151599815,320.61443151599815,320.61443151599815,320.61443151599815,320.61443151599815,320.61443151599815,320.61443151599815,320.61443151599815,320.61443151599815,320.61443151599815,320.61443151599815,320.61443151599815,320.61443151599815,320.61443151599815,323.11637636399973,323.11637636399973,323.11637636399973,323.11637636399973,323.11637636399973,47,53,44,55,53,83,3.0,2.282277600002999,325.41061157999866,327.27314726799887,,,,,,,,,149,m,22,2023-04-03_10h08.13.471,RL,2022.2.4,60.82365520522723,
1,33,0,33,0,,,,,,,,,,None,327.27314726799887,327.27314726799887,327.27314726799887,327.27314726799887,327.27314726799887,327.27314726799887,i,0.5644590900010371,327.8818288629991,327.8818288629991,327.8818288629991,327.8818288629991,327.8818288629991,327.8818288629991,328.1475530759999,328.1475530759999,329.51880865099884,329.51880865099884,329.57421184800114,329.57421184800114,329.57421184800114,329.57421184800114,329.57421184800114,329.57421184800114,329.57421184800114,329.57421184800114,329.57421184800114,329.57421184800114,329.57421184800114,329.57421184800114,329.57421184800114,329.57421184800114,329.57421184800114,332.0799384029997,332.0799384029997,332.0799384029997,332.0799384029997,332.0799384029997,41,57,43,62,43,81,2.0,1.1744956820002699,333.2651913749978,334.7770779979983,,,,,,,,,149,m,22,2023-04-03_10h08.13.471,RL,2022.2.4,60.82365520522723,
1,34,0,34,0,,,,,,,,,,None,334.7770779979983,334.7770779979983,334.7770779979983,334.7770779979983,334.7770779979983,334.7770779979983,r,0.823530319998099,335.65248392099966,335.65248392099966,335.65248392099966,335.65248392099966,335.65248392099966,335.65248392099966,335.9166730600009,335.9166730600009,337.38738587199987,337.38738587199987,337.4431229699985,337.4431229699985,337.4431229699985,337.4431229699985,337.4431229699985,337.4431229699985,337.4431229699985,337.4431229699985,337.4431229699985,337.4431229699985,337.4431229699985,337.4431229699985,337.4431229699985,337.4431229699985,337.4431229699985,339.9413930439987,339.9413930439987,339.9413930439987,339.9413930439987,339.9413930439987,47,59,41,46,47,78,2.0,2.7779506259976188,342.73637349099954,344.64843418599776,,,,,,,,,149,m,22,2023-04-03_10h08.13.471,RL,2022.2.4,60.82365520522723,
1,35,0,35,0,,,,,,,,,,None,344.64843418599776,344.64843418599776,344.64843418599776,344.64843418599776,344.64843418599776,344.64843418599776,j,0.7963370830002532,345.4918534239987,345.4918534239987,345.4918534239987,345.4918534239987,345.4918534239987,345.4918534239987,345.75502269799836,345.75502269799836,347.6183172989986,347.6183172989986,347.65750930599825,347.65750930599825,347.65750930599825,347.65750930599825,347.65750930599825,347.65750930599825,347.65750930599825,347.65750930599825,347.65750930599825,347.65750930599825,347.65750930599825,347.65750930599825,347.65750930599825,347.65750930599825,347.65750930599825,350.16083597000033,350.16083597000033,350.16083597000033,350.16083597000033,350.16083597000033,46,52,48,40,40,59,2.0,0.7808825770007388,350.9550114820013,352.90264444100103,,,,,,,,,149,m,22,2023-04-03_10h08.13.471,RL,2022.2.4,60.82365520522723,
1,36,0,36,0,,,,,,,,,,None,352.90264444100103,352.90264444100103,352.90264444100103,352.90264444100103,352.90264444100103,352.90264444100103,i,0.5366070929994748,353.4934050330012,353.4934050330012,353.4934050330012,353.4934050330012,353.4934050330012,353.4934050330012,353.75802368899895,353.75802368899895,354.6818438219998,354.6818438219998,354.72117362800054,354.72117362800054,354.72117362800054,354.72117362800054,354.72117362800054,354.72117362800054,354.72117362800054,354.72117362800054,354.72117362800054,354.72117362800054,354.72117362800054,354.72117362800054,354.72117362800054,354.72117362800054,354.72117362800054,357.22032454099826,357.22032454099826,357.22032454099826,357.22032454099826,357.22032454099826,35,65,51,52,51,76,4.0,1.5781722120009363,358.8120542459983,360.5397186379996,,,,,,,,,149,m,22,2023-04-03_10h08.13.471,RL,2022.2.4,60.82365520522723,
1,37,0,37,0,,,,,,,,,,None,360.5397186379996,360.5397186379996,360.5397186379996,360.5397186379996,360.5397186379996,360.5397186379996,f,0.9037068769976031,361.5044266490004,361.5044266490004,361.5044266490004,361.5044266490004,361.5044266490004,361.5044266490004,361.76144980299796,361.76144980299796,363.0488471770004,363.0488471770004,363.0872121889988,363.0872121889988,363.0872121889988,363.0872121889988,363.0872121889988,363.0872121889988,363.0872121889988,363.0872121889988,363.0872121889988,363.0872121889988,363.0872121889988,363.0872121889988,363.0872121889988,363.0872121889988,363.0872121889988,365.59228289100065,365.59228289100065,365.59228289100065,365.59228289100065,365.59228289100065,49,66,48,44,66,86,4.0,1.842372526996769,367.44825016400137,369.2936532950007,,,,,,,,,149,m,22,2023-04-03_10h08.13.471,RL,2022.2.4,60.82365520522723,
1,38,0,38,0,,,,,,,,,,None,369.2936532950007,369.2936532950007,369.2936532950007,369.2936532950007,369.2936532950007,369.2936532950007,f,0.47648940999715705,369.848099204999,369.848099204999,369.848099204999,369.848099204999,369.848099204999,369.848099204999,370.08340169800067,370.08340169800067,371.42962554800033,371.42962554800033,371.5062341080011,371.5062341080011,371.5062341080011,371.5062341080011,371.5062341080011,371.5062341080011,371.5062341080011,371.5062341080011,371.5062341080011,371.5062341080011,371.5062341080011,371.5062341080011,371.5062341080011,371.5062341080011,371.5062341080011,374.00241588599965,374.00241588599965,374.00241588599965,374.00241588599965,374.00241588599965,42,62,39,57,62,81,3.0,1.4348930779997318,375.45059466399834,377.34807878399806,,,,,,,,,149,m,22,2023-04-03_10h08.13.471,RL,2022.2.4,60.82365520522723,
1,39,0,39,0,,,,,,,,,,None,377.34807878399806,377.34807878399806,377.34807878399806,377.34807878399806,377.34807878399806,377.34807878399806,i,0.39315887300108443,377.79528198499975,377.79528198499975,377.79528198499975,377.79528198499975,377.79528198499975,377.79528198499975,378.05260573099804,378.05260573099804,379.6737714769988,379.6737714769988,379.71156001299823,379.71156001299823,379.71156001299823,379.71156001299823,379.71156001299823,379.71156001299823,379.71156001299823,379.71156001299823,379.71156001299823,379.71156001299823,379.71156001299823,379.71156001299823,379.71156001299823,379.71156001299823,379.71156001299823,382.2097187979998,382.2097187979998,382.2097187979998,382.2097187979998,382.2097187979998,38,65,47,54,47,84,3.0,1.4828431659989292,383.7061626659997,385.3509767049982,,,,,,,,,149,m,22,2023-04-03_10h08.13.471,RL,2022.2.4,60.82365520522723,
1,40,0,40,0,,,,,,,,,,None,385.3509767049982,385.3509767049982,385.3509767049982,385.3509767049982,385.3509767049982,385.3509767049982,j,1.057024198002182,386.47788692099857,386.47788692099857,386.47788692099857,386.47788692099857,386.47788692099857,386.47788692099857,386.72467135899933,386.72467135899933,387.7439314619987,387.7439314619987,387.7983724199985,387.7983724199985,387.7983724199985,387.7983724199985,387.7983724199985,387.7983724199985,387.7983724199985,387.7983724199985,387.7983724199985,387.7983724199985,387.7983724199985,387.7983724199985,387.7983724199985,387.7983724199985,387.7983724199985,390.30278205799914,390.30278205799914,390.30278205799914,390.30278205799914,390.30278205799914,43,69,51,43,43,38,4.0,2.2785040169983404,392.5923177679979,394.4555776899979,,,,,,,,,149,m,22,2023-04-03_10h08.13.471,RL,2022.2.4,60.82365520522723,
1,41,0,41,0,,,,,,,,,,None,394.4555776899979,394.4555776899979,394.4555776899979,394.4555776899979,394.4555776899979,394.4555776899979,r,0.47324177799964673,394.9884915449984,394.9884915449984,394.9884915449984,394.9884915449984,394.9884915449984,394.9884915449984,395.24500069699934,395.24500069699934,396.881961553001,396.881961553001,396.93786851700133,396.93786851700133,396.93786851700133,396.93786851700133,396.93786851700133,396.93786851700133,396.93786851700133,396.93786851700133,396.93786851700133,396.93786851700133,396.93786851700133,396.93786851700133,396.93786851700133,396.93786851700133,396.93786851700133,399.43558393700005,399.43558393700005,399.43558393700005,399.43558393700005,399.43558393700005,34,64,59,54,34,56,4.0,0.999144167999475,400.44843653800126,402.02601728800073,,,,,,,,,149,m,22,2023-04-03_10h08.13.471,RL,2022.2.4,60.82365520522723,
1,42,0,42,0,,,,,,,,,,None,402.02601728800073,402.02601728800073,402.02601728800073,402.02601728800073,402.02601728800073,402.02601728800073,f,0.6752111019995937,402.7639190109985,402.7639190109985,402.7639190109985,402.7639190109985,402.7639190109985,402.7639190109985,403.0323440659995,403.0323440659995,404.4266946659991,404.4266946659991,404.4671862569994,404.4671862569994,404.4671862569994,404.4671862569994,404.4671862569994,404.4671862569994,404.4671862569994,404.4671862569994,404.4671862569994,404.4671862569994,404.4671862569994,404.4671862569994,404.4671862569994,404.4671862569994,404.4671862569994,406.9717139919994,406.9717139919994,406.9717139919994,406.9717139919994,406.9717139919994,52,64,47,45,64,93,3.0,1.4977779729997565,408.4830149570007,410.09549786500065,,,,,,,,,149,m,22,2023-04-03_10h08.13.471,RL,2022.2.4,60.82365520522723,
1,43,0,43,0,,,,,,,,,,None,410.09549786500065,410.09549786500065,410.09549786500065,410.09549786500065,410.09549786500065,410.09549786500065,i,0.701359885999409,410.8528139730006,410.8528139730006,410.8528139730006,410.8528139730006,410.8528139730006,410.8528139730006,411.1187919969998,411.1187919969998,412.57226129099945,412.57226129099945,412.61020794900105,412.61020794900105,412.61020794900105,412.61020794900105,412.61020794900105,412.61020794900105,412.61020794900105,412.61020794900105,412.61020794900105,412.61020794900105,412.61020794900105,412.61020794900105,412.61020794900105,412.61020794900105,412.61020794900105,415.12459360999856,415.12459360999856,415.12459360999856,415.12459360999856,415.12459360999856,41,62,47,46,47,93,2.0,0.7351741919992492,415.8716299410007,417.46597745599865,,,,,,,,,149,m,22,2023-04-03_10h08.13.471,RL,2022.2.4,60.82365520522723,
1,44,0,44,0,,,,,,,,,,None,417.46597745599865,417.46597745599865,417.46597745599865,417.46597745599865,417.46597745599865,417.46597745599865,i,0.8033655479994195,418.3256303419985,418.3256303419985,418.3256303419985,418.3256303419985,418.3256303419985,418.3256303419985,418.5905976139984,418.5905976139984,419.55369751200124,419.55369751200124,419.5950114469997,419.5950114469997,419.5950114469997,419.5950114469997,419.5950114469997,419.5950114469997,419.5950114469997,419.5950114469997,419.5950114469997,419.5950114469997,419.5950114469997,419.5950114469997,419.5950114469997,419.5950114469997,419.5950114469997,422.09742293199815,422.09742293199815,422.09742293199815,422.09742293199815,422.09742293199815,38,64,48,57,48,92,2.0,0.48053045100095915,422.59152358999927,424.5346965239987,,,,,,,,,149,m,22,2023-04-03_10h08.13.471,RL,2022.2.4,60.82365520522723,
1,45,0,45,0,,,,,,,,,,None,424.5346965239987,424.5346965239987,424.5346965239987,424.5346965239987,424.5346965239987,424.5346965239987,r,0.6550509269982285,425.24504900899774,425.24504900899774,425.24504900899774,425.24504900899774,425.24504900899774,425.24504900899774,425.5081898040007,425.5081898040007,426.41124413500074,426.41124413500074,426.45044101500025,426.45044101500025,426.45044101500025,426.45044101500025,426.45044101500025,426.45044101500025,426.45044101500025,426.45044101500025,426.45044101500025,426.45044101500025,426.45044101500025,426.45044101500025,426.45044101500025,426.45044101500025,426.45044101500025,428.9537210819981,428.9537210819981,428.9537210819981,428.9537210819981,428.9537210819981,44,71,51,59,44,86,2.0,1.8115456720006478,430.779710791001,432.3551478869995,,,,,,,,,149,m,22,2023-04-03_10h08.13.471,RL,2022.2.4,60.82365520522723,
1,46,0,46,0,,,,,,,,,,None,432.3551478869995,432.3551478869995,432.3551478869995,432.3551478869995,432.3551478869995,432.3551478869995,j,0.4456962839976768,432.8484509480004,432.8484509480004,432.8484509480004,432.8484509480004,432.8484509480004,432.8484509480004,433.1137887920013,433.1137887920013,433.96869367399995,433.96869367399995,434.0083845730005,434.0083845730005,434.0083845730005,434.0083845730005,434.0083845730005,434.0083845730005,434.0083845730005,434.0083845730005,434.0083845730005,434.0083845730005,434.0083845730005,434.0083845730005,434.0083845730005,434.0083845730005,434.0083845730005,436.5068048539979,436.5068048539979,436.5068048539979,436.5068048539979,436.5068048539979,34,64,49,61,61,71,3.0,0.6631782090007619,437.18208188599965,439.0093175350012,,,,,,,,,149,m,22,2023-04-03_10h08.13.471,RL,2022.2.4,60.82365520522723,
1,47,0,47,0,,,,,,,,,,None,439.0093175350012,439.0093175350012,439.0093175350012,439.0093175350012,439.0093175350012,439.0093175350012,i,0.831944008001301,439.88565169199865,439.88565169199865,439.88565169199865,439.88565169199865,439.88565169199865,439.88565169199865,440.1500649439986,440.1500649439986,441.25611193000077,441.25611193000077,441.2984521719991,441.2984521719991,441.2984521719991,441.2984521719991,441.2984521719991,441.2984521719991,441.2984521719991,441.2984521719991,441.2984521719991,441.2984521719991,441.2984521719991,441.2984521719991,441.2984521719991,441.2984521719991,441.2984521719991,443.8045865060012,443.8045865060012,443.8045865060012,443.8045865060012,443.8045865060012,44,65,43,51,43,91,3.0,1.7679666510011884,445.58575295899936,447.23055440999815,,,,,,,,,149,m,22,2023-04-03_10h08.13.471,RL,2022.2.4,60.82365520522723,
1,48,0,48,0,,,,,,,,,,None,447.23055440999815,447.23055440999815,447.23055440999815,447.23055440999815,447.23055440999815,447.23055440999815,j,0.8999722890002886,448.18426943899976,448.18426943899976,448.18426943899976,448.18426943899976,448.18426943899976,448.18426943899976,448.4367623709986,448.4367623709986,450.2735653870004,450.2735653870004,450.3302327079982,450.3302327079982,450.3302327079982,450.3302327079982,450.3302327079982,450.3302327079982,450.3302327079982,450.3302327079982,450.3302327079982,450.3302327079982,450.3302327079982,450.3302327079982,450.3302327079982,450.3302327079982,450.3302327079982,452.8418002969993,452.8418002969993,452.8418002969993,452.8418002969993,452.8418002969993,49,69,37,58,58,101,3.0,1.6827998609987844,454.53871146500023,456.5346921529999,,,,,,,,,149,m,22,2023-04-03_10h08.13.471,RL,2022.2.4,60.82365520522723,
1,49,0,49,0,,,,,,,,,,None,456.5346921529999,456.5346921529999,456.5346921529999,456.5346921529999,456.5346921529999,456.5346921529999,f,0.45635983499960275,457.062786931001,457.062786931001,457.062786931001,457.062786931001,457.062786931001,457.062786931001,457.3125403160011,457.3125403160011,458.37758796900016,458.37758796900016,458.44853139800034,458.44853139800034,458.44853139800034,458.44853139800034,458.44853139800034,458.44853139800034,458.44853139800034,458.44853139800034,458.44853139800034,458.44853139800034,458.44853139800034,458.44853139800034,458.44853139800034,458.44853139800034,458.44853139800034,460.95647727399773,460.95647727399773,460.95647727399773,460.95647727399773,460.95647727399773,46,66,49,64,66,69,4.0,1.8939188429976639,462.8628013050002,464.4218742459998,,,,,,,,,149,m,22,2023-04-03_10h08.13.471,RL,2022.2.4,60.82365520522723,
1,50,0,50,0,,,,,,,,,,None,464.4218742459998,464.4218742459998,464.4218742459998,464.4218742459998,464.4218742459998,464.4218742459998,r,0.9105986739996297,465.40174740400107,465.40174740400107,465.40174740400107,465.40174740400107,465.40174740400107,465.40174740400107,465.64534288199866,465.64534288199866,466.88965366699995,466.88965366699995,466.9451973920004,466.9451973920004,466.9451973920004,466.9451973920004,466.9451973920004,466.9451973920004,466.9451973920004,466.9451973920004,466.9451973920004,466.9451973920004,466.9451973920004,466.9451973920004,466.9451973920004,466.9451973920004,466.9451973920004,469.45000676699783,469.45000676699783,469.45000676699783,469.45000676699783,469.45000676699783,44,66,51,61,44,97,2.0,1.816396371999872,471.28039974900094,472.94301709999854,,,,,,,,,149,m,22,2023-04-03_10h08.13.471,RL,2022.2.4,60.82365520522723,
1,51,0,51,0,,,,,,,,,,None,472.94301709999854,472.94301709999854,472.94301709999854,472.94301709999854,472.94301709999854,472.94301709999854,f,0.735149674997956,473.72864295600084,473.72864295600084,473.72864295600084,473.72864295600084,473.72864295600084,473.72864295600084,473.9823159719999,473.9823159719999,475.28299953999885,475.28299953999885,475.3392717489987,475.3392717489987,475.3392717489987,475.3392717489987,475.3392717489987,475.3392717489987,475.3392717489987,475.3392717489987,475.3392717489987,475.3392717489987,475.3392717489987,475.3392717489987,475.3392717489987,475.3392717489987,475.3392717489987,477.84451693499796,477.84451693499796,477.84451693499796,477.84451693499796,477.84451693499796,46,64,42,57,64,94,3.0,0.7610940029990161,478.61784783999974,480.5967314599984,,,,,,,,,149,m,22,2023-04-03_10h08.13.471,RL,2022.2.4,60.82365520522723,
1,52,0,52,0,,,,,,,,,,None,480.5967314599984,480.5967314599984,480.5967314599984,480.5967314599984,480.5967314599984,480.5967314599984,i,0.9448921760013036,481.5954784530004,481.5954784530004,481.5954784530004,481.5954784530004,481.5954784530004,481.5954784530004,481.8691221839981,481.8691221839981,483.4077196469989,483.4077196469989,483.42929533200004,483.42929533200004,483.42929533200004,483.42929533200004,483.42929533200004,483.42929533200004,483.42929533200004,483.42929533200004,483.42929533200004,483.42929533200004,483.42929533200004,483.42929533200004,483.42929533200004,483.42929533200004,483.42929533200004,485.9305779059978,485.9305779059978,485.9305779059978,485.9305779059978,485.9305779059978,39,65,47,63,47,103,2.0,1.3277094370023406,487.271982025999,488.79959266899823,,,,,,,,,149,m,22,2023-04-03_10h08.13.471,RL,2022.2.4,60.82365520522723,
1,53,0,53,0,,,,,,,,,,None,488.79959266899823,488.79959266899823,488.79959266899823,488.79959266899823,488.79959266899823,488.79959266899823,j,0.9340552820031007,489.77917164500104,489.77917164500104,489.77917164500104,489.77917164500104,489.77917164500104,489.77917164500104,490.0425067299984,490.0425067299984,491.5103978750012,491.5103978750012,491.5464138319985,491.5464138319985,491.5464138319985,491.5464138319985,491.5464138319985,491.5464138319985,491.5464138319985,491.5464138319985,491.5464138319985,491.5464138319985,491.5464138319985,491.5464138319985,491.5464138319985,491.5464138319985,491.5464138319985,494.05365209999945,494.05365209999945,494.05365209999945,494.05365209999945,494.05365209999945,42,70,54,46,46,105,2.0,1.3411365739993926,495.40725956700044,497.12053657999786,,,,,,,,,149,m,22,2023-04-03_10h08.13.471,RL,2022.2.4,60.82365520522723,
1,54,0,54,0,,,,,,,,,,None,497.12053657999786,497.12053657999786,497.12053657999786,497.12053657999786,497.12053657999786,497.12053657999786,r,0.802203188999556,497.96500536799795,497.96500536799795,497.96500536799795,497.96500536799795,497.96500536799795,497.96500536799795,498.22748357399905,498.22748357399905,499.28088148000097,499.28088148000097,499.3347136459997,499.3347136459997,499.3347136459997,499.3347136459997,499.3347136459997,499.3347136459997,499.3347136459997,499.3347136459997,499.3347136459997,499.3347136459997,499.3347136459997,499.3347136459997,499.3347136459997,499.3347136459997,499.3347136459997,501.8338273949994,501.8338273949994,501.8338273949994,501.8338273949994,501.8338273949994,40,72,47,40,40,96,2.0,0.7980000850002398,502.644965315998,504.3911366680004,,,,,,,,,149,m,22,2023-04-03_10h08.13.471,RL,2022.2.4,60.82365520522723,
1,55,0,55,0,,,,,,,,,,None,504.3911366680004,504.3911366680004,504.3911366680004,504.3911366680004,504.3911366680004,504.3911366680004,None,,,,,,,,,,,,,,,,,,,,,,,,,,,,,,,,48,67,49,50,0,**,None,None,510.4580966909998,512.1935084590004,505.9451488570012,510.4580966909998,,,,,,,149,m,22,2023-04-03_10h08.13.471,RL,2022.2.4,60.82365520522723,
1,56,0,56,0,,,,,,,,,,None,512.1935084590004,512.1935084590004,512.1935084590004,512.1935084590004,512.1935084590004,512.1935084590004,f,0.7945784119983728,513.0394812509985,513.0394812509985,513.0394812509985,513.0394812509985,513.0394812509985,513.0394812509985,513.3013576150006,513.3013576150006,514.4891735439996,514.4891735439996,514.5290524089978,514.5290524089978,514.5290524089978,514.5290524089978,514.5290524089978,514.5290524089978,514.5290524089978,514.5290524089978,514.5290524089978,514.5290524089978,514.5290524089978,514.5290524089978,514.5290524089978,514.5290524089978,514.5290524089978,517.0257684999997,517.0257684999997,517.0257684999997,517.0257684999997,517.0257684999997,49,64,45,43,64,101,2.0,0.6454836810007691,517.6847621929992,519.6981182060008,,,,,,,,,149,m,22,2023-04-03_10h08.13.471,RL,2022.2.4,60.82365520522723,
1,57,0,57,0,,,,,,,,,,None,519.6981182060008,519.6981182060008,519.6981182060008,519.6981182060008,519.6981182060008,519.6981182060008,i,0.325672744998883,520.0684296449981,520.0684296449981,520.0684296449981,520.0684296449981,520.0684296449981,520.0684296449981,520.3369706599988,520.3369706599988,521.9392830299985,521.9392830299985,521.9788056159996,521.9788056159996,521.9788056159996,521.9788056159996,521.9788056159996,521.9788056159996,521.9788056159996,521.9788056159996,521.9788056159996,521.9788056159996,521.9788056159996,521.9788056159996,521.9788056159996,521.9788056159996,521.9788056159996,524.4859586969978,524.4859586969978,524.4859586969978,524.4859586969978,524.4859586969978,55,62,30,51,30,107,2.0,0.4727353199996287,524.9724087530012,526.7982093610008,,,,,,,,,149,m,22,2023-04-03_10h08.13.471,RL,2022.2.4,60.82365520522723,
1,58,0,58,0,,,,,,,,,,None,526.7982093610008,526.7982093610008,526.7982093610008,526.7982093610008,526.7982093610008,526.7982093610008,i,0.6683720499968331,527.507535607001,527.507535607001,527.507535607001,527.507535607001,527.507535607001,527.507535607001,527.7746013869983,527.7746013869983,528.8803471030005,528.8803471030005,528.920055448998,528.920055448998,528.920055448998,528.920055448998,528.920055448998,528.920055448998,528.920055448998,528.920055448998,528.920055448998,528.920055448998,528.920055448998,528.920055448998,528.920055448998,528.920055448998,528.920055448998,531.4152389439987,531.4152389439987,531.4152389439987,531.4152389439987,531.4152389439987,60,43,37,52,37,104,2.0,0.6659605719978572,532.0951028839991,533.6864094140001,,,,,,,,,149,m,22,2023-04-03_10h08.13.471,RL,2022.2.4,60.82365520522723,
1,59,0,59,0,,,,,,,,,,None,533.6864094140001,533.6864094140001,533.6864094140001,533.6864094140001,533.6864094140001,533.6864094140001,r,0.499194770000031,534.2275575669992,534.2275575669992,534.2275575669992,534.2275575669992,534.2275575669992,534.2275575669992,534.4946615549998,534.4946615549998,535.9627008870011,535.9627008870011,536.0015328170011,536.0015328170011,536.0015328170011,536.0015328170011,536.0015328170011,536.0015328170011,536.0015328170011,536.0015328170011,536.0015328170011,536.0015328170011,536.0015328170011,536.0015328170011,536.0015328170011,536.0015328170011,536.0015328170011,538.5135840990006,538.5135840990006,538.5135840990006,538.5135840990006,538.5135840990006,49,54,30,50,49,111,2.0,0.4519269640004495,538.9794864329997,540.9587651069996,,,,,,,,,149,m,22,2023-04-03_10h08.13.471,RL,2022.2.4,60.82365520522723,
1,60,0,60,0,,,,,,,,,,None,540.9587651069996,540.9587651069996,540.9587651069996,540.9587651069996,540.9587651069996,540.9587651069996,j,0.32823177500176826,541.3416076729991,541.3416076729991,541.3416076729991,541.3416076729991,541.3416076729991,541.3416076729991,541.6137940199987,541.6137940199987,543.1689953669993,543.1689953669993,543.2084676619997,543.2084676619997,543.2084676619997,543.2084676619997,543.2084676619997,543.2084676619997,543.2084676619997,543.2084676619997,543.2084676619997,543.2084676619997,543.2084676619997,543.2084676619997,543.2084676619997,543.2084676619997,543.2084676619997,545.7029161190003,545.7029161190003,545.7029161190003,545.7029161190003,545.7029161190003,62,55,24,47,47,99,2.0,1.1826150289998623,546.8986348990002,548.7457161479979,,,,,,,,,149,m,22,2023-04-03_10h08.13.471,RL,2022.2.4,60.82365520522723,
1,61,0,61,0,,,,,,,,,,None,548.7457161479979,548.7457161479979,548.7457161479979,548.7457161479979,548.7457161479979,548.7457161479979,i,0.48902729399924283,549.2923749859983,549.2923749859983,549.2923749859983,549.2923749859983,549.2923749859983,549.2923749859983,549.5688408559981,549.5688408559981,551.0243874900007,551.0243874900007,551.061869481,551.061869481,551.061869481,551.061869481,551.061869481,551.061869481,551.061869481,551.061869481,551.061869481,551.061869481,551.061869481,551.061869481,551.061869481,551.061869481,551.061869481,553.5604098449985,553.5604098449985,553.5604098449985,553.5604098449985,553.5604098449985,49,55,26,47,26,103,3.0,0.6797329410001112,554.2533012460008,556.198869691998,,,,,,,,,149,m,22,2023-04-03_10h08.13.471,RL,2022.2.4,60.82365520522723,
1,62,0,62,0,,,,,,,,,,None,556.198869691998,556.198869691998,556.198869691998,556.198869691998,556.198869691998,556.198869691998,i,0.531660661999922,556.7902118880011,556.7902118880011,556.7902118880011,556.7902118880011,556.7902118880011,556.7902118880011,557.0549636129981,557.0549636129981,558.8124113169979,558.8124113169979,558.8527080390013,558.8527080390013,558.8527080390013,558.8527080390013,558.8527080390013,558.8527080390013,558.8527080390013,558.8527080390013,558.8527080390013,558.8527080390013,558.8527080390013,558.8527080390013,558.8527080390013,558.8527080390013,558.8527080390013,561.3586812149988,561.3586812149988,561.3586812149988,561.3586812149988,561.3586812149988,47,47,27,56,27,107,2.0,0.8031876989989541,562.1744329499998,564.1194756510013,,,,,,,,,149,m,22,2023-04-03_10h08.13.471,RL,2022.2.4,60.82365520522723,
1,63,0,63,0,,,,,,,,,,None,564.1194756510013,564.1194756510013,564.1194756510013,564.1194756510013,564.1194756510013,564.1194756510013,f,0.3210059109987924,564.5030557499995,564.5030557499995,564.5030557499995,564.5030557499995,564.5030557499995,564.5030557499995,564.7750958739998,564.7750958739998,565.8132952899978,565.8132952899978,565.8519892779987,565.8519892779987,565.8519892779987,565.8519892779987,565.8519892779987,565.8519892779987,565.8519892779987,565.8519892779987,565.8519892779987,565.8519892779987,565.8519892779987,565.8519892779987,565.8519892779987,565.8519892779987,565.8519892779987,568.3484785820001,568.3484785820001,568.3484785820001,568.3484785820001,568.3484785820001,52,56,37,53,56,51,2.0,1.3498314319986093,569.7115209389995,571.706463530998,,,,,,,,,149,m,22,2023-04-03_10h08.13.471,RL,2022.2.4,60.82365520522723,
1,64,0,64,0,,,,,,,,,,None,571.706463530998,571.706463530998,571.706463530998,571.706463530998,571.706463530998,571.706463530998,None,,,,,,,,,,,,,,,,,,,,,,,,,,,,,,,,50,57,46,41,0,**,None,None,577.7399486819995,579.626708052001,573.2313808649997,577.7399486819995,,,,,,,149,m,22,2023-04-03_10h08.13.471,RL,2022.2.4,60.82365520522723,
1,65,0,65,0,,,,,,,,,,None,579.626708052001,579.626708052001,579.626708052001,579.626708052001,579.626708052001,579.626708052001,j,0.332735687999957,580.0389027429992,580.0389027429992,580.0389027429992,580.0389027429992,580.0389027429992,580.0389027429992,580.2679952030012,580.2679952030012,581.819877998998,581.819877998998,581.8927026249985,581.8927026249985,581.8927026249985,581.8927026249985,581.8927026249985,581.8927026249985,581.8927026249985,581.8927026249985,581.8927026249985,581.8927026249985,581.8927026249985,581.8927026249985,581.8927026249985,581.8927026249985,581.8927026249985,584.3936347589988,584.3936347589988,584.3936347589988,584.3936347589988,584.3936347589988,52,66,43,50,50,100,2.0,0.5605052339997201,584.9675885719989,586.6466108739987,,,,,,,,,149,m,22,2023-04-03_10h08.13.471,RL,2022.2.4,60.82365520522723,
1,66,0,66,0,,,,,,,,,,None,586.6466108739987,586.6466108739987,586.6466108739987,586.6466108739987,586.6466108739987,586.6466108739987,i,0.35595626600115793,587.0659129929991,587.0659129929991,587.0659129929991,587.0659129929991,587.0659129929991,587.0659129929991,587.3203398240003,587.3203398240003,589.2398876519983,589.2398876519983,589.2794710320013,589.2794710320013,589.2794710320013,589.2794710320013,589.2794710320013,589.2794710320013,589.2794710320013,589.2794710320013,589.2794710320013,589.2794710320013,589.2794710320013,589.2794710320013,589.2794710320013,589.2794710320013,589.2794710320013,591.783801728001,591.783801728001,591.783801728001,591.783801728001,591.783801728001,53,59,37,52,37,95,2.0,0.5071136570004455,592.3041835229997,593.86638236,,,,,,,,,149,m,22,2023-04-03_10h08.13.471,RL,2022.2.4,60.82365520522723,
1,67,0,67,0,,,,,,,,,,None,593.86638236,593.86638236,593.86638236,593.86638236,593.86638236,593.86638236,r,0.32343364800181007,594.2501806180007,594.2501806180007,594.2501806180007,594.2501806180007,594.2501806180007,594.2501806180007,594.5058149600009,594.5058149600009,596.241007487999,596.241007487999,596.2797547509981,596.2797547509981,596.2797547509981,596.2797547509981,596.2797547509981,596.2797547509981,596.2797547509981,596.2797547509981,596.2797547509981,596.2797547509981,596.2797547509981,596.2797547509981,596.2797547509981,596.2797547509981,596.2797547509981,598.789833371,598.789833371,598.789833371,598.789833371,598.789833371,46,68,36,53,46,100,2.0,0.30835347099855426,599.1096596919997,600.7864351719982,,,,,,,,,149,m,22,2023-04-03_10h08.13.471,RL,2022.2.4,60.82365520522723,
1,68,0,68,0,,,,,,,,,,None,600.7864351719982,600.7864351719982,600.7864351719982,600.7864351719982,600.7864351719982,600.7864351719982,f,0.40186517799884314,601.2344228090005,601.2344228090005,601.2344228090005,601.2344228090005,601.2344228090005,601.2344228090005,601.5092620979995,601.5092620979995,602.8303563539994,602.8303563539994,602.8531432689997,602.8531432689997,602.8531432689997,602.8531432689997,602.8531432689997,602.8531432689997,602.8531432689997,602.8531432689997,602.8531432689997,602.8531432689997,602.8531432689997,602.8531432689997,602.8531432689997,602.8531432689997,602.8531432689997,605.3557404419989,605.3557404419989,605.3557404419989,605.3557404419989,605.3557404419989,49,66,36,51,66,90,3.0,0.6573049660000834,606.0264081569985,607.8730632490006,,,,,,,,,149,m,22,2023-04-03_10h08.13.471,RL,2022.2.4,60.82365520522723,
1,69,0,69,0,,,,,,,,,,None,607.8730632490006,607.8730632490006,607.8730632490006,607.8730632490006,607.8730632490006,607.8730632490006,j,0.6328405729982478,608.5691170130012,608.5691170130012,608.5691170130012,608.5691170130012,608.5691170130012,608.5691170130012,608.8298751090006,608.8298751090006,610.3161701329991,610.3161701329991,610.3707813319998,610.3707813319998,610.3707813319998,610.3707813319998,610.3707813319998,610.3707813319998,610.3707813319998,610.3707813319998,610.3707813319998,610.3707813319998,610.3707813319998,610.3707813319998,610.3707813319998,610.3707813319998,610.3707813319998,612.8702628739993,612.8702628739993,612.8702628739993,612.8702628739993,612.8702628739993,56,55,44,52,52,91,3.0,0.46348863899766,613.3460628339999,615.3267035169993,,,,,,,,,149,m,22,2023-04-03_10h08.13.471,RL,2022.2.4,60.82365520522723,
1,70,0,70,0,,,,,,,,,,None,615.3267035169993,615.3267035169993,615.3267035169993,615.3267035169993,615.3267035169993,615.3267035169993,i,0.604890072998387,615.9956726519995,615.9956726519995,615.9956726519995,615.9956726519995,615.9956726519995,615.9956726519995,616.266272457,616.266272457,618.067820297998,618.067820297998,618.1075688679994,618.1075688679994,618.1075688679994,618.1075688679994,618.1075688679994,618.1075688679994,618.1075688679994,618.1075688679994,618.1075688679994,618.1075688679994,618.1075688679994,618.1075688679994,618.1075688679994,618.1075688679994,618.1075688679994,620.6064619540011,620.6064619540011,620.6064619540011,620.6064619540011,620.6064619540011,53,63,43,54,43,35,3.0,0.5851199440003256,621.2064890459988,623.1633830459978,,,,,,,,,149,m,22,2023-04-03_10h08.13.471,RL,2022.2.4,60.82365520522723,
1,71,0,71,0,,,,,,,,,,None,623.1633830459978,623.1633830459978,623.1633830459978,623.1633830459978,623.1633830459978,623.1633830459978,r,0.7782934979986749,623.9901360820004,623.9901360820004,623.9901360820004,623.9901360820004,623.9901360820004,623.9901360820004,624.2534912080009,624.2534912080009,626.225339007,626.225339007,626.2654459469995,626.2654459469995,626.2654459469995,626.2654459469995,626.2654459469995,626.2654459469995,626.2654459469995,626.2654459469995,626.2654459469995,626.2654459469995,626.2654459469995,626.2654459469995,626.2654459469995,626.2654459469995,626.2654459469995,628.7763471850012,628.7763471850012,628.7763471850012,628.7763471850012,628.7763471850012,58,60,42,58,58,93,3.0,0.49981311000010464,629.2896321879998,630.8176120409989,,,,,,,,,149,m,22,2023-04-03_10h08.13.471,RL,2022.2.4,60.82365520522723,
1,72,0,72,0,,,,,,,,,,None,630.8176120409989,630.8176120409989,630.8176120409989,630.8176120409989,630.8176120409989,630.8176120409989,f,0.5350196670005971,631.3983315510013,631.3983315510013,631.3983315510013,631.3983315510013,631.3983315510013,631.3983315510013,631.6567229889988,631.6567229889988,633.2599095629994,633.2599095629994,633.297710406001,633.297710406001,633.297710406001,633.297710406001,633.297710406001,633.297710406001,633.297710406001,633.297710406001,633.297710406001,633.297710406001,633.297710406001,633.297710406001,633.297710406001,633.297710406001,633.297710406001,635.8107120120003,635.8107120120003,635.8107120120003,635.8107120120003,635.8107120120003,61,61,33,59,61,38,4.0,1.2014898839988746,637.0259623399979,638.9380359059978,,,,,,,,,149,m,22,2023-04-03_10h08.13.471,RL,2022.2.4,60.82365520522723,
1,73,0,73,0,,,,,,,,,,None,638.9380359059978,638.9380359059978,638.9380359059978,638.9380359059978,638.9380359059978,638.9380359059978,r,0.707328039999993,639.7112985210006,639.7112985210006,639.7112985210006,639.7112985210006,639.7112985210006,639.7112985210006,639.981722176999,639.981722176999,641.9766542920006,641.9766542920006,642.0005392849998,642.0005392849998,642.0005392849998,642.0005392849998,642.0005392849998,642.0005392849998,642.0005392849998,642.0005392849998,642.0005392849998,642.0005392849998,642.0005392849998,642.0005392849998,642.0005392849998,642.0005392849998,642.0005392849998,644.498015789999,644.498015789999,644.498015789999,644.498015789999,644.498015789999,62,66,43,55,62,57,3.0,1.2685869739980262,645.7797566269983,647.7084667239978,,,,,,,,,149,m,22,2023-04-03_10h08.13.471,RL,2022.2.4,60.82365520522723,
1,74,0,74,0,,,,,,,,,,None,647.7084667239978,647.7084667239978,647.7084667239978,647.7084667239978,647.7084667239978,647.7084667239978,j,0.5591378220015031,648.3239048840005,648.3239048840005,648.3239048840005,648.3239048840005,648.3239048840005,648.3239048840005,648.578685329001,648.578685329001,649.6771616349979,649.6771616349979,649.7339526270007,649.7339526270007,649.7339526270007,649.7339526270007,649.7339526270007,649.7339526270007,649.7339526270007,649.7339526270007,649.7339526270007,649.7339526270007,649.7339526270007,649.7339526270007,649.7339526270007,649.7339526270007,649.7339526270007,652.237639343999,652.237639343999,652.237639343999,652.237639343999,652.237639343999,63,62,42,56,56,86,3.0,0.41175333200226305,652.6640460950002,654.4268283370002,,,,,,,,,149,m,22,2023-04-03_10h08.13.471,RL,2022.2.4,60.82365520522723,
1,75,0,75,0,,,,,,,,,,q,688.9799033800009,688.9799033800009,688.9799033800009,688.9799033800009,688.9799033800009,688.9799033800009,j,0.5031295560002036,689.5629713970011,689.5629713970011,689.5629713970011,689.5629713970011,689.5629713970011,689.5629713970011,689.801549748001,689.801549748001,691.0739095219978,691.0739095219978,691.1333559480008,691.1333559480008,691.1333559480008,691.1333559480008,691.1333559480008,691.1333559480008,691.1333559480008,691.1333559480008,691.1333559480008,691.1333559480008,691.1333559480008,691.1333559480008,691.1333559480008,691.1333559480008,691.1333559480008,693.6375595950012,693.6375595950012,693.6375595950012,693.6375595950012,693.6375595950012,63,55,50,64,64,92,2.0,0.6860489940008847,694.3373299570012,696.063212989,,,654.4268283370002,654.4268283370002,34.48463355999775,,,,149,m,22,2023-04-03_10h08.13.471,RL,2022.2.4,60.82365520522723,
1,76,0,76,0,,,,,,,,,,None,696.063212989,696.063212989,696.063212989,696.063212989,696.063212989,696.063212989,i,0.4792892270015727,696.6022827429988,696.6022827429988,696.6022827429988,696.6022827429988,696.6022827429988,696.6022827429988,696.8540580730005,696.8540580730005,698.6757975979999,698.6757975979999,698.7300408560004,698.7300408560004,698.7300408560004,698.7300408560004,698.7300408560004,698.7300408560004,698.7300408560004,698.7300408560004,698.7300408560004,698.7300408560004,698.7300408560004,698.7300408560004,698.7300408560004,698.7300408560004,698.7300408560004,701.2463106590003,701.2463106590003,701.2463106590003,701.2463106590003,701.2463106590003,63,49,42,61,42,94,2.0,0.6325326709993533,701.8909924129985,703.8023125159998,,,,,,,,,149,m,22,2023-04-03_10h08.13.471,RL,2022.2.4,60.82365520522723,
1,77,0,77,0,,,,,,,,,,None,703.8023125159998,703.8023125159998,703.8023125159998,703.8023125159998,703.8023125159998,703.8023125159998,r,0.3871767910022754,704.2578790029984,704.2578790029984,704.2578790029984,704.2578790029984,704.2578790029984,704.2578790029984,704.5261469340003,704.5261469340003,705.8695798330009,705.8695798330009,705.9078269439997,705.9078269439997,705.9078269439997,705.9078269439997,705.9078269439997,705.9078269439997,705.9078269439997,705.9078269439997,705.9078269439997,705.9078269439997,705.9078269439997,705.9078269439997,705.9078269439997,705.9078269439997,705.9078269439997,708.4218933519987,708.4218933519987,708.4218933519987,708.4218933519987,708.4218933519987,59,59,37,65,59,90,2.0,0.5582791059969168,708.993560158,710.8386979749994,,,,,,,,,149,m,22,2023-04-03_10h08.13.471,RL,2022.2.4,60.82365520522723,
1,78,0,78,0,,,,,,,,,,None,710.8386979749994,710.8386979749994,710.8386979749994,710.8386979749994,710.8386979749994,710.8386979749994,f,0.3608351529983338,711.2483841149988,711.2483841149988,711.2483841149988,711.2483841149988,711.2483841149988,711.2483841149988,711.5118292719999,711.5118292719999,712.5333932520007,712.5333932520007,712.5729356849988,712.5729356849988,712.5729356849988,712.5729356849988,712.5729356849988,712.5729356849988,712.5729356849988,712.5729356849988,712.5729356849988,712.5729356849988,712.5729356849988,712.5729356849988,712.5729356849988,712.5729356849988,712.5729356849988,715.0842190389994,715.0842190389994,715.0842190389994,715.0842190389994,715.0842190389994,57,56,40,57,56,97,2.0,0.5320081239988212,715.6284700859978,717.1750713779984,,,,,,,,,149,m,22,2023-04-03_10h08.13.471,RL,2022.2.4,60.82365520522723,
1,79,0,79,0,,,,,,,,,,None,717.1750713779984,717.1750713779984,717.1750713779984,717.1750713779984,717.1750713779984,717.1750713779984,i,0.4951960870021139,717.7208989049977,717.7208989049977,717.7208989049977,717.7208989049977,717.7208989049977,717.7208989049977,717.9813616690008,717.9813616690008,719.1810995489977,719.1810995489977,719.221055850001,719.221055850001,719.221055850001,719.221055850001,719.221055850001,719.221055850001,719.221055850001,719.221055850001,719.221055850001,719.221055850001,719.221055850001,719.221055850001,719.221055850001,719.221055850001,719.221055850001,721.7338616730012,721.7338616730012,721.7338616730012,721.7338616730012,721.7338616730012,68,53,46,58,46,92,2.0,1.0076881530003448,722.7512606230011,724.4119895510012,,,,,,,,,149,m,22,2023-04-03_10h08.13.471,RL,2022.2.4,60.82365520522723,
1,80,0,80,0,,,,,,,,,,None,724.4119895510012,724.4119895510012,724.4119895510012,724.4119895510012,724.4119895510012,724.4119895510012,r,0.3100692789994355,724.7780420620002,724.7780420620002,724.7780420620002,724.7780420620002,724.7780420620002,724.7780420620002,725.051282804001,725.051282804001,726.1367031759983,726.1367031759983,726.1750223300005,726.1750223300005,726.1750223300005,726.1750223300005,726.1750223300005,726.1750223300005,726.1750223300005,726.1750223300005,726.1750223300005,726.1750223300005,726.1750223300005,726.1750223300005,726.1750223300005,726.1750223300005,726.1750223300005,728.680067633999,728.680067633999,728.680067633999,728.680067633999,728.680067633999,69,49,50,60,69,27,3.0,1.7804587360005826,730.472612884998,732.2819172939999,,,,,,,,,149,m,22,2023-04-03_10h08.13.471,RL,2022.2.4,60.82365520522723,
1,81,0,81,0,,,,,,,,,,None,732.2819172939999,732.2819172939999,732.2819172939999,732.2819172939999,732.2819172939999,732.2819172939999,i,0.22270122700138018,732.5552983089983,732.5552983089983,732.5552983089983,732.5552983089983,732.5552983089983,732.5552983089983,732.8204486699979,732.8204486699979,733.966112733,733.966112733,734.004632524,734.004632524,734.004632524,734.004632524,734.004632524,734.004632524,734.004632524,734.004632524,734.004632524,734.004632524,734.004632524,734.004632524,734.004632524,734.004632524,734.004632524,736.5183674399996,736.5183674399996,736.5183674399996,736.5183674399996,736.5183674399996,63,44,49,44,49,27,3.0,1.073658556000737,737.605922237999,739.3191081420009,,,,,,,,,149,m,22,2023-04-03_10h08.13.471,RL,2022.2.4,60.82365520522723,
1,82,0,82,0,,,,,,,,,,None,739.3191081420009,739.3191081420009,739.3191081420009,739.3191081420009,739.3191081420009,739.3191081420009,j,0.5651537669982645,739.9453658370003,739.9453658370003,739.9453658370003,739.9453658370003,739.9453658370003,739.9453658370003,740.2263978240007,740.2263978240007,741.448751205,741.448751205,741.4705040209992,741.4705040209992,741.4705040209992,741.4705040209992,741.4705040209992,741.4705040209992,741.4705040209992,741.4705040209992,741.4705040209992,741.4705040209992,741.4705040209992,741.4705040209992,741.4705040209992,741.4705040209992,741.4705040209992,743.9670959739997,743.9670959739997,743.9670959739997,743.9670959739997,743.9670959739997,64,56,52,55,55,34,3.0,0.7792793219996383,744.7596652979992,746.4553306679991,,,,,,,,,149,m,22,2023-04-03_10h08.13.471,RL,2022.2.4,60.82365520522723,
1,83,0,83,0,,,,,,,,,,None,746.4553306679991,746.4553306679991,746.4553306679991,746.4553306679991,746.4553306679991,746.4553306679991,f,1.1850682940021215,747.6986280150013,747.6986280150013,747.6986280150013,747.6986280150013,747.6986280150013,747.6986280150013,747.9624566589991,747.9624566589991,748.9617034920011,748.9617034920011,749.0015956280004,749.0015956280004,749.0015956280004,749.0015956280004,749.0015956280004,749.0015956280004,749.0015956280004,749.0015956280004,749.0015956280004,749.0015956280004,749.0015956280004,749.0015956280004,749.0015956280004,749.0015956280004,749.0015956280004,751.5077718049979,751.5077718049979,751.5077718049979,751.5077718049979,751.5077718049979,76,57,50,52,57,88,2.0,0.8137713380019704,752.3326619260006,753.9921283559997,,,,,,,,,149,m,22,2023-04-03_10h08.13.471,RL,2022.2.4,60.82365520522723,
1,84,0,84,0,,,,,,,,,,None,753.9921283559997,753.9921283559997,753.9921283559997,753.9921283559997,753.9921283559997,753.9921283559997,r,0.5266724310022255,754.56893949,754.56893949,754.56893949,754.56893949,754.56893949,754.56893949,754.8326443959995,754.8326443959995,756.6521983720013,756.6521983720013,756.7091562019996,756.7091562019996,756.7091562019996,756.7091562019996,756.7091562019996,756.7091562019996,756.7091562019996,756.7091562019996,756.7091562019996,756.7091562019996,756.7091562019996,756.7091562019996,756.7091562019996,756.7091562019996,756.7091562019996,759.2214933899995,759.2214933899995,759.2214933899995,759.2214933899995,759.2214933899995,57,49,41,59,57,51,3.0,1.4173045069983345,760.6507817399979,762.5131311859986,,,,,,,,,149,m,22,2023-04-03_10h08.13.471,RL,2022.2.4,60.82365520522723,
1,85,0,85,0,,,,,,,,,,None,762.5131311859986,762.5131311859986,762.5131311859986,762.5131311859986,762.5131311859986,762.5131311859986,j,0.571485026001028,763.1467071480001,763.1467071480001,763.1467071480001,763.1467071480001,763.1467071480001,763.1467071480001,763.4031859349998,763.4031859349998,764.239373690998,764.239373690998,764.2790887869996,764.2790887869996,764.2790887869996,764.2790887869996,764.2790887869996,764.2790887869996,764.2790887869996,764.2790887869996,764.2790887869996,764.2790887869996,764.2790887869996,764.2790887869996,764.2790887869996,764.2790887869996,764.2790887869996,766.7880411439983,766.7880411439983,766.7880411439983,766.7880411439983,766.7880411439983,63,40,48,51,51,78,2.0,1.1369912560003286,767.9377483860007,769.5168523020002,,,,,,,,,149,m,22,2023-04-03_10h08.13.471,RL,2022.2.4,60.82365520522723,
1,86,0,86,0,,,,,,,,,,None,769.5168523020002,769.5168523020002,769.5168523020002,769.5168523020002,769.5168523020002,769.5168523020002,f,0.27031318599983933,769.8342438090003,769.8342438090003,769.8342438090003,769.8342438090003,769.8342438090003,769.8342438090003,770.0901168819983,770.0901168819983,771.2969998980006,771.2969998980006,771.3350467880009,771.3350467880009,771.3350467880009,771.3350467880009,771.3350467880009,771.3350467880009,771.3350467880009,771.3350467880009,771.3350467880009,771.3350467880009,771.3350467880009,771.3350467880009,771.3350467880009,771.3350467880009,771.3350467880009,773.8432510069979,773.8432510069979,773.8432510069979,773.8432510069979,773.8432510069979,67,52,54,57,52,84,2.0,0.4180915070028277,774.2742045119994,775.9695031869996,,,,,,,,,149,m,22,2023-04-03_10h08.13.471,RL,2022.2.4,60.82365520522723,
1,87,0,87,0,,,,,,,,,,None,775.9695031869996,775.9695031869996,775.9695031869996,775.9695031869996,775.9695031869996,775.9695031869996,i,0.5514881509989209,776.565877555,776.565877555,776.565877555,776.565877555,776.565877555,776.565877555,776.8249824890008,776.8249824890008,778.366668669998,778.366668669998,778.4219095099979,778.4219095099979,778.4219095099979,778.4219095099979,778.4219095099979,778.4219095099979,778.4219095099979,778.4219095099979,778.4219095099979,778.4219095099979,778.4219095099979,778.4219095099979,778.4219095099979,778.4219095099979,778.4219095099979,780.916831642,780.916831642,780.916831642,780.916831642,780.916831642,60,60,54,62,54,78,2.0,0.563708494999446,781.4934653909986,783.4907317569996,,,,,,,,,149,m,22,2023-04-03_10h08.13.471,RL,2022.2.4,60.82365520522723,
1,88,0,88,0,,,,,,,,,,None,783.4907317569996,783.4907317569996,783.4907317569996,783.4907317569996,783.4907317569996,783.4907317569996,i,0.5816774199993233,784.1183917800008,784.1183917800008,784.1183917800008,784.1183917800008,784.1183917800008,784.1183917800008,784.3839144119993,784.3839144119993,785.5824012449993,785.5824012449993,785.6221530340008,785.6221530340008,785.6221530340008,785.6221530340008,785.6221530340008,785.6221530340008,785.6221530340008,785.6221530340008,785.6221530340008,785.6221530340008,785.6221530340008,785.6221530340008,785.6221530340008,785.6221530340008,785.6221530340008,788.119391510998,788.119391510998,788.119391510998,788.119391510998,788.119391510998,55,48,49,58,49,78,4.0,0.7644830179997371,788.8977112930006,790.5427164479988,,,,,,,,,149,m,22,2023-04-03_10h08.13.471,RL,2022.2.4,60.82365520522723,
1,89,0,89,0,,,,,,,,,,None,790.5427164479988,790.5427164479988,790.5427164479988,790.5427164479988,790.5427164479988,790.5427164479988,r,0.27010976300152834,790.8657530310011,790.8657530310011,790.8657530310011,790.8657530310011,790.8657530310011,790.8657530310011,791.132094826,791.132094826,792.2886621159996,792.2886621159996,792.3286412769994,792.3286412769994,792.3286412769994,792.3286412769994,792.3286412769994,792.3286412769994,792.3286412769994,792.3286412769994,792.3286412769994,792.3286412769994,792.3286412769994,792.3286412769994,792.3286412769994,792.3286412769994,792.3286412769994,794.8377021289998,794.8377021289998,794.8377021289998,794.8377021289998,794.8377021289998,67,55,54,60,67,24,3.0,0.5516780540019681,795.4028372129978,797.3127682900013,,,,,,,,,149,m,22,2023-04-03_10h08.13.471,RL,2022.2.4,60.82365520522723,
1,90,0,90,0,,,,,,,,,,None,797.3127682900013,797.3127682900013,797.3127682900013,797.3127682900013,797.3127682900013,797.3127682900013,i,0.8061781430005794,798.179698246,798.179698246,798.179698246,798.179698246,798.179698246,798.179698246,798.452659063998,798.452659063998,799.5891967339994,799.5891967339994,799.6131616220009,799.6131616220009,799.6131616220009,799.6131616220009,799.6131616220009,799.6131616220009,799.6131616220009,799.6131616220009,799.6131616220009,799.6131616220009,799.6131616220009,799.6131616220009,799.6131616220009,799.6131616220009,799.6131616220009,802.1245207629981,802.1245207629981,802.1245207629981,802.1245207629981,802.1245207629981,62,51,51,63,51,48,3.0,0.6825529050001933,802.8196565680009,804.3996273689991,,,,,,,,,149,m,22,2023-04-03_10h08.13.471,RL,2022.2.4,60.82365520522723,
1,91,0,91,0,,,,,,,,,,None,804.3996273689991,804.3996273689991,804.3996273689991,804.3996273689991,804.3996273689991,804.3996273689991,i,0.4136725969983672,804.8551765880002,804.8551765880002,804.8551765880002,804.8551765880002,804.8551765880002,804.8551765880002,805.1239163309983,805.1239163309983,806.563052436999,806.563052436999,806.6025200779986,806.6025200779986,806.6025200779986,806.6025200779986,806.6025200779986,806.6025200779986,806.6025200779986,806.6025200779986,806.6025200779986,806.6025200779986,806.6025200779986,806.6025200779986,806.6025200779986,806.6025200779986,806.6025200779986,809.1130966220007,809.1130966220007,809.1130966220007,809.1130966220007,809.1130966220007,67,47,50,61,50,75,3.0,0.39685415800340706,809.5226620569993,811.1191906259992,,,,,,,,,149,m,22,2023-04-03_10h08.13.471,RL,2022.2.4,60.82365520522723,
1,92,0,92,0,,,,,,,,,,None,811.1191906259992,811.1191906259992,811.1191906259992,811.1191906259992,811.1191906259992,811.1191906259992,r,0.342299751999235,811.5190445970002,811.5190445970002,811.5190445970002,811.5190445970002,811.5190445970002,811.5190445970002,811.7943132789987,811.7943132789987,813.1951525180011,813.1951525180011,813.2171067460004,813.2171067460004,813.2171067460004,813.2171067460004,813.2171067460004,813.2171067460004,813.2171067460004,813.2171067460004,813.2171067460004,813.2171067460004,813.2171067460004,813.2171067460004,813.2171067460004,813.2171067460004,813.2171067460004,815.7172945409984,815.7172945409984,815.7172945409984,815.7172945409984,815.7172945409984,68,43,40,59,68,76,3.0,0.7150925739988452,816.4458349089982,818.339217495999,,,,,,,,,149,m,22,2023-04-03_10h08.13.471,RL,2022.2.4,60.82365520522723,
1,93,0,93,0,,,,,,,,,,None,818.339217495999,818.339217495999,818.339217495999,818.339217495999,818.339217495999,818.339217495999,f,0.25813352600016515,818.6480499770005,818.6480499770005,818.6480499770005,818.6480499770005,818.6480499770005,818.6480499770005,818.9140022899992,818.9140022899992,820.3651215749996,820.3651215749996,820.4040826899982,820.4040826899982,820.4040826899982,820.4040826899982,820.4040826899982,820.4040826899982,820.4040826899982,820.4040826899982,820.4040826899982,820.4040826899982,820.4040826899982,820.4040826899982,820.4040826899982,820.4040826899982,820.4040826899982,822.9143177879996,822.9143177879996,822.9143177879996,822.9143177879996,822.9143177879996,67,44,47,60,44,77,2.0,0.5225551160001487,823.4474809769999,825.2933984310002,,,,,,,,,149,m,22,2023-04-03_10h08.13.471,RL,2022.2.4,60.82365520522723,
1,94,0,94,0,,,,,,,,,,None,825.2933984310002,825.2933984310002,825.2933984310002,825.2933984310002,825.2933984310002,825.2933984310002,j,0.24503393999839318,825.5949812139988,825.5949812139988,825.5949812139988,825.5949812139988,825.5949812139988,825.5949812139988,825.8658036289999,825.8658036289999,827.0245661049994,827.0245661049994,827.0646011030003,827.0646011030003,827.0646011030003,827.0646011030003,827.0646011030003,827.0646011030003,827.0646011030003,827.0646011030003,827.0646011030003,827.0646011030003,827.0646011030003,827.0646011030003,827.0646011030003,827.0646011030003,827.0646011030003,829.5782572799981,829.5782572799981,829.5782572799981,829.5782572799981,829.5782572799981,64,45,46,61,61,37,3.0,0.6293834669995704,830.2187180500005,831.8794455349998,,,,,,,,,149,m,22,2023-04-03_10h08.13.471,RL,2022.2.4,60.82365520522723,
1,95,0,95,0,,,,,,,,,,None,831.8794455349998,831.8794455349998,831.8794455349998,831.8794455349998,831.8794455349998,831.8794455349998,i,0.24209181600235752,832.1755090849983,832.1755090849983,832.1755090849983,832.1755090849983,832.1755090849983,832.1755090849983,832.435248455,832.435248455,833.4685965739991,833.4685965739991,833.5253665720011,833.5253665720011,833.5253665720011,833.5253665720011,833.5253665720011,833.5253665720011,833.5253665720011,833.5253665720011,833.5253665720011,833.5253665720011,833.5253665720011,833.5253665720011,833.5253665720011,833.5253665720011,833.5253665720011,836.0321450320007,836.0321450320007,836.0321450320007,836.0321450320007,836.0321450320007,68,55,45,64,45,72,2.0,1.4591212180021103,837.5038956930002,839.2663806609999,,,,,,,,,149,m,22,2023-04-03_10h08.13.471,RL,2022.2.4,60.82365520522723,
1,96,0,96,0,,,,,,,,,,None,839.2663806609999,839.2663806609999,839.2663806609999,839.2663806609999,839.2663806609999,839.2663806609999,r,0.30316190799931064,839.6267277799998,839.6267277799998,839.6267277799998,839.6267277799998,839.6267277799998,839.6267277799998,839.8898615299986,839.8898615299986,840.7875851360004,840.7875851360004,840.8281741329993,840.8281741329993,840.8281741329993,840.8281741329993,840.8281741329993,840.8281741329993,840.8281741329993,840.8281741329993,840.8281741329993,840.8281741329993,840.8281741329993,840.8281741329993,840.8281741329993,840.8281741329993,840.8281741329993,843.3377439670003,843.3377439670003,843.3377439670003,843.3377439670003,843.3377439670003,63,55,46,68,63,33,3.0,2.3095300319982925,845.6594430180012,847.4868764470011,,,,,,,,,149,m,22,2023-04-03_10h08.13.471,RL,2022.2.4,60.82365520522723,
1,97,0,97,0,,,,,,,,,,None,847.4868764470011,847.4868764470011,847.4868764470011,847.4868764470011,847.4868764470011,847.4868764470011,i,0.875306122998154,848.4123514370003,848.4123514370003,848.4123514370003,848.4123514370003,848.4123514370003,848.4123514370003,848.6762373339989,848.6762373339989,850.4807991039997,850.4807991039997,850.5204503669993,850.5204503669993,850.5204503669993,850.5204503669993,850.5204503669993,850.5204503669993,850.5204503669993,850.5204503669993,850.5204503669993,850.5204503669993,850.5204503669993,850.5204503669993,850.5204503669993,850.5204503669993,850.5204503669993,853.016344781001,853.016344781001,853.016344781001,853.016344781001,853.016344781001,59,54,46,61,46,33,3.0,0.5670622840007127,853.5966853809987,855.4410458710008,,,,,,,,,149,m,22,2023-04-03_10h08.13.471,RL,2022.2.4,60.82365520522723,
1,98,0,98,0,,,,,,,,,,None,855.4410458710008,855.4410458710008,855.4410458710008,855.4410458710008,855.4410458710008,855.4410458710008,f,0.32412830799876247,855.8153654199996,855.8153654199996,855.8153654199996,855.8153654199996,855.8153654199996,855.8153654199996,856.0803704450009,856.0803704450009,857.9174018189988,857.9174018189988,857.9566529599979,857.9566529599979,857.9566529599979,857.9566529599979,857.9566529599979,857.9566529599979,857.9566529599979,857.9566529599979,857.9566529599979,857.9566529599979,857.9566529599979,857.9566529599979,857.9566529599979,857.9566529599979,857.9566529599979,860.4536530059995,860.4536530059995,860.4536530059995,860.4536530059995,860.4536530059995,63,58,46,54,58,64,3.0,2.6491908130010415,863.1160787070003,864.9626788259993,,,,,,,,,149,m,22,2023-04-03_10h08.13.471,RL,2022.2.4,60.82365520522723,
1,99,0,99,0,,,,,,,,,,None,864.9626788259993,864.9626788259993,864.9626788259993,864.9626788259993,864.9626788259993,864.9626788259993,j,0.3547073609988729,865.3699749869993,865.3699749869993,865.3699749869993,865.3699749869993,865.3699749869993,865.3699749869993,865.6318039729995,865.6318039729995,867.6045276100012,867.6045276100012,867.642830525001,867.642830525001,867.642830525001,867.642830525001,867.642830525001,867.642830525001,867.642830525001,867.642830525001,867.642830525001,867.642830525001,867.642830525001,867.642830525001,867.642830525001,867.642830525001,867.642830525001,870.1515613619995,870.1515613619995,870.1515613619995,870.1515613619995,870.1515613619995,61,55,45,60,60,68,3.0,0.6415121479985828,870.8028432270003,872.3985948929985,,,,,,,,,149,m,22,2023-04-03_10h08.13.471,RL,2022.2.4,60.82365520522723,
1,100,0,100,0,,,,,,,,,,None,872.3985948929985,872.3985948929985,872.3985948929985,872.3985948929985,872.3985948929985,872.3985948929985,f,0.7971302539990575,873.2508754339979,873.2508754339979,873.2508754339979,873.2508754339979,873.2508754339979,873.2508754339979,873.505067817001,873.505067817001,875.0587655279996,875.0587655279996,875.1130440650013,875.1130440650013,875.1130440650013,875.1130440650013,875.1130440650013,875.1130440650013,875.1130440650013,875.1130440650013,875.1130440650013,875.1130440650013,875.1130440650013,875.1130440650013,875.1130440650013,875.1130440650013,875.1130440650013,877.6266199599995,877.6266199599995,877.6266199599995,877.6266199599995,877.6266199599995,63,54,50,58,54,68,3.0,0.5863282190002792,878.2260893169987,879.987158871998,,,,,,,,,149,m,22,2023-04-03_10h08.13.471,RL,2022.2.4,60.82365520522723,
1,101,0,101,0,,,,,,,,,,None,879.987158871998,879.987158871998,879.987158871998,879.987158871998,879.987158871998,879.987158871998,i,0.32924643499791273,880.3653921609985,880.3653921609985,880.3653921609985,880.3653921609985,880.3653921609985,880.3653921609985,880.6256669619979,880.6256669619979,881.4762754699987,881.4762754699987,881.5324221599985,881.5324221599985,881.5324221599985,881.5324221599985,881.5324221599985,881.5324221599985,881.5324221599985,881.5324221599985,881.5324221599985,881.5324221599985,881.5324221599985,881.5324221599985,881.5324221599985,881.5324221599985,881.5324221599985,884.0324521420007,884.0324521420007,884.0324521420007,884.0324521420007,884.0324521420007,55,53,54,63,54,73,2.0,0.5309804210010043,884.5772172090001,886.2045106559999,,,,,,,,,149,m,22,2023-04-03_10h08.13.471,RL,2022.2.4,60.82365520522723,
1,102,0,102,0,,,,,,,,,,None,886.2045106559999,886.2045106559999,886.2045106559999,886.2045106559999,886.2045106559999,886.2045106559999,r,0.5220115660013107,886.7802732279997,886.7802732279997,886.7802732279997,886.7802732279997,886.7802732279997,886.7802732279997,887.0465506309993,887.0465506309993,888.8478926829994,888.8478926829994,888.889040389,888.889040389,888.889040389,888.889040389,888.889040389,888.889040389,888.889040389,888.889040389,888.889040389,888.889040389,888.889040389,888.889040389,888.889040389,888.889040389,888.889040389,891.3989207160012,891.3989207160012,891.3989207160012,891.3989207160012,891.3989207160012,46,58,65,54,46,40,2.0,1.439401486000861,892.8532989849991,894.3590620499999,,,,,,,,,149,m,22,2023-04-03_10h08.13.471,RL,2022.2.4,60.82365520522723,
1,103,0,103,0,,,,,,,,,,None,894.3590620499999,894.3590620499999,894.3590620499999,894.3590620499999,894.3590620499999,894.3590620499999,i,0.5053495120009757,894.9167286029988,894.9167286029988,894.9167286029988,894.9167286029988,894.9167286029988,894.9167286029988,895.1818951329988,895.1818951329988,897.0554501219995,897.0554501219995,897.0929926610006,897.0929926610006,897.0929926610006,897.0929926610006,897.0929926610006,897.0929926610006,897.0929926610006,897.0929926610006,897.0929926610006,897.0929926610006,897.0929926610006,897.0929926610006,897.0929926610006,897.0929926610006,897.0929926610006,899.601409556999,899.601409556999,899.601409556999,899.601409556999,899.601409556999,47,51,57,47,57,70,3.0,0.7894562539986509,900.4011164240001,902.2783309099977,,,,,,,,,149,m,22,2023-04-03_10h08.13.471,RL,2022.2.4,60.82365520522723,
1,104,0,104,0,,,,,,,,,,None,902.2783309099977,902.2783309099977,902.2783309099977,902.2783309099977,902.2783309099977,902.2783309099977,j,0.5643380799992883,902.8858868120005,902.8858868120005,902.8858868120005,902.8858868120005,902.8858868120005,902.8858868120005,903.1539975359992,903.1539975359992,904.5552918780013,904.5552918780013,904.5933902500001,904.5933902500001,904.5933902500001,904.5933902500001,904.5933902500001,904.5933902500001,904.5933902500001,904.5933902500001,904.5933902500001,904.5933902500001,904.5933902500001,904.5933902500001,904.5933902500001,904.5933902500001,904.5933902500001,907.1064201500012,907.1064201500012,907.1064201500012,907.1064201500012,907.1064201500012,42,41,60,52,52,76,2.0,1.1700275500006683,908.2885165890002,909.901389409999,,,,,,,,,149,m,22,2023-04-03_10h08.13.471,RL,2022.2.4,60.82365520522723,
1,105,0,105,0,,,,,,,,,,None,909.901389409999,909.901389409999,909.901389409999,909.901389409999,909.901389409999,909.901389409999,f,0.519476792000205,910.4665564479983,910.4665564479983,910.4665564479983,910.4665564479983,910.4665564479983,910.4665564479983,910.7350041219979,910.7350041219979,912.0057709489993,912.0057709489993,912.0290157449999,912.0290157449999,912.0290157449999,912.0290157449999,912.0290157449999,912.0290157449999,912.0290157449999,912.0290157449999,912.0290157449999,912.0290157449999,912.0290157449999,912.0290157449999,912.0290157449999,912.0290157449999,912.0290157449999,914.5296689469978,914.5296689469978,914.5296689469978,914.5296689469978,914.5296689469978,46,51,49,48,51,68,2.0,0.6949152589986625,915.238647266,917.2035285399979,,,,,,,,,149,m,22,2023-04-03_10h08.13.471,RL,2022.2.4,60.82365520522723,
1,106,0,106,0,,,,,,,,,,None,917.2035285399979,917.2035285399979,917.2035285399979,917.2035285399979,917.2035285399979,917.2035285399979,r,0.3897465740010375,917.6462277130013,917.6462277130013,917.6462277130013,917.6462277130013,917.6462277130013,917.6462277130013,917.9098166609983,917.9098166609983,919.5832755410011,919.5832755410011,919.6193003640001,919.6193003640001,919.6193003640001,919.6193003640001,919.6193003640001,919.6193003640001,919.6193003640001,919.6193003640001,919.6193003640001,919.6193003640001,919.6193003640001,919.6193003640001,919.6193003640001,919.6193003640001,919.6193003640001,922.1350477650012,922.1350477650012,922.1350477650012,922.1350477650012,922.1350477650012,45,52,56,50,45,70,2.0,0.4479306680004811,922.5976660409979,924.5066267809998,,,,,,,,,149,m,22,2023-04-03_10h08.13.471,RL,2022.2.4,60.82365520522723,
1,107,0,107,0,,,,,,,,,,None,924.5066267809998,924.5066267809998,924.5066267809998,924.5066267809998,924.5066267809998,924.5066267809998,i,0.645047070000146,925.1945354829986,925.1945354829986,925.1945354829986,925.1945354829986,925.1945354829986,925.1945354829986,925.463114954,925.463114954,927.2516062530012,927.2516062530012,927.2906178529993,927.2906178529993,927.2906178529993,927.2906178529993,927.2906178529993,927.2906178529993,927.2906178529993,927.2906178529993,927.2906178529993,927.2906178529993,927.2906178529993,927.2906178529993,927.2906178529993,927.2906178529993,927.2906178529993,929.790319478001,929.790319478001,929.790319478001,929.790319478001,929.790319478001,39,47,45,37,45,20,2.0,1.8973957100024563,931.6981492400009,933.6606009520001,,,,,,,,,149,m,22,2023-04-03_10h08.13.471,RL,2022.2.4,60.82365520522723,
1,108,0,108,0,,,,,,,,,,None,933.6606009520001,933.6606009520001,933.6606009520001,933.6606009520001,933.6606009520001,933.6606009520001,j,0.34036527300122543,934.051880777999,934.051880777999,934.051880777999,934.051880777999,934.051880777999,934.051880777999,934.316786288,934.316786288,935.8939992179985,935.8939992179985,935.9361035119982,935.9361035119982,935.9361035119982,935.9361035119982,935.9361035119982,935.9361035119982,935.9361035119982,935.9361035119982,935.9361035119982,935.9361035119982,935.9361035119982,935.9361035119982,935.9361035119982,935.9361035119982,935.9361035119982,938.4366185719991,938.4366185719991,938.4366185719991,938.4366185719991,938.4366185719991,44,49,51,38,38,69,2.0,1.6548611469988828,940.104807347001,941.9643775189979,,,,,,,,,149,m,22,2023-04-03_10h08.13.471,RL,2022.2.4,60.82365520522723,
1,109,0,109,0,,,,,,,,,,None,941.9643775189979,941.9643775189979,941.9643775189979,941.9643775189979,941.9643775189979,941.9643775189979,f,0.8134443840026506,942.8227415010006,942.8227415010006,942.8227415010006,942.8227415010006,942.8227415010006,942.8227415010006,943.087417652001,943.087417652001,944.2418023200007,944.2418023200007,944.2809422999999,944.2809422999999,944.2809422999999,944.2809422999999,944.2809422999999,944.2809422999999,944.2809422999999,944.2809422999999,944.2809422999999,944.2809422999999,944.2809422999999,944.2809422999999,944.2809422999999,944.2809422999999,944.2809422999999,946.776709720998,946.776709720998,946.776709720998,946.776709720998,946.776709720998,43,56,45,48,56,35,2.0,0.9494541549975111,947.737859017001,949.6852362520003,,,,,,,,,149,m,22,2023-04-03_10h08.13.471,RL,2022.2.4,60.82365520522723,
1,110,0,110,0,,,,,,,,,,None,949.6852362520003,949.6852362520003,949.6852362520003,949.6852362520003,949.6852362520003,949.6852362520003,i,0.9903437399989343,950.7278356679999,950.7278356679999,950.7278356679999,950.7278356679999,950.7278356679999,950.7278356679999,950.994205346,950.994205346,951.8936761959994,951.8936761959994,951.9329136939996,951.9329136939996,951.9329136939996,951.9329136939996,951.9329136939996,951.9329136939996,951.9329136939996,951.9329136939996,951.9329136939996,951.9329136939996,951.9329136939996,951.9329136939996,951.9329136939996,951.9329136939996,951.9329136939996,954.433198718998,954.433198718998,954.433198718998,954.433198718998,954.433198718998,48,45,45,48,45,61,2.0,0.41425942500063684,954.8613439760011,956.5045635370006,,,,,,,,,149,m,22,2023-04-03_10h08.13.471,RL,2022.2.4,60.82365520522723,
1,111,0,111,0,,,,,,,,,,None,956.5045635370006,956.5045635370006,956.5045635370006,956.5045635370006,956.5045635370006,956.5045635370006,r,0.36586020599861513,956.9281581750001,956.9281581750001,956.9281581750001,956.9281581750001,956.9281581750001,956.9281581750001,957.1959322599978,957.1959322599978,958.7186550949991,958.7186550949991,958.7554236120013,958.7554236120013,958.7554236120013,958.7554236120013,958.7554236120013,958.7554236120013,958.7554236120013,958.7554236120013,958.7554236120013,958.7554236120013,958.7554236120013,958.7554236120013,958.7554236120013,958.7554236120013,958.7554236120013,961.255536441,961.255536441,961.255536441,961.255536441,961.255536441,42,54,45,46,42,62,2.0,0.44765426500089234,961.7166227380003,963.5256671899988,,,,,,,,,149,m,22,2023-04-03_10h08.13.471,RL,2022.2.4,60.82365520522723,
1,112,0,112,0,,,,,,,,,,None,963.5256671899988,963.5256671899988,963.5256671899988,963.5256671899988,963.5256671899988,963.5256671899988,j,1.2847906869974395,964.8688212279994,964.8688212279994,964.8688212279994,964.8688212279994,964.8688212279994,964.8688212279994,965.132126190998,965.132126190998,966.2490020590012,966.2490020590012,966.2892130670007,966.2892130670007,966.2892130670007,966.2892130670007,966.2892130670007,966.2892130670007,966.2892130670007,966.2892130670007,966.2892130670007,966.2892130670007,966.2892130670007,966.2892130670007,966.2892130670007,966.2892130670007,966.2892130670007,968.7861990519996,968.7861990519996,968.7861990519996,968.7861990519996,968.7861990519996,44,49,47,52,52,63,2.0,0.7001163709974207,969.4993415360004,971.361539720001,,,,,,,,,149,m,22,2023-04-03_10h08.13.471,RL,2022.2.4,60.82365520522723,
1,113,0,113,0,,,,,,,,,,None,971.361539720001,971.361539720001,971.361539720001,971.361539720001,971.361539720001,971.361539720001,r,0.29505222200168646,971.7055631459989,971.7055631459989,971.7055631459989,971.7055631459989,971.7055631459989,971.7055631459989,971.9708952789988,971.9708952789988,973.0577928639977,973.0577928639977,973.0979891259994,973.0979891259994,973.0979891259994,973.0979891259994,973.0979891259994,973.0979891259994,973.0979891259994,973.0979891259994,973.0979891259994,973.0979891259994,973.0979891259994,973.0979891259994,973.0979891259994,973.0979891259994,973.0979891259994,975.5919138879981,975.5919138879981,975.5919138879981,975.5919138879981,975.5919138879981,42,40,45,57,42,57,2.0,0.34857818800082896,975.9534732229986,977.9319857699993,,,,,,,,,149,m,22,2023-04-03_10h08.13.471,RL,2022.2.4,60.82365520522723,
1,114,0,114,0,,,,,,,,,,None,977.9319857699993,977.9319857699993,977.9319857699993,977.9319857699993,977.9319857699993,977.9319857699993,f,0.6221099210015382,978.608252222999,978.608252222999,978.608252222999,978.608252222999,978.608252222999,978.608252222999,978.8719535849996,978.8719535849996,980.3335139150004,980.3335139150004,980.389228494998,980.389228494998,980.389228494998,980.389228494998,980.389228494998,980.389228494998,980.389228494998,980.389228494998,980.389228494998,980.389228494998,980.389228494998,980.389228494998,980.389228494998,980.389228494998,980.389228494998,982.8839021759995,982.8839021759995,982.8839021759995,982.8839021759995,982.8839021759995,40,50,37,45,50,54,2.0,0.5417865050003456,983.4393538799995,985.4023315640006,,,,,,,,,149,m,22,2023-04-03_10h08.13.471,RL,2022.2.4,60.82365520522723,
1,115,0,115,0,,,,,,,,,,None,985.4023315640006,985.4023315640006,985.4023315640006,985.4023315640006,985.4023315640006,985.4023315640006,i,0.5843923909997102,986.0438514749985,986.0438514749985,986.0438514749985,986.0438514749985,986.0438514749985,986.0438514749985,986.3102352860005,986.3102352860005,987.4747466330009,987.4747466330009,987.5141834919996,987.5141834919996,987.5141834919996,987.5141834919996,987.5141834919996,987.5141834919996,987.5141834919996,987.5141834919996,987.5141834919996,987.5141834919996,987.5141834919996,987.5141834919996,987.5141834919996,987.5141834919996,987.5141834919996,990.0137560799994,990.0137560799994,990.0137560799994,990.0137560799994,990.0137560799994,45,54,45,48,45,38,3.0,0.534676692001085,990.5610092499992,992.1385891569989,,,,,,,,,149,m,22,2023-04-03_10h08.13.471,RL,2022.2.4,60.82365520522723,
1,116,0,116,0,,,,,,,,,,None,992.1385891569989,992.1385891569989,992.1385891569989,992.1385891569989,992.1385891569989,992.1385891569989,j,0.9805031350006175,993.1649983759999,993.1649983759999,993.1649983759999,993.1649983759999,993.1649983759999,993.1649983759999,993.4301940209989,993.4301940209989,994.2506347089984,994.2506347089984,994.2902598069995,994.2902598069995,994.2902598069995,994.2902598069995,994.2902598069995,994.2902598069995,994.2902598069995,994.2902598069995,994.2902598069995,994.2902598069995,994.2902598069995,994.2902598069995,994.2902598069995,994.2902598069995,994.2902598069995,996.7850601799983,996.7850601799983,996.7850601799983,996.7850601799983,996.7850601799983,35,50,42,57,57,22,3.0,0.5153651920008997,997.3136787129988,998.9073686089978,,,,,,,,,149,m,22,2023-04-03_10h08.13.471,RL,2022.2.4,60.82365520522723,
