bandit,trials.thisRepN,trials.thisTrialN,trials.thisN,trials.thisIndex,instru_img1.started,instru_resp.started,instru_resp.keys,instru_resp.rt,instru_img2.started,instru_resp2.started,instru_resp2.keys,instru_resp2.rt,fixbefore_2.started,rest_response.keys,red.started,green.started,yellow.started,blue.started,choose_bandit.started,Fixation.started,choose_bandit.keys,choose_bandit.rt,black.started,red_2.started,green_2.started,yellow_2.started,blue_2.started,fixation_2.started,docs.started,image_2.started,black.stopped,red_2.stopped,green_2.stopped,yellow_2.stopped,blue_2.stopped,fixation_2.stopped,docs.stopped,image_2.stopped,black_com.started,reward_sub.started,palyerb.started,reward__sub.started,compare.started,red_compare.started,green_com.started,yellow_com.started,blue_com.started,image_3.started,slider.started,text.started,image_4.started,image_5.started,rewardyellow,rewardred,rewardblue,rewardgreen,subchoose,playerb,slider.response,slider.rt,intertrialfix.started,intertrialfix.stopped,bigx.started,bigx.stopped,rest_image.started,rest_response.started,rest_response.rt,image.started,key_resp.started,key_resp.keys,participant,Gender,Age,date,expName,psychopyVersion,frameRate,
,,,,,34.983798100147396,34.983798100147396,space,11.241416200064123,,,,,,,,,,,,,,,,,,,,,,,,,,,,,,,,,,,,,,,,,,,,,,,,,,,,,,,,,,,,,,,150,m,18,2023-04-05_11h10.38.135,RL,2022.2.4,59.943557079744096,
,,,,,,,,,46.25367720006034,46.25367720006034,y,40.4130500999745,,,,,,,,,,,,,,,,,,,,,,,,,,,,,,,,,,,,,,,,,,,,,,,,,,,,,,,,,,,150,m,18,2023-04-05_11h10.38.135,RL,2022.2.4,59.943557079744096,
1,0,0,0,0,,,,,,,,,86.68691990012303,None,87.71169210015796,87.71169210015796,87.71169210015796,87.71169210015796,87.71169210015796,87.71169210015796,f,0.6830017999745905,88.4279147000052,88.4279147000052,88.4279147000052,88.4279147000052,88.4279147000052,88.4279147000052,88.71601670002565,88.71601670002565,90.66295330016874,90.66295330016874,90.66295330016874,90.66295330016874,90.66295330016874,90.66295330016874,90.66295330016874,90.66295330016874,90.66295330016874,90.66295330016874,90.66295330016874,90.66295330016874,90.66295330016874,90.66295330016874,90.66295330016874,90.66295330016874,90.66295330016874,93.17005460010841,93.17005460010841,93.17005460010841,93.17005460010841,93.17005460010841,55,33,67,44,33,45,4.0,1.910797799937427,95.13797749998048,97.00980510003865,,,,,,,,,150,m,18,2023-04-05_11h10.38.135,RL,2022.2.4,59.943557079744096,
1,1,0,1,0,,,,,,,,,,None,97.00980510003865,97.00980510003865,97.00980510003865,97.00980510003865,97.00980510003865,97.00980510003865,r,0.35726140020415187,97.39359079999849,97.39359079999849,97.39359079999849,97.39359079999849,97.39359079999849,97.39359079999849,97.69146930007264,97.69146930007264,98.57209650008008,98.57209650008008,98.57209650008008,98.57209650008008,98.57209650008008,98.57209650008008,98.57209650008008,98.57209650008008,98.57209650008008,98.57209650008008,98.57209650008008,98.57209650008008,98.57209650008008,98.57209650008008,98.57209650008008,98.57209650008008,98.57209650008008,101.08143170014955,101.08143170014955,101.08143170014955,101.08143170014955,101.08143170014955,51,32,67,53,51,46,5.0,1.4781214999966323,102.57726339995861,104.27303460007533,,,,,,,,,150,m,18,2023-04-05_11h10.38.135,RL,2022.2.4,59.943557079744096,
1,2,0,2,0,,,,,,,,,,None,104.27303460007533,104.27303460007533,104.27303460007533,104.27303460007533,104.27303460007533,104.27303460007533,i,0.5535091999918222,104.85516270017251,104.85516270017251,104.85516270017251,104.85516270017251,104.85516270017251,104.85516270017251,105.15406700014137,105.15406700014137,107.06534750014544,107.06534750014544,107.06534750014544,107.06534750014544,107.06534750014544,107.06534750014544,107.06534750014544,107.06534750014544,107.06534750014544,107.06534750014544,107.06534750014544,107.06534750014544,107.06534750014544,107.06534750014544,107.06534750014544,107.06534750014544,107.06534750014544,109.57483609998599,109.57483609998599,109.57483609998599,109.57483609998599,109.57483609998599,58,38,71,53,71,53,6.0,1.6612514001317322,111.25363050005399,113.21535019995645,,,,,,,,,150,m,18,2023-04-05_11h10.38.135,RL,2022.2.4,59.943557079744096,
1,3,0,3,0,,,,,,,,,,None,113.21535019995645,113.21535019995645,113.21535019995645,113.21535019995645,113.21535019995645,113.21535019995645,i,0.47306300001218915,113.71508730016649,113.71508730016649,113.71508730016649,113.71508730016649,113.71508730016649,113.71508730016649,114.01318550016731,114.01318550016731,115.2267448999919,115.2267448999919,115.2267448999919,115.2267448999919,115.2267448999919,115.2267448999919,115.2267448999919,115.2267448999919,115.2267448999919,115.2267448999919,115.2267448999919,115.2267448999919,115.2267448999919,115.2267448999919,115.2267448999919,115.2267448999919,115.2267448999919,117.73576369998045,117.73576369998045,117.73576369998045,117.73576369998045,117.73576369998045,48,34,71,48,71,42,6.0,1.5948528000153601,119.34820779995061,121.01087770005688,,,,,,,,,150,m,18,2023-04-05_11h10.38.135,RL,2022.2.4,59.943557079744096,
1,4,0,4,0,,,,,,,,,,None,121.01087770005688,121.01087770005688,121.01087770005688,121.01087770005688,121.01087770005688,121.01087770005688,i,0.6860213000327349,121.72708630003035,121.72708630003035,121.72708630003035,121.72708630003035,121.72708630003035,121.72708630003035,122.02516050008126,122.02516050008126,123.8033829999622,123.8033829999622,123.8033829999622,123.8033829999622,123.8033829999622,123.8033829999622,123.8033829999622,123.8033829999622,123.8033829999622,123.8033829999622,123.8033829999622,123.8033829999622,123.8033829999622,123.8033829999622,123.8033829999622,123.8033829999622,123.8033829999622,126.31225259997882,126.31225259997882,126.31225259997882,126.31225259997882,126.31225259997882,49,30,58,54,58,49,5.0,1.8601561000104994,128.19062450015917,130.16911280015483,,,,,,,,,150,m,18,2023-04-05_11h10.38.135,RL,2022.2.4,59.943557079744096,
1,5,0,5,0,,,,,,,,,,None,130.16911280015483,130.16911280015483,130.16911280015483,130.16911280015483,130.16911280015483,130.16911280015483,j,0.6852216999977827,130.88415440008976,130.88415440008976,130.88415440008976,130.88415440008976,130.88415440008976,130.88415440008976,131.18304560007527,131.18304560007527,133.16102190013044,133.16102190013044,133.16102190013044,133.16102190013044,133.16102190013044,133.16102190013044,133.16102190013044,133.16102190013044,133.16102190013044,133.16102190013044,133.16102190013044,133.16102190013044,133.16102190013044,133.16102190013044,133.16102190013044,133.16102190013044,133.16102190013044,135.6700730000157,135.6700730000157,135.6700730000157,135.6700730000157,135.6700730000157,44,32,65,50,50,57,4.0,1.6779223000630736,137.36558750015683,139.14471510006115,,,,,,,,,150,m,18,2023-04-05_11h10.38.135,RL,2022.2.4,59.943557079744096,
1,6,0,6,0,,,,,,,,,,None,139.14471510006115,139.14471510006115,139.14471510006115,139.14471510006115,139.14471510006115,139.14471510006115,r,0.9982110999990255,140.1756982000079,140.1756982000079,140.1756982000079,140.1756982000079,140.1756982000079,140.1756982000079,140.47446920000948,140.47446920000948,141.75449950015172,141.75449950015172,141.75449950015172,141.75449950015172,141.75449950015172,141.75449950015172,141.75449950015172,141.75449950015172,141.75449950015172,141.75449950015172,141.75449950015172,141.75449950015172,141.75449950015172,141.75449950015172,141.75449950015172,141.75449950015172,141.75449950015172,144.26370380003937,144.26370380003937,144.26370380003937,144.26370380003937,144.26370380003937,37,35,66,44,37,64,3.0,1.1629993000533432,145.44369970005937,147.02315300004557,,,,,,,,,150,m,18,2023-04-05_11h10.38.135,RL,2022.2.4,59.943557079744096,
1,7,0,7,0,,,,,,,,,,None,147.02315300004557,147.02315300004557,147.02315300004557,147.02315300004557,147.02315300004557,147.02315300004557,j,0.41802709992043674,147.4734299001284,147.4734299001284,147.4734299001284,147.4734299001284,147.4734299001284,147.4734299001284,147.7714615999721,147.7714615999721,148.95144800003618,148.95144800003618,148.95144800003618,148.95144800003618,148.95144800003618,148.95144800003618,148.95144800003618,148.95144800003618,148.95144800003618,148.95144800003618,148.95144800003618,148.95144800003618,148.95144800003618,148.95144800003618,148.95144800003618,148.95144800003618,148.95144800003618,151.46032209997065,151.46032209997065,151.46032209997065,151.46032209997065,151.46032209997065,35,41,63,45,45,69,3.0,1.495149000082165,152.97284780000336,154.85184210003354,,,,,,,,,150,m,18,2023-04-05_11h10.38.135,RL,2022.2.4,59.943557079744096,
1,8,0,8,0,,,,,,,,,,None,154.85184210003354,154.85184210003354,154.85184210003354,154.85184210003354,154.85184210003354,154.85184210003354,i,0.3540859001222998,155.2344131001737,155.2344131001737,155.2344131001737,155.2344131001737,155.2344131001737,155.2344131001737,155.53346970002167,155.53346970002167,156.76321540004574,156.76321540004574,156.76321540004574,156.76321540004574,156.76321540004574,156.76321540004574,156.76321540004574,156.76321540004574,156.76321540004574,156.76321540004574,156.76321540004574,156.76321540004574,156.76321540004574,156.76321540004574,156.76321540004574,156.76321540004574,156.76321540004574,159.27237410005182,159.27237410005182,159.27237410005182,159.27237410005182,159.27237410005182,40,31,78,52,78,53,5.0,2.1431274998467416,161.43304050015286,163.39510730002075,,,,,,,,,150,m,18,2023-04-05_11h10.38.135,RL,2022.2.4,59.943557079744096,
1,9,0,9,0,,,,,,,,,,None,163.39510730002075,163.39510730002075,163.39510730002075,163.39510730002075,163.39510730002075,163.39510730002075,i,0.658484400017187,164.07901630015112,164.07901630015112,164.07901630015112,164.07901630015112,164.07901630015112,164.07901630015112,164.37622460001148,164.37622460001148,166.3705643999856,166.3705643999856,166.3705643999856,166.3705643999856,166.3705643999856,166.3705643999856,166.3705643999856,166.3705643999856,166.3705643999856,166.3705643999856,166.3705643999856,166.3705643999856,166.3705643999856,166.3705643999856,166.3705643999856,166.3705643999856,166.3705643999856,168.87934390013106,168.87934390013106,168.87934390013106,168.87934390013106,168.87934390013106,39,40,68,57,68,70,3.0,1.5619658001232892,170.45864140009508,172.13806649995968,,,,,,,,,150,m,18,2023-04-05_11h10.38.135,RL,2022.2.4,59.943557079744096,
1,10,0,10,0,,,,,,,,,,None,172.13806649995968,172.13806649995968,172.13806649995968,172.13806649995968,172.13806649995968,172.13806649995968,i,0.3243841000366956,172.48730570008047,172.48730570008047,172.48730570008047,172.48730570008047,172.48730570008047,172.48730570008047,172.78616730007343,172.78616730007343,174.31559350015596,174.31559350015596,174.31559350015596,174.31559350015596,174.31559350015596,174.31559350015596,174.31559350015596,174.31559350015596,174.31559350015596,174.31559350015596,174.31559350015596,174.31559350015596,174.31559350015596,174.31559350015596,174.31559350015596,174.31559350015596,174.31559350015596,176.82457250007428,176.82457250007428,176.82457250007428,176.82457250007428,176.82457250007428,43,42,61,56,61,66,3.0,1.6608956998679787,178.50355480005965,180.49865790014155,,,,,,,,,150,m,18,2023-04-05_11h10.38.135,RL,2022.2.4,59.943557079744096,
1,11,0,11,0,,,,,,,,,,None,180.49865790014155,180.49865790014155,180.49865790014155,180.49865790014155,180.49865790014155,180.49865790014155,i,0.5360186998732388,181.06436510011554,181.06436510011554,181.06436510011554,181.06436510011554,181.06436510011554,181.06436510011554,181.36271300003864,181.36271300003864,183.22461300017312,183.22461300017312,183.22461300017312,183.22461300017312,183.22461300017312,183.22461300017312,183.22461300017312,183.22461300017312,183.22461300017312,183.22461300017312,183.22461300017312,183.22461300017312,183.22461300017312,183.22461300017312,183.22461300017312,183.22461300017312,183.22461300017312,185.7339489001315,185.7339489001315,185.7339489001315,185.7339489001315,185.7339489001315,42,29,67,51,67,73,3.0,1.5617189998738468,187.31300470000133,189.2746044001542,,,,,,,,,150,m,18,2023-04-05_11h10.38.135,RL,2022.2.4,59.943557079744096,
1,12,0,12,0,,,,,,,,,,None,189.2746044001542,189.2746044001542,189.2746044001542,189.2746044001542,189.2746044001542,189.2746044001542,f,0.2830091998912394,189.5911242000293,189.5911242000293,189.5911242000293,189.5911242000293,189.5911242000293,189.5911242000293,189.88967019994743,189.88967019994743,191.76790189999156,191.76790189999156,191.76790189999156,191.76790189999156,191.76790189999156,191.76790189999156,191.76790189999156,191.76790189999156,191.76790189999156,191.76790189999156,191.76790189999156,191.76790189999156,191.76790189999156,191.76790189999156,191.76790189999156,191.76790189999156,191.76790189999156,194.2770724000875,194.2770724000875,194.2770724000875,194.2770724000875,194.2770724000875,34,25,66,50,25,57,2.0,1.6608095997944474,195.95583240012638,197.55202669999562,,,,,,,,,150,m,18,2023-04-05_11h10.38.135,RL,2022.2.4,59.943557079744096,
1,13,0,13,0,,,,,,,,,,None,197.55202669999562,197.55202669999562,197.55202669999562,197.55202669999562,197.55202669999562,197.55202669999562,j,0.48850400000810623,198.06809310009703,198.06809310009703,198.06809310009703,198.06809310009703,198.06809310009703,198.06809310009703,198.36654420010746,198.36654420010746,199.71296790009364,199.71296790009364,199.71296790009364,199.71296790009364,199.71296790009364,199.71296790009364,199.71296790009364,199.71296790009364,199.71296790009364,199.71296790009364,199.71296790009364,199.71296790009364,199.71296790009364,199.71296790009364,199.71296790009364,199.71296790009364,199.71296790009364,202.2221820000559,202.2221820000559,202.2221820000559,202.2221820000559,202.2221820000559,46,19,76,56,56,40,5.0,1.827568099834025,204.06671239994466,205.81245950004086,,,,,,,,,150,m,18,2023-04-05_11h10.38.135,RL,2022.2.4,59.943557079744096,
1,14,0,14,0,,,,,,,,,,None,205.81245950004086,205.81245950004086,205.81245950004086,205.81245950004086,205.81245950004086,205.81245950004086,r,0.7260304000228643,206.56107200006954,206.56107200006954,206.56107200006954,206.56107200006954,206.56107200006954,206.56107200006954,206.86019070004113,206.86019070004113,207.9238001999911,207.9238001999911,207.9238001999911,207.9238001999911,207.9238001999911,207.9238001999911,207.9238001999911,207.9238001999911,207.9238001999911,207.9238001999911,207.9238001999911,207.9238001999911,207.9238001999911,207.9238001999911,207.9238001999911,207.9238001999911,207.9238001999911,210.43287160014734,210.43287160014734,210.43287160014734,210.43287160014734,210.43287160014734,46,24,77,53,46,41,5.0,1.378757999977097,211.82911240006797,213.4416319001466,,,,,,,,,150,m,18,2023-04-05_11h10.38.135,RL,2022.2.4,59.943557079744096,
1,15,0,15,0,,,,,,,,,,None,213.4416319001466,213.4416319001466,213.4416319001466,213.4416319001466,213.4416319001466,213.4416319001466,f,0.8153327000327408,214.2902347999625,214.2902347999625,214.2902347999625,214.2902347999625,214.2902347999625,214.2902347999625,214.58879599999636,214.58879599999636,216.38425740017556,216.38425740017556,216.38425740017556,216.38425740017556,216.38425740017556,216.38425740017556,216.38425740017556,216.38425740017556,216.38425740017556,216.38425740017556,216.38425740017556,216.38425740017556,216.38425740017556,216.38425740017556,216.38425740017556,216.38425740017556,216.38425740017556,218.89322500000708,218.89322500000708,218.89322500000708,218.89322500000708,218.89322500000708,38,23,75,49,23,49,3.0,1.4456168001051992,220.355709400028,222.08506010007113,,,,,,,,,150,m,18,2023-04-05_11h10.38.135,RL,2022.2.4,59.943557079744096,
1,16,0,16,0,,,,,,,,,,None,222.08506010007113,222.08506010007113,222.08506010007113,222.08506010007113,222.08506010007113,222.08506010007113,f,0.43410829990170896,222.55085980007425,222.55085980007425,222.55085980007425,222.55085980007425,222.55085980007425,222.55085980007425,222.8500010999851,222.8500010999851,224.66171630006284,224.66171630006284,224.66171630006284,224.66171630006284,224.66171630006284,224.66171630006284,224.66171630006284,224.66171630006284,224.66171630006284,224.66171630006284,224.66171630006284,224.66171630006284,224.66171630006284,224.66171630006284,224.66171630006284,224.66171630006284,224.66171630006284,227.1703284000978,227.1703284000978,227.1703284000978,227.1703284000978,227.1703284000978,38,33,77,48,33,56,3.0,1.4956093998625875,228.68311400013044,230.22967949998565,,,,,,,,,150,m,18,2023-04-05_11h10.38.135,RL,2022.2.4,59.943557079744096,
1,17,0,17,0,,,,,,,,,,None,230.22967949998565,230.22967949998565,230.22967949998565,230.22967949998565,230.22967949998565,230.22967949998565,i,0.48864470003172755,230.74496320006438,230.74496320006438,230.74496320006438,230.74496320006438,230.74496320006438,230.74496320006438,231.0442492000293,231.0442492000293,231.85853540012613,231.85853540012613,231.85853540012613,231.85853540012613,231.85853540012613,231.85853540012613,231.85853540012613,231.85853540012613,231.85853540012613,231.85853540012613,231.85853540012613,231.85853540012613,231.85853540012613,231.85853540012613,231.85853540012613,231.85853540012613,231.85853540012613,234.36779869999737,234.36779869999737,234.36779869999737,234.36779869999737,234.36779869999737,43,39,68,51,68,59,5.0,1.7777784001082182,236.16252590017393,237.79215910006315,,,,,,,,,150,m,18,2023-04-05_11h10.38.135,RL,2022.2.4,59.943557079744096,
1,18,0,18,0,,,,,,,,,,None,237.79215910006315,237.79215910006315,237.79215910006315,237.79215910006315,237.79215910006315,237.79215910006315,i,0.42973969993181527,238.2414913000539,238.2414913000539,238.2414913000539,238.2414913000539,238.2414913000539,238.2414913000539,238.54013660014607,238.54013660014607,240.46834979997948,240.46834979997948,240.46834979997948,240.46834979997948,240.46834979997948,240.46834979997948,240.46834979997948,240.46834979997948,240.46834979997948,240.46834979997948,240.46834979997948,240.46834979997948,240.46834979997948,240.46834979997948,240.46834979997948,240.46834979997948,240.46834979997948,242.9775497999508,242.9775497999508,242.9775497999508,242.9775497999508,242.9775497999508,38,30,72,49,72,34,6.0,1.378689399920404,244.37369360006414,246.23532980005257,,,,,,,,,150,m,18,2023-04-05_11h10.38.135,RL,2022.2.4,59.943557079744096,
1,19,0,19,0,,,,,,,,,,None,246.23532980005257,246.23532980005257,246.23532980005257,246.23532980005257,246.23532980005257,246.23532980005257,i,0.39859150000847876,246.65214490005746,246.65214490005746,246.65214490005746,246.65214490005746,246.65214490005746,246.65214490005746,246.95084009994753,246.95084009994753,248.82889140001498,248.82889140001498,248.82889140001498,248.82889140001498,248.82889140001498,248.82889140001498,248.82889140001498,248.82889140001498,248.82889140001498,248.82889140001498,248.82889140001498,248.82889140001498,248.82889140001498,248.82889140001498,248.82889140001498,248.82889140001498,248.82889140001498,251.33804420009255,251.33804420009255,251.33804420009255,251.33804420009255,251.33804420009255,48,31,73,47,73,59,5.0,1.3291976999025792,252.68443710007705,254.57974640000612,,,,,,,,,150,m,18,2023-04-05_11h10.38.135,RL,2022.2.4,59.943557079744096,
1,20,0,20,0,,,,,,,,,,None,254.57974640000612,254.57974640000612,254.57974640000612,254.57974640000612,254.57974640000612,254.57974640000612,i,0.4828077000565827,255.09549630014226,255.09549630014226,255.09549630014226,255.09549630014226,255.09549630014226,255.09549630014226,255.39430400007404,255.39430400007404,256.44156190007925,256.44156190007925,256.44156190007925,256.44156190007925,256.44156190007925,256.44156190007925,256.44156190007925,256.44156190007925,256.44156190007925,256.44156190007925,256.44156190007925,256.44156190007925,256.44156190007925,256.44156190007925,256.44156190007925,256.44156190007925,256.44156190007925,258.9507216999773,258.9507216999773,258.9507216999773,258.9507216999773,258.9507216999773,41,44,69,42,69,35,6.0,1.6945123998448253,260.6620918000117,262.4250110001303,,,,,,,,,150,m,18,2023-04-05_11h10.38.135,RL,2022.2.4,59.943557079744096,
1,21,0,21,0,,,,,,,,,,None,262.4250110001303,262.4250110001303,262.4250110001303,262.4250110001303,262.4250110001303,262.4250110001303,i,0.5453950001392514,262.9907428000588,262.9907428000588,262.9907428000588,262.9907428000588,262.9907428000588,262.9907428000588,263.2893360001035,263.2893360001035,264.7688682000153,264.7688682000153,264.7688682000153,264.7688682000153,264.7688682000153,264.7688682000153,264.7688682000153,264.7688682000153,264.7688682000153,264.7688682000153,264.7688682000153,264.7688682000153,264.7688682000153,264.7688682000153,264.7688682000153,264.7688682000153,264.7688682000153,267.2776731001213,267.2776731001213,267.2776731001213,267.2776731001213,267.2776731001213,52,38,52,35,52,38,5.0,1.362112500006333,268.6572396000847,270.2534841001034,,,,,,,,,150,m,18,2023-04-05_11h10.38.135,RL,2022.2.4,59.943557079744096,
1,22,0,22,0,,,,,,,,,,None,270.2534841001034,270.2534841001034,270.2534841001034,270.2534841001034,270.2534841001034,270.2534841001034,i,0.6494017001241446,270.9355603000149,270.9355603000149,270.9355603000149,270.9355603000149,270.9355603000149,270.9355603000149,271.2346763999667,271.2346763999667,272.613993300125,272.613993300125,272.613993300125,272.613993300125,272.613993300125,272.613993300125,272.613993300125,272.613993300125,272.613993300125,272.613993300125,272.613993300125,272.613993300125,272.613993300125,272.613993300125,272.613993300125,272.613993300125,272.613993300125,275.122963800095,275.122963800095,275.122963800095,275.122963800095,275.122963800095,57,40,59,46,59,36,6.0,1.5617793998681009,276.7021723999642,278.4313038000837,,,,,,,,,150,m,18,2023-04-05_11h10.38.135,RL,2022.2.4,59.943557079744096,
1,23,0,23,0,,,,,,,,,,None,278.4313038000837,278.4313038000837,278.4313038000837,278.4313038000837,278.4313038000837,278.4313038000837,i,0.3950478001497686,278.84842690010555,278.84842690010555,278.84842690010555,278.84842690010555,278.84842690010555,278.84842690010555,279.14636060013436,279.14636060013436,281.1408383999951,281.1408383999951,281.1408383999951,281.1408383999951,281.1408383999951,281.1408383999951,281.1408383999951,281.1408383999951,281.1408383999951,281.1408383999951,281.1408383999951,281.1408383999951,281.1408383999951,281.1408383999951,281.1408383999951,281.1408383999951,281.1408383999951,283.64991890010424,283.64991890010424,283.64991890010424,283.64991890010424,283.64991890010424,62,35,65,43,65,38,6.0,0.8122969998512417,284.4804690000601,286.4757260000333,,,,,,,,,150,m,18,2023-04-05_11h10.38.135,RL,2022.2.4,59.943557079744096,
1,24,0,24,0,,,,,,,,,,None,286.4757260000333,286.4757260000333,286.4757260000333,286.4757260000333,286.4757260000333,286.4757260000333,i,0.5186749000567943,287.0264840000309,287.0264840000309,287.0264840000309,287.0264840000309,287.0264840000309,287.0264840000309,287.32404820015654,287.32404820015654,288.4874474001117,288.4874474001117,288.4874474001117,288.4874474001117,288.4874474001117,288.4874474001117,288.4874474001117,288.4874474001117,288.4874474001117,288.4874474001117,288.4874474001117,288.4874474001117,288.4874474001117,288.4874474001117,288.4874474001117,288.4874474001117,288.4874474001117,290.9963456999976,290.9963456999976,290.9963456999976,290.9963456999976,290.9963456999976,54,41,55,49,55,66,3.0,1.2457055000122637,292.2592836001422,293.97196660004556,,,,,,,,,150,m,18,2023-04-05_11h10.38.135,RL,2022.2.4,59.943557079744096,
1,25,0,25,0,,,,,,,,,,None,293.97196660004556,293.97196660004556,293.97196660004556,293.97196660004556,293.97196660004556,293.97196660004556,r,0.49050269997678697,294.48803250002675,294.48803250002675,294.48803250002675,294.48803250002675,294.48803250002675,294.48803250002675,294.7869849000126,294.7869849000126,295.95046110008843,295.95046110008843,295.95046110008843,295.95046110008843,295.95046110008843,295.95046110008843,295.95046110008843,295.95046110008843,295.95046110008843,295.95046110008843,295.95046110008843,295.95046110008843,295.95046110008843,295.95046110008843,295.95046110008843,295.95046110008843,295.95046110008843,298.4596408000216,298.4596408000216,298.4596408000216,298.4596408000216,298.4596408000216,45,33,50,48,45,60,3.0,1.4951702000107616,299.97199200000614,301.78419569996186,,,,,,,,,150,m,18,2023-04-05_11h10.38.135,RL,2022.2.4,59.943557079744096,
1,26,0,26,0,,,,,,,,,,None,301.78419569996186,301.78419569996186,301.78419569996186,301.78419569996186,301.78419569996186,301.78419569996186,r,0.27212970005348325,302.08395530004054,302.08395530004054,302.08395530004054,302.08395530004054,302.08395530004054,302.08395530004054,302.38300750008784,302.38300750008784,304.27761969994754,304.27761969994754,304.27761969994754,304.27761969994754,304.27761969994754,304.27761969994754,304.27761969994754,304.27761969994754,304.27761969994754,304.27761969994754,304.27761969994754,304.27761969994754,304.27761969994754,304.27761969994754,304.27761969994754,304.27761969994754,304.27761969994754,306.7865798000712,306.7865798000712,306.7865798000712,306.7865798000712,306.7865798000712,43,36,56,51,43,64,3.0,1.611233200179413,308.41534720011987,310.0451827000361,,,,,,,,,150,m,18,2023-04-05_11h10.38.135,RL,2022.2.4,59.943557079744096,
1,27,0,27,0,,,,,,,,,,None,310.0451827000361,310.0451827000361,310.0451827000361,310.0451827000361,310.0451827000361,310.0451827000361,j,0.623291099909693,310.6935026999563,310.6935026999563,310.6935026999563,310.6935026999563,310.6935026999563,310.6935026999563,310.9926243000664,310.9926243000664,312.0230574000161,312.0230574000161,312.0230574000161,312.0230574000161,312.0230574000161,312.0230574000161,312.0230574000161,312.0230574000161,312.0230574000161,312.0230574000161,312.0230574000161,312.0230574000161,312.0230574000161,312.0230574000161,312.0230574000161,312.0230574000161,312.0230574000161,314.5319303001743,314.5319303001743,314.5319303001743,314.5319303001743,314.5319303001743,52,34,44,44,44,61,3.0,1.1793348998762667,315.7290429000277,317.6243154001422,,,,,,,,,150,m,18,2023-04-05_11h10.38.135,RL,2022.2.4,59.943557079744096,
1,28,0,28,0,,,,,,,,,,None,317.6243154001422,317.6243154001422,317.6243154001422,317.6243154001422,317.6243154001422,317.6243154001422,r,0.892398500116542,318.53876819997095,318.53876819997095,318.53876819997095,318.53876819997095,318.53876819997095,318.53876819997095,318.83770090015605,318.83770090015605,320.71599990013056,320.71599990013056,320.71599990013056,320.71599990013056,320.71599990013056,320.71599990013056,320.71599990013056,320.71599990013056,320.71599990013056,320.71599990013056,320.71599990013056,320.71599990013056,320.71599990013056,320.71599990013056,320.71599990013056,320.71599990013056,320.71599990013056,323.22534590004943,323.22534590004943,323.22534590004943,323.22534590004943,323.22534590004943,53,36,49,41,53,36,4.0,0.6636407999321818,323.90626020007767,325.7185285000596,,,,,,,,,150,m,18,2023-04-05_11h10.38.135,RL,2022.2.4,59.943557079744096,
1,29,0,29,0,,,,,,,,,,None,325.7185285000596,325.7185285000596,325.7185285000596,325.7185285000596,325.7185285000596,325.7185285000596,r,0.24722769996151328,325.9850190000143,325.9850190000143,325.9850190000143,325.9850190000143,325.9850190000143,325.9850190000143,326.2844700999558,326.2844700999558,327.77994949999265,327.77994949999265,327.77994949999265,327.77994949999265,327.77994949999265,327.77994949999265,327.77994949999265,327.77994949999265,327.77994949999265,327.77994949999265,327.77994949999265,327.77994949999265,327.77994949999265,327.77994949999265,327.77994949999265,327.77994949999265,327.77994949999265,330.2889104001224,330.2889104001224,330.2889104001224,330.2889104001224,330.2889104001224,49,35,52,42,49,33,4.0,1.5949776999186724,331.9015029000584,333.7965850001201,,,,,,,,,150,m,18,2023-04-05_11h10.38.135,RL,2022.2.4,59.943557079744096,
1,30,0,30,0,,,,,,,,,,None,333.7965850001201,333.7965850001201,333.7965850001201,333.7965850001201,333.7965850001201,333.7965850001201,r,0.48567670001648366,334.3124702000059,334.3124702000059,334.3124702000059,334.3124702000059,334.3124702000059,334.3124702000059,334.6116210001055,334.6116210001055,335.79159150016494,335.79159150016494,335.79159150016494,335.79159150016494,335.79159150016494,335.79159150016494,335.79159150016494,335.79159150016494,335.79159150016494,335.79159150016494,335.79159150016494,335.79159150016494,335.79159150016494,335.79159150016494,335.79159150016494,335.79159150016494,335.79159150016494,338.30068800016306,338.30068800016306,338.30068800016306,338.30068800016306,338.30068800016306,45,34,45,40,45,36,5.0,1.4452493998687714,339.7633358000312,341.6754159000702,,,,,,,,,150,m,18,2023-04-05_11h10.38.135,RL,2022.2.4,59.943557079744096,
1,31,0,31,0,,,,,,,,,,None,341.6754159000702,341.6754159000702,341.6754159000702,341.6754159000702,341.6754159000702,341.6754159000702,r,0.5951007998082787,342.2914993001614,342.2914993001614,342.2914993001614,342.2914993001614,342.2914993001614,342.2914993001614,342.5898895000573,342.5898895000573,343.9362413000781,343.9362413000781,343.9362413000781,343.9362413000781,343.9362413000781,343.9362413000781,343.9362413000781,343.9362413000781,343.9362413000781,343.9362413000781,343.9362413000781,343.9362413000781,343.9362413000781,343.9362413000781,343.9362413000781,343.9362413000781,343.9362413000781,346.44531810004264,346.44531810004264,346.44531810004264,346.44531810004264,346.44531810004264,49,33,54,39,49,38,4.0,0.9297011999879032,347.3925067000091,348.9223702000454,,,,,,,,,150,m,18,2023-04-05_11h10.38.135,RL,2022.2.4,59.943557079744096,
1,32,0,32,0,,,,,,,,,,None,348.9223702000454,348.9223702000454,348.9223702000454,348.9223702000454,348.9223702000454,348.9223702000454,r,0.5121944001875818,349.45450210012496,349.45450210012496,349.45450210012496,349.45450210012496,349.45450210012496,349.45450210012496,349.7536794000771,349.7536794000771,351.5819457001053,351.5819457001053,351.5819457001053,351.5819457001053,351.5819457001053,351.5819457001053,351.5819457001053,351.5819457001053,351.5819457001053,351.5819457001053,351.5819457001053,351.5819457001053,351.5819457001053,351.5819457001053,351.5819457001053,351.5819457001053,351.5819457001053,354.0909221000038,354.0909221000038,354.0909221000038,354.0909221000038,354.0909221000038,43,33,42,46,43,65,3.0,1.0460514998994768,355.1545484000817,357.0999547999818,,,,,,,,,150,m,18,2023-04-05_11h10.38.135,RL,2022.2.4,59.943557079744096,
1,33,0,33,0,,,,,,,,,,None,357.0999547999818,357.0999547999818,357.0999547999818,357.0999547999818,357.0999547999818,357.0999547999818,i,0.2871895001735538,357.41603730013594,357.41603730013594,357.41603730013594,357.41603730013594,357.41603730013594,357.41603730013594,357.71523219998926,357.71523219998926,359.4102481000591,359.4102481000591,359.4102481000591,359.4102481000591,359.4102481000591,359.4102481000591,359.4102481000591,359.4102481000591,359.4102481000591,359.4102481000591,359.4102481000591,359.4102481000591,359.4102481000591,359.4102481000591,359.4102481000591,359.4102481000591,359.4102481000591,361.91969230002724,361.91969230002724,361.91969230002724,361.91969230002724,361.91969230002724,34,36,42,40,42,47,3.0,1.2455788999795914,363.1826427001506,364.778761100024,,,,,,,,,150,m,18,2023-04-05_11h10.38.135,RL,2022.2.4,59.943557079744096,
1,34,0,34,0,,,,,,,,,,None,364.778761100024,364.778761100024,364.778761100024,364.778761100024,364.778761100024,364.778761100024,i,0.6117874002084136,365.4108277000487,365.4108277000487,365.4108277000487,365.4108277000487,365.4108277000487,365.4108277000487,365.7100866001565,365.7100866001565,367.1727730999701,367.1727730999701,367.1727730999701,367.1727730999701,367.1727730999701,367.1727730999701,367.1727730999701,367.1727730999701,367.1727730999701,367.1727730999701,367.1727730999701,367.1727730999701,367.1727730999701,367.1727730999701,367.1727730999701,367.1727730999701,367.1727730999701,369.6818860000931,369.6818860000931,369.6818860000931,369.6818860000931,369.6818860000931,37,36,48,52,48,52,3.0,1.2288482000585645,370.9279782001395,372.4581170999445,,,,,,,,,150,m,18,2023-04-05_11h10.38.135,RL,2022.2.4,59.943557079744096,
1,35,0,35,0,,,,,,,,,,None,372.4581170999445,372.4581170999445,372.4581170999445,372.4581170999445,372.4581170999445,372.4581170999445,j,0.8258026998955756,373.3063571001403,373.3063571001403,373.3063571001403,373.3063571001403,373.3063571001403,373.3063571001403,373.60513769998215,373.60513769998215,375.1678086000029,375.1678086000029,375.1678086000029,375.1678086000029,375.1678086000029,375.1678086000029,375.1678086000029,375.1678086000029,375.1678086000029,375.1678086000029,375.1678086000029,375.1678086000029,375.1678086000029,375.1678086000029,375.1678086000029,375.1678086000029,375.1678086000029,377.67653120006435,377.67653120006435,377.67653120006435,377.67653120006435,377.67653120006435,35,33,46,49,49,66,3.0,1.0127742998301983,378.70716210012324,380.2531324001029,,,,,,,,,150,m,18,2023-04-05_11h10.38.135,RL,2022.2.4,59.943557079744096,
1,36,0,36,0,,,,,,,,,,None,380.2531324001029,380.2531324001029,380.2531324001029,380.2531324001029,380.2531324001029,380.2531324001029,i,0.3033938000444323,380.58789860014804,380.58789860014804,380.58789860014804,380.58789860014804,380.58789860014804,380.58789860014804,380.88490110007115,380.88490110007115,382.114909700118,382.114909700118,382.114909700118,382.114909700118,382.114909700118,382.114909700118,382.114909700118,382.114909700118,382.114909700118,382.114909700118,382.114909700118,382.114909700118,382.114909700118,382.114909700118,382.114909700118,382.114909700118,382.114909700118,384.62439929996617,384.62439929996617,384.62439929996617,384.62439929996617,384.62439929996617,42,40,43,47,43,40,4.0,0.8469601001124829,385.4885209000204,387.1343533000909,,,,,,,,,150,m,18,2023-04-05_11h10.38.135,RL,2022.2.4,59.943557079744096,
1,37,0,37,0,,,,,,,,,,None,387.1343533000909,387.1343533000909,387.1343533000909,387.1343533000909,387.1343533000909,387.1343533000909,f,0.4056113001424819,387.566931999987,387.566931999987,387.566931999987,387.566931999987,387.566931999987,387.566931999987,387.8659076001495,387.8659076001495,389.11283820006065,389.11283820006065,389.11283820006065,389.11283820006065,389.11283820006065,389.11283820006065,389.11283820006065,389.11283820006065,389.11283820006065,389.11283820006065,389.11283820006065,389.11283820006065,389.11283820006065,389.11283820006065,389.11283820006065,389.11283820006065,389.11283820006065,391.6217939001508,391.6217939001508,391.6217939001508,391.6217939001508,391.6217939001508,38,34,50,49,34,54,3.0,1.0629768001381308,392.70223850011826,394.26506530004553,,,,,,,,,150,m,18,2023-04-05_11h10.38.135,RL,2022.2.4,59.943557079744096,
1,38,0,38,0,,,,,,,,,,None,394.26506530004553,394.26506530004553,394.26506530004553,394.26506530004553,394.26506530004553,394.26506530004553,i,0.4134311000816524,394.69805440003984,394.69805440003984,394.69805440003984,394.69805440003984,394.69805440003984,394.69805440003984,394.99684450007044,394.99684450007044,396.39268180006184,396.39268180006184,396.39268180006184,396.39268180006184,396.39268180006184,396.39268180006184,396.39268180006184,396.39268180006184,396.39268180006184,396.39268180006184,396.39268180006184,396.39268180006184,396.39268180006184,396.39268180006184,396.39268180006184,396.39268180006184,396.39268180006184,398.9021050001029,398.9021050001029,398.9021050001029,398.9021050001029,398.9021050001029,32,41,42,48,42,65,2.0,1.3785228999331594,400.2980098000262,402.0106353000738,,,,,,,,,150,m,18,2023-04-05_11h10.38.135,RL,2022.2.4,59.943557079744096,
1,39,0,39,0,,,,,,,,,,None,402.0106353000738,402.0106353000738,402.0106353000738,402.0106353000738,402.0106353000738,402.0106353000738,i,0.3058718000538647,402.3434568999801,402.3434568999801,402.3434568999801,402.3434568999801,402.3434568999801,402.3434568999801,402.6425948999822,402.6425948999822,403.7561533001717,403.7561533001717,403.7561533001717,403.7561533001717,403.7561533001717,403.7561533001717,403.7561533001717,403.7561533001717,403.7561533001717,403.7561533001717,403.7561533001717,403.7561533001717,403.7561533001717,403.7561533001717,403.7561533001717,403.7561533001717,403.7561533001717,406.2650727001019,406.2650727001019,406.2650727001019,406.2650727001019,406.2650727001019,37,32,35,51,35,61,3.0,1.4451711000874639,407.7280220000539,409.53992810007185,,,,,,,,,150,m,18,2023-04-05_11h10.38.135,RL,2022.2.4,59.943557079744096,
1,40,0,40,0,,,,,,,,,,None,409.53992810007185,409.53992810007185,409.53992810007185,409.53992810007185,409.53992810007185,409.53992810007185,r,0.4246779000386596,409.98959340015426,409.98959340015426,409.98959340015426,409.98959340015426,409.98959340015426,409.98959340015426,410.28856330015697,410.28856330015697,412.0170881000813,412.0170881000813,412.0170881000813,412.0170881000813,412.0170881000813,412.0170881000813,412.0170881000813,412.0170881000813,412.0170881000813,412.0170881000813,412.0170881000813,412.0170881000813,412.0170881000813,412.0170881000813,412.0170881000813,412.0170881000813,412.0170881000813,414.5261087999679,414.5261087999679,414.5261087999679,414.5261087999679,414.5261087999679,42,31,45,50,42,67,3.0,1.4126063999719918,415.9553873001132,417.80084839998744,,,,,,,,,150,m,18,2023-04-05_11h10.38.135,RL,2022.2.4,59.943557079744096,
1,41,0,41,0,,,,,,,,,,None,417.80084839998744,417.80084839998744,417.80084839998744,417.80084839998744,417.80084839998744,417.80084839998744,j,0.4564298999030143,418.28383249999024,418.28383249999024,418.28383249999024,418.28383249999024,418.28383249999024,418.28383249999024,418.5825986000709,418.5825986000709,419.4301056000404,419.4301056000404,419.4301056000404,419.4301056000404,419.4301056000404,419.4301056000404,419.4301056000404,419.4301056000404,419.4301056000404,419.4301056000404,419.4301056000404,419.4301056000404,419.4301056000404,419.4301056000404,419.4301056000404,419.4301056000404,419.4301056000404,421.93918340001255,421.93918340001255,421.93918340001255,421.93918340001255,421.93918340001255,45,31,43,52,52,66,3.0,1.2462180000729859,423.20226459996775,425.0475884000771,,,,,,,,,150,m,18,2023-04-05_11h10.38.135,RL,2022.2.4,59.943557079744096,
1,42,0,42,0,,,,,,,,,,None,425.0475884000771,425.0475884000771,425.0475884000771,425.0475884000771,425.0475884000771,425.0475884000771,j,0.2675919998437166,425.34737960016355,425.34737960016355,425.34737960016355,425.34737960016355,425.34737960016355,425.34737960016355,425.6465149000287,425.6465149000287,426.6765837999992,426.6765837999992,426.6765837999992,426.6765837999992,426.6765837999992,426.6765837999992,426.6765837999992,426.6765837999992,426.6765837999992,426.6765837999992,426.6765837999992,426.6765837999992,426.6765837999992,426.6765837999992,426.6765837999992,426.6765837999992,426.6765837999992,429.1861262000166,429.1861262000166,429.1861262000166,429.1861262000166,429.1861262000166,32,32,44,51,51,57,3.0,1.2459575000684708,430.4490557999816,432.1284795999527,,,,,,,,,150,m,18,2023-04-05_11h10.38.135,RL,2022.2.4,59.943557079744096,
1,43,0,43,0,,,,,,,,,,None,432.1284795999527,432.1284795999527,432.1284795999527,432.1284795999527,432.1284795999527,432.1284795999527,i,0.5952860999386758,432.7441124001052,432.7441124001052,432.7441124001052,432.7441124001052,432.7441124001052,432.7441124001052,433.04296890017577,433.04296890017577,433.9737315000966,433.9737315000966,433.9737315000966,433.9737315000966,433.9737315000966,433.9737315000966,433.9737315000966,433.9737315000966,433.9737315000966,433.9737315000966,433.9737315000966,433.9737315000966,433.9737315000966,433.9737315000966,433.9737315000966,433.9737315000966,433.9737315000966,436.48270349996164,436.48270349996164,436.48270349996164,436.48270349996164,436.48270349996164,38,34,38,55,38,46,2.0,1.943411000072956,438.443869400071,439.97338920016773,,,,,,,,,150,m,18,2023-04-05_11h10.38.135,RL,2022.2.4,59.943557079744096,
1,44,0,44,0,,,,,,,,,,None,439.97338920016773,439.97338920016773,439.97338920016773,439.97338920016773,439.97338920016773,439.97338920016773,r,0.4475897999946028,440.44097930006683,440.44097930006683,440.44097930006683,440.44097930006683,440.44097930006683,440.44097930006683,440.7387000999879,440.7387000999879,442.616413900163,442.616413900163,442.616413900163,442.616413900163,442.616413900163,442.616413900163,442.616413900163,442.616413900163,442.616413900163,442.616413900163,442.616413900163,442.616413900163,442.616413900163,442.616413900163,442.616413900163,442.616413900163,442.616413900163,445.1255477000959,445.1255477000959,445.1255477000959,445.1255477000959,445.1255477000959,25,37,34,61,25,62,2.0,0.9965814999304712,446.1397226001136,448.035045000026,,,,,,,,,150,m,18,2023-04-05_11h10.38.135,RL,2022.2.4,59.943557079744096,
1,45,0,45,0,,,,,,,,,,None,448.035045000026,448.035045000026,448.035045000026,448.035045000026,448.035045000026,448.035045000026,f,0.8491490997839719,448.9164726000745,448.9164726000745,448.9164726000745,448.9164726000745,448.9164726000745,448.9164726000745,449.2154576999601,449.2154576999601,450.37861490016803,450.37861490016803,450.37861490016803,450.37861490016803,450.37861490016803,450.37861490016803,450.37861490016803,450.37861490016803,450.37861490016803,450.37861490016803,450.37861490016803,450.37861490016803,450.37861490016803,450.37861490016803,450.37861490016803,450.37861490016803,450.37861490016803,452.887963199988,452.887963199988,452.887963199988,452.887963199988,452.887963199988,31,34,49,52,34,60,3.0,1.810738499974832,454.7160205000546,456.29590190015733,,,,,,,,,150,m,18,2023-04-05_11h10.38.135,RL,2022.2.4,59.943557079744096,
1,46,0,46,0,,,,,,,,,,None,456.29590190015733,456.29590190015733,456.29590190015733,456.29590190015733,456.29590190015733,456.29590190015733,f,0.7795887000393122,457.095498500159,457.095498500159,457.095498500159,457.095498500159,457.095498500159,457.095498500159,457.393214300042,457.393214300042,459.20479600015096,459.20479600015096,459.20479600015096,459.20479600015096,459.20479600015096,459.20479600015096,459.20479600015096,459.20479600015096,459.20479600015096,459.20479600015096,459.20479600015096,459.20479600015096,459.20479600015096,459.20479600015096,459.20479600015096,459.20479600015096,459.20479600015096,461.714108500164,461.714108500164,461.714108500164,461.714108500164,461.714108500164,46,46,44,60,46,34,4.0,1.7941843001171947,463.5256595001556,465.15509440004826,,,,,,,,,150,m,18,2023-04-05_11h10.38.135,RL,2022.2.4,59.943557079744096,
1,47,0,47,0,,,,,,,,,,None,465.15509440004826,465.15509440004826,465.15509440004826,465.15509440004826,465.15509440004826,465.15509440004826,f,0.39318350004032254,465.5708860999439,465.5708860999439,465.5708860999439,465.5708860999439,465.5708860999439,465.5708860999439,465.8702118000947,465.8702118000947,467.86465060012415,467.86465060012415,467.86465060012415,467.86465060012415,467.86465060012415,467.86465060012415,467.86465060012415,467.86465060012415,467.86465060012415,467.86465060012415,467.86465060012415,467.86465060012415,467.86465060012415,467.86465060012415,467.86465060012415,467.86465060012415,467.86465060012415,470.37364320014603,470.37364320014603,470.37364320014603,470.37364320014603,470.37364320014603,38,42,34,57,42,54,3.0,1.2793544000014663,471.6699979000259,473.56547600007616,,,,,,,,,150,m,18,2023-04-05_11h10.38.135,RL,2022.2.4,59.943557079744096,
1,48,0,48,0,,,,,,,,,,None,473.56547600007616,473.56547600007616,473.56547600007616,473.56547600007616,473.56547600007616,473.56547600007616,f,0.6147787000518292,474.19971229997464,474.19971229997464,474.19971229997464,474.19971229997464,474.19971229997464,474.19971229997464,474.4962621999439,474.4962621999439,476.1418753999751,476.1418753999751,476.1418753999751,476.1418753999751,476.1418753999751,476.1418753999751,476.1418753999751,476.1418753999751,476.1418753999751,476.1418753999751,476.1418753999751,476.1418753999751,476.1418753999751,476.1418753999751,476.1418753999751,476.1418753999751,476.1418753999751,478.6510542000178,478.6510542000178,478.6510542000178,478.6510542000178,478.6510542000178,29,33,37,65,33,51,3.0,1.362312300130725,480.03063590009697,481.5435385000892,,,,,,,,,150,m,18,2023-04-05_11h10.38.135,RL,2022.2.4,59.943557079744096,
1,49,0,49,0,,,,,,,,,,None,481.5435385000892,481.5435385000892,481.5435385000892,481.5435385000892,481.5435385000892,481.5435385000892,i,0.39022449986077845,481.9596190000884,481.9596190000884,481.9596190000884,481.9596190000884,481.9596190000884,481.9596190000884,482.2588433001656,482.2588433001656,483.4719616000075,483.4719616000075,483.4719616000075,483.4719616000075,483.4719616000075,483.4719616000075,483.4553398999851,483.4553398999851,483.4719616000075,483.4719616000075,483.4719616000075,483.4719616000075,483.4719616000075,483.4719616000075,483.4719616000075,483.4719616000075,483.4719616000075,485.98123140004463,485.98123140004463,485.98123140004463,485.98123140004463,485.98123140004463,39,46,45,57,45,49,3.0,1.678337600082159,487.67636610008776,489.48851709999144,,,,,,,,,150,m,18,2023-04-05_11h10.38.135,RL,2022.2.4,59.943557079744096,
1,50,0,50,0,,,,,,,,,,None,489.48851709999144,489.48851709999144,489.48851709999144,489.48851709999144,489.48851709999144,489.48851709999144,r,0.45188429998233914,489.97183719999157,489.97183719999157,489.97183719999157,489.97183719999157,489.97183719999157,489.97183719999157,490.26989210001193,490.26989210001193,491.4663740999531,491.4663740999531,491.4663740999531,491.4663740999531,491.4663740999531,491.4663740999531,491.4663740999531,491.4663740999531,491.4663740999531,491.4663740999531,491.4663740999531,491.4663740999531,491.4663740999531,491.4663740999531,491.4663740999531,491.4663740999531,491.4663740999531,493.9757093000226,493.9757093000226,493.9757093000226,493.9757093000226,493.9757093000226,38,34,37,61,38,55,3.0,1.611864099977538,495.6047996999696,497.43357970006764,,,,,,,,,150,m,18,2023-04-05_11h10.38.135,RL,2022.2.4,59.943557079744096,
1,51,0,51,0,,,,,,,,,,None,497.43357970006764,497.43357970006764,497.43357970006764,497.43357970006764,497.43357970006764,497.43357970006764,r,0.36529280012473464,497.81616859999485,497.81616859999485,497.81616859999485,497.81616859999485,497.81616859999485,497.81616859999485,498.1154192001559,498.1154192001559,500.093121800106,500.093121800106,500.093121800106,500.093121800106,500.093121800106,500.093121800106,500.093121800106,500.093121800106,500.093121800106,500.093121800106,500.093121800106,500.093121800106,500.093121800106,500.093121800106,500.093121800106,500.093121800106,500.093121800106,502.60248370002955,502.60248370002955,502.60248370002955,502.60248370002955,502.60248370002955,41,30,42,54,41,49,3.0,1.4782320000231266,504.09828900010325,505.61131349997595,,,,,,,,,150,m,18,2023-04-05_11h10.38.135,RL,2022.2.4,59.943557079744096,
1,52,0,52,0,,,,,,,,,,None,505.61131349997595,505.61131349997595,505.61131349997595,505.61131349997595,505.61131349997595,505.61131349997595,j,0.7291797001380473,506.3596187001094,506.3596187001094,506.3596187001094,506.3596187001094,506.3596187001094,506.3596187001094,506.65860410011373,506.65860410011373,508.48708480014466,508.48708480014466,508.48708480014466,508.48708480014466,508.48708480014466,508.48708480014466,508.48708480014466,508.48708480014466,508.48708480014466,508.48708480014466,508.48708480014466,508.48708480014466,508.48708480014466,508.48708480014466,508.48708480014466,508.48708480014466,508.48708480014466,510.99602900003083,510.99602900003083,510.99602900003083,510.99602900003083,510.99602900003083,45,31,44,58,58,44,4.0,1.262424100190401,512.2758456000593,513.9552092000376,,,,,,,,,150,m,18,2023-04-05_11h10.38.135,RL,2022.2.4,59.943557079744096,
1,53,0,53,0,,,,,,,,,,None,513.9552092000376,513.9552092000376,513.9552092000376,513.9552092000376,513.9552092000376,513.9552092000376,j,0.4430285000707954,514.4209656000603,514.4209656000603,514.4209656000603,514.4209656000603,514.4209656000603,514.4209656000603,514.7201390999835,514.7201390999835,516.4155600001104,516.4155600001104,516.4155600001104,516.4155600001104,516.4155600001104,516.4155600001104,516.4155600001104,516.4155600001104,516.4155600001104,516.4155600001104,516.4155600001104,516.4155600001104,516.4155600001104,516.4155600001104,516.4155600001104,516.4155600001104,516.4155600001104,518.9245279000606,518.9245279000606,518.9245279000606,518.9245279000606,518.9245279000606,41,30,55,61,61,45,4.0,1.2793801000807434,520.220606100047,521.7835044001695,,,,,,,,,150,m,18,2023-04-05_11h10.38.135,RL,2022.2.4,59.943557079744096,
1,54,0,54,0,,,,,,,,,,None,521.7835044001695,521.7835044001695,521.7835044001695,521.7835044001695,521.7835044001695,521.7835044001695,j,0.2779811001382768,522.0834622001275,522.0834622001275,522.0834622001275,522.0834622001275,522.0834622001275,522.0834622001275,522.3822083000559,522.3822083000559,524.3602446001023,524.3602446001023,524.3602446001023,524.3602446001023,524.3602446001023,524.3602446001023,524.3602446001023,524.3602446001023,524.3602446001023,524.3602446001023,524.3602446001023,524.3602446001023,524.3602446001023,524.3602446001023,524.3602446001023,524.3602446001023,524.3602446001023,526.869342100108,526.869342100108,526.869342100108,526.869342100108,526.869342100108,42,22,53,58,58,65,3.0,1.42865310003981,528.3154669001233,530.2275267001241,,,,,,,,,150,m,18,2023-04-05_11h10.38.135,RL,2022.2.4,59.943557079744096,
1,55,0,55,0,,,,,,,,,,None,530.2275267001241,530.2275267001241,530.2275267001241,530.2275267001241,530.2275267001241,530.2275267001241,j,0.6409364999271929,530.8938721001614,530.8938721001614,530.8938721001614,530.8938721001614,530.8938721001614,530.8938721001614,531.1918218000792,531.1918218000792,532.5879758000374,532.5879758000374,532.5879758000374,532.5879758000374,532.5879758000374,532.5879758000374,532.5879758000374,532.5879758000374,532.5879758000374,532.5879758000374,532.5879758000374,532.5879758000374,532.5879758000374,532.5879758000374,532.5879758000374,532.5879758000374,532.5879758000374,535.0968099001329,535.0968099001329,535.0968099001329,535.0968099001329,535.0968099001329,44,24,43,57,57,37,4.0,1.3128712999168783,536.426740200026,538.0562104999553,,,,,,,,,150,m,18,2023-04-05_11h10.38.135,RL,2022.2.4,59.943557079744096,
1,56,0,56,0,,,,,,,,,,None,538.0562104999553,538.0562104999553,538.0562104999553,538.0562104999553,538.0562104999553,538.0562104999553,j,0.4203695999458432,538.5061773001216,538.5061773001216,538.5061773001216,538.5061773001216,538.5061773001216,538.5061773001216,538.8044504001737,538.8044504001737,540.2832621000707,540.2832621000707,540.2832621000707,540.2832621000707,540.2832621000707,540.2832621000707,540.2832621000707,540.2832621000707,540.2832621000707,540.2832621000707,540.2832621000707,540.2832621000707,540.2832621000707,540.2832621000707,540.2832621000707,540.2832621000707,540.2832621000707,542.7928339999635,542.7928339999635,542.7928339999635,542.7928339999635,542.7928339999635,40,34,41,57,57,66,3.0,1.2958478000946343,544.1054793000221,545.6853338000365,,,,,,,,,150,m,18,2023-04-05_11h10.38.135,RL,2022.2.4,59.943557079744096,
1,57,0,57,0,,,,,,,,,,None,545.6853338000365,545.6853338000365,545.6853338000365,545.6853338000365,545.6853338000365,545.6853338000365,j,0.36421229992993176,546.0693977000192,546.0693977000192,546.0693977000192,546.0693977000192,546.0693977000192,546.0693977000192,546.3669941001572,546.3669941001572,548.2451453001704,548.2451453001704,548.2451453001704,548.2451453001704,548.2451453001704,548.2451453001704,548.2451453001704,548.2451453001704,548.2451453001704,548.2451453001704,548.2451453001704,548.2451453001704,548.2451453001704,548.2451453001704,548.2451453001704,548.2451453001704,548.2451453001704,550.7540327999741,550.7540327999741,550.7540327999741,550.7540327999741,550.7540327999741,51,42,41,61,61,37,4.0,0.8470352999866009,551.6185394001659,553.2480282001197,,,,,,,,,150,m,18,2023-04-05_11h10.38.135,RL,2022.2.4,59.943557079744096,
1,58,0,58,0,,,,,,,,,,None,553.2480282001197,553.2480282001197,553.2480282001197,553.2480282001197,553.2480282001197,553.2480282001197,j,0.46988829993642867,553.74791679997,553.74791679997,553.74791679997,553.74791679997,553.74791679997,553.74791679997,554.0461872001179,554.0461872001179,555.7741770001594,555.7741770001594,555.7741770001594,555.7741770001594,555.7741770001594,555.7741770001594,555.7741770001594,555.7741770001594,555.7741770001594,555.7741770001594,555.7741770001594,555.7741770001594,555.7741770001594,555.7741770001594,555.7741770001594,555.7741770001594,555.7741770001594,558.2838598000817,558.2838598000817,558.2838598000817,558.2838598000817,558.2838598000817,36,39,54,37,37,58,3.0,0.6641865998972207,558.9651427001227,560.7273087999783,,,,,,,,,150,m,18,2023-04-05_11h10.38.135,RL,2022.2.4,59.943557079744096,
1,59,0,59,0,,,,,,,,,,None,560.7273087999783,560.7273087999783,560.7273087999783,560.7273087999783,560.7273087999783,560.7273087999783,j,0.3089733000379056,561.0612093999516,561.0612093999516,561.0612093999516,561.0612093999516,561.0612093999516,561.0612093999516,561.3591372000519,561.3591372000519,563.2876653999556,563.2876653999556,563.2876653999556,563.2876653999556,563.2876653999556,563.2876653999556,563.2876653999556,563.2876653999556,563.2876653999556,563.2876653999556,563.2876653999556,563.2876653999556,563.2876653999556,563.2876653999556,563.2876653999556,563.2876653999556,563.2876653999556,565.7967248000205,565.7967248000205,565.7967248000205,565.7967248000205,565.7967248000205,38,38,51,50,50,61,3.0,1.0301422998309135,566.8436833999585,568.6725012999959,,,,,,,,,150,m,18,2023-04-05_11h10.38.135,RL,2022.2.4,59.943557079744096,
1,60,0,60,0,,,,,,,,,,None,568.6725012999959,568.6725012999959,568.6725012999959,568.6725012999959,568.6725012999959,568.6725012999959,f,0.5308552999049425,569.2213971000165,569.2213971000165,569.2213971000165,569.2213971000165,569.2213971000165,569.2213971000165,569.5206838999875,569.5206838999875,571.4818023999687,571.4818023999687,571.4818023999687,571.4818023999687,571.4818023999687,571.4818023999687,571.4818023999687,571.4818023999687,571.4818023999687,571.4818023999687,571.4818023999687,571.4818023999687,571.4818023999687,571.4818023999687,571.4818023999687,571.4818023999687,571.4818023999687,573.9909932001028,573.9909932001028,573.9909932001028,573.9909932001028,573.9909932001028,27,31,47,48,31,54,3.0,1.1795008999761194,575.1876958999783,577.1826845000032,,,,,,,,,150,m,18,2023-04-05_11h10.38.135,RL,2022.2.4,59.943557079744096,
1,61,0,61,0,,,,,,,,,,None,577.1826845000032,577.1826845000032,577.1826845000032,577.1826845000032,577.1826845000032,577.1826845000032,i,0.6789321000687778,577.8828102999832,577.8828102999832,577.8828102999832,577.8828102999832,577.8828102999832,577.8828102999832,578.1804293000605,578.1804293000605,579.2770456001163,579.2770456001163,579.2770456001163,579.2770456001163,579.2770456001163,579.2770456001163,579.2604559999891,579.2604559999891,579.2770456001163,579.2770456001163,579.2770456001163,579.2770456001163,579.2770456001163,579.2770456001163,579.2770456001163,579.2770456001163,579.2770456001163,581.7863058999646,581.7863058999646,581.7863058999646,581.7863058999646,581.7863058999646,33,31,47,50,47,47,5.0,0.8135744999162853,582.6173970000818,584.4791131999809,,,,,,,,,150,m,18,2023-04-05_11h10.38.135,RL,2022.2.4,59.943557079744096,
1,62,0,62,0,,,,,,,,,,None,584.4791131999809,584.4791131999809,584.4791131999809,584.4791131999809,584.4791131999809,584.4791131999809,i,0.841034600045532,585.3440150001552,585.3440150001552,585.3440150001552,585.3440150001552,585.3440150001552,585.3440150001552,585.6433774000034,585.6433774000034,586.8897778000683,586.8897778000683,586.8897778000683,586.8897778000683,586.8897778000683,586.8897778000683,586.8897778000683,586.8897778000683,586.8897778000683,586.8897778000683,586.8897778000683,586.8897778000683,586.8897778000683,586.8897778000683,586.8897778000683,586.8897778000683,586.8897778000683,589.3989027000498,589.3989027000498,589.3989027000498,589.3989027000498,589.3989027000498,27,38,49,59,49,61,3.0,1.6941718000452965,591.1108046001755,592.7235960999969,,,,,,,,,150,m,18,2023-04-05_11h10.38.135,RL,2022.2.4,59.943557079744096,
1,63,0,63,0,,,,,,,,,,None,592.7235960999969,592.7235960999969,592.7235960999969,592.7235960999969,592.7235960999969,592.7235960999969,i,0.9188079000450671,593.672142600175,593.672142600175,593.672142600175,593.672142600175,593.672142600175,593.672142600175,593.9704803000204,593.9704803000204,594.9839929000009,594.9839929000009,594.9839929000009,594.9839929000009,594.9839929000009,594.9839929000009,594.9839929000009,594.9839929000009,594.9839929000009,594.9839929000009,594.9839929000009,594.9839929000009,594.9839929000009,594.9839929000009,594.9839929000009,594.9839929000009,594.9839929000009,597.4935318999924,597.4935318999924,597.4935318999924,597.4935318999924,597.4935318999924,35,29,53,51,53,55,3.0,1.960050699999556,599.4713955000043,601.2170582001563,,,,,,,,,150,m,18,2023-04-05_11h10.38.135,RL,2022.2.4,59.943557079744096,
1,64,0,64,0,,,,,,,,,,None,601.2170582001563,601.2170582001563,601.2170582001563,601.2170582001563,601.2170582001563,601.2170582001563,r,0.7888360999058932,602.031799999997,602.031799999997,602.031799999997,602.031799999997,602.031799999997,602.031799999997,602.330958200153,602.330958200153,603.6107588000596,603.6107588000596,603.6107588000596,603.6107588000596,603.6107588000596,603.6107588000596,603.6107588000596,603.6107588000596,603.6107588000596,603.6107588000596,603.6107588000596,603.6107588000596,603.6107588000596,603.6107588000596,603.6107588000596,603.6107588000596,603.6107588000596,606.1199724001344,606.1199724001344,606.1199724001344,606.1199724001344,606.1199724001344,43,32,55,55,43,39,3.0,0.7134151998907328,606.8510509000625,608.4804779000115,,,,,,,,,150,m,18,2023-04-05_11h10.38.135,RL,2022.2.4,59.943557079744096,
1,65,0,65,0,,,,,,,,,,None,608.4804779000115,608.4804779000115,608.4804779000115,608.4804779000115,608.4804779000115,608.4804779000115,f,0.9784963999409229,609.4793279999867,609.4793279999867,609.4793279999867,609.4793279999867,609.4793279999867,609.4793279999867,609.77704740013,609.77704740013,611.4892323999666,611.4892323999666,611.4892323999666,611.4892323999666,611.4892323999666,611.4892323999666,611.4724850000348,611.4724850000348,611.4892323999666,611.4892323999666,611.4892323999666,611.4892323999666,611.4892323999666,611.4892323999666,611.4892323999666,611.4892323999666,611.4892323999666,613.9981228001416,613.9981228001416,613.9981228001416,613.9981228001416,613.9981228001416,34,19,56,65,19,42,2.0,0.5976450000889599,614.6132458001375,616.3924591999967,,,,,,,,,150,m,18,2023-04-05_11h10.38.135,RL,2022.2.4,59.943557079744096,
1,66,0,66,0,,,,,,,,,,None,616.3924591999967,616.3924591999967,616.3924591999967,616.3924591999967,616.3924591999967,616.3924591999967,f,0.4696858001407236,616.8913463000208,616.8913463000208,616.8913463000208,616.8913463000208,616.8913463000208,616.8913463000208,617.190503800055,617.190503800055,618.0714382999577,618.0714382999577,618.0714382999577,618.0714382999577,618.0714382999577,618.0714382999577,618.0714382999577,618.0714382999577,618.0714382999577,618.0714382999577,618.0714382999577,618.0714382999577,618.0714382999577,618.0714382999577,618.0714382999577,618.0714382999577,618.0714382999577,620.5802882001735,620.5802882001735,620.5802882001735,620.5802882001735,620.5802882001735,43,24,56,64,24,39,2.0,0.9794765000697225,621.5776909000706,623.3064487001393,,,,,,,,,150,m,18,2023-04-05_11h10.38.135,RL,2022.2.4,59.943557079744096,
1,67,0,67,0,,,,,,,,,,None,623.3064487001393,623.3064487001393,623.3064487001393,623.3064487001393,623.3064487001393,623.3064487001393,i,0.33979749982245266,623.67403380014,623.67403380014,623.67403380014,623.67403380014,623.67403380014,623.67403380014,623.971778600011,623.971778600011,625.7669671999756,625.7669671999756,625.7669671999756,625.7669671999756,625.7669671999756,625.7669671999756,625.7669671999756,625.7669671999756,625.7669671999756,625.7669671999756,625.7669671999756,625.7669671999756,625.7669671999756,625.7669671999756,625.7669671999756,625.7669671999756,625.7669671999756,628.2758897000458,628.2758897000458,628.2758897000458,628.2758897000458,628.2758897000458,35,25,55,58,55,63,3.0,1.062803199980408,629.3560885000043,630.8695166001562,,,,,,,,,150,m,18,2023-04-05_11h10.38.135,RL,2022.2.4,59.943557079744096,
1,68,0,68,0,,,,,,,,,,None,630.8695166001562,630.8695166001562,630.8695166001562,630.8695166001562,630.8695166001562,630.8695166001562,j,0.7198501001112163,631.6177251001354,631.6177251001354,631.6177251001354,631.6177251001354,631.6177251001354,631.6177251001354,631.9168619001284,631.9168619001284,633.1965376001317,633.1965376001317,633.1965376001317,633.1965376001317,633.1965376001317,633.1965376001317,633.1965376001317,633.1965376001317,633.1965376001317,633.1965376001317,633.1965376001317,633.1965376001317,633.1965376001317,633.1965376001317,633.1965376001317,633.1965376001317,633.1965376001317,635.7053912000265,635.7053912000265,635.7053912000265,635.7053912000265,635.7053912000265,45,26,60,58,58,61,3.0,2.159756900044158,637.8831327001099,639.5790886001196,,,,,,,,,150,m,18,2023-04-05_11h10.38.135,RL,2022.2.4,59.943557079744096,
1,69,0,69,0,,,,,,,,,,None,639.5790886001196,639.5790886001196,639.5790886001196,639.5790886001196,639.5790886001196,639.5790886001196,j,0.8769745000172406,640.4783277001698,640.4783277001698,640.4783277001698,640.4783277001698,640.4783277001698,640.4783277001698,640.7761449001264,640.7761449001264,642.4216829000507,642.4216829000507,642.4216829000507,642.4216829000507,642.4216829000507,642.4216829000507,642.4216829000507,642.4216829000507,642.4216829000507,642.4216829000507,642.4216829000507,642.4216829000507,642.4216829000507,642.4216829000507,642.4216829000507,642.4216829000507,642.4216829000507,644.9303566999733,644.9303566999733,644.9303566999733,644.9303566999733,644.9303566999733,36,31,58,59,59,41,4.0,1.727516100043431,646.6755709000863,648.4548530001193,,,,,,,,,150,m,18,2023-04-05_11h10.38.135,RL,2022.2.4,59.943557079744096,
1,70,0,70,0,,,,,,,,,,None,648.4548530001193,648.4548530001193,648.4548530001193,648.4548530001193,648.4548530001193,648.4548530001193,j,0.9979758998379111,649.4874789000023,649.4874789000023,649.4874789000023,649.4874789000023,649.4874789000023,649.4874789000023,649.7845224000048,649.7845224000048,650.9314006001223,650.9314006001223,650.9314006001223,650.9314006001223,650.9314006001223,650.9314006001223,650.9314006001223,650.9314006001223,650.9314006001223,650.9314006001223,650.9314006001223,650.9314006001223,650.9314006001223,650.9314006001223,650.9314006001223,650.9314006001223,650.9314006001223,653.4407934001647,653.4407934001647,653.4407934001647,653.4407934001647,653.4407934001647,38,36,57,60,60,57,3.0,0.8467793001327664,654.3052137000486,656.0674392001238,,,,,,,,,150,m,18,2023-04-05_11h10.38.135,RL,2022.2.4,59.943557079744096,
1,71,0,71,0,,,,,,,,,,None,656.0674392001238,656.0674392001238,656.0674392001238,656.0674392001238,656.0674392001238,656.0674392001238,None,,,,,,,,,,,,,,,,,,,,,,,,,,,,,,,,46,31,51,61,0,**,None,None,662.0837900000624,663.945688799955,657.5847964000423,662.0837900000624,,,,,,,150,m,18,2023-04-05_11h10.38.135,RL,2022.2.4,59.943557079744096,
1,72,0,72,0,,,,,,,,,,None,663.945688799955,663.945688799955,663.945688799955,663.945688799955,663.945688799955,663.945688799955,f,0.4781482999678701,664.4464404000901,664.4464404000901,664.4464404000901,664.4464404000901,664.4464404000901,664.4464404000901,664.7440798000898,664.7440798000898,666.0073086000048,666.0073086000048,666.0073086000048,666.0073086000048,666.0073086000048,666.0073086000048,666.0073086000048,666.0073086000048,666.0073086000048,666.0073086000048,666.0073086000048,666.0073086000048,666.0073086000048,666.0073086000048,666.0073086000048,666.0073086000048,666.0073086000048,668.5161011000164,668.5161011000164,668.5161011000164,668.5161011000164,668.5161011000164,36,27,53,53,27,59,3.0,1.5283733000978827,670.0620059000794,671.7580299000256,,,,,,,,,150,m,18,2023-04-05_11h10.38.135,RL,2022.2.4,59.943557079744096,
1,73,0,73,0,,,,,,,,,,None,671.7580299000256,671.7580299000256,671.7580299000256,671.7580299000256,671.7580299000256,671.7580299000256,r,0.36420089984312654,672.1405356000178,672.1405356000178,672.1405356000178,672.1405356000178,672.1405356000178,672.1405356000178,672.4398477999493,672.4398477999493,673.5532381001394,673.5532381001394,673.5532381001394,673.5532381001394,673.5532381001394,673.5532381001394,673.5532381001394,673.5532381001394,673.5532381001394,673.5532381001394,673.5532381001394,673.5532381001394,673.5532381001394,673.5532381001394,673.5532381001394,673.5532381001394,673.5532381001394,676.0624446000438,676.0624446000438,676.0624446000438,676.0624446000438,676.0624446000438,39,28,64,57,39,55,3.0,1.2132338001392782,677.2921866001561,679.2539204000495,,,,,,,,,150,m,18,2023-04-05_11h10.38.135,RL,2022.2.4,59.943557079744096,
1,74,0,74,0,,,,,,,,,,None,679.2539204000495,679.2539204000495,679.2539204000495,679.2539204000495,679.2539204000495,679.2539204000495,i,0.5313047000672668,679.803370000096,679.803370000096,679.803370000096,679.803370000096,679.803370000096,679.803370000096,680.102101100143,680.102101100143,681.1490102000535,681.1490102000535,681.1490102000535,681.1490102000535,681.1490102000535,681.1490102000535,681.1490102000535,681.1490102000535,681.1490102000535,681.1490102000535,681.1490102000535,681.1490102000535,681.1490102000535,681.1490102000535,681.1490102000535,681.1490102000535,681.1490102000535,683.6582855000161,683.6582855000161,683.6582855000161,683.6582855000161,683.6582855000161,33,26,53,54,53,38,4.0,1.4786561999935657,685.1541353999637,686.9329925000202,,,,,,,,,150,m,18,2023-04-05_11h10.38.135,RL,2022.2.4,59.943557079744096,
1,75,0,75,0,,,,,,,,,,q,735.467465700116,735.467465700116,735.467465700116,735.467465700116,735.467465700116,735.467465700116,None,,,,,,,,,,,,,,,,,,,,,,,,,,,,,,,,41,20,60,59,0,**,None,None,741.483414700022,743.4288025000133,736.9830299001187,741.483414700022,686.9329925000202,686.9329925000202,48.50710300006904,,,,150,m,18,2023-04-05_11h10.38.135,RL,2022.2.4,59.943557079744096,
1,76,0,76,0,,,,,,,,,,None,743.4288025000133,743.4288025000133,743.4288025000133,743.4288025000133,743.4288025000133,743.4288025000133,r,0.3044819999486208,743.7616422001738,743.7616422001738,743.7616422001738,743.7616422001738,743.7616422001738,743.7616422001738,744.0607921001501,744.0607921001501,746.0385803000536,746.0385803000536,746.0385803000536,746.0385803000536,746.0385803000536,746.0385803000536,746.0385803000536,746.0385803000536,746.0385803000536,746.0385803000536,746.0385803000536,746.0385803000536,746.0385803000536,746.0385803000536,746.0385803000536,746.0385803000536,746.0385803000536,748.5474593001418,748.5474593001418,748.5474593001418,748.5474593001418,748.5474593001418,49,33,60,50,49,47,4.0,0.9786441000178456,749.5450818000827,751.207655900158,,,,,,,,,150,m,18,2023-04-05_11h10.38.135,RL,2022.2.4,59.943557079744096,
1,77,0,77,0,,,,,,,,,,None,751.207655900158,751.207655900158,751.207655900158,751.207655900158,751.207655900158,751.207655900158,r,0.33858340000733733,751.5736505000386,751.5736505000386,751.5736505000386,751.5736505000386,751.5736505000386,751.5736505000386,751.8728457000107,751.8728457000107,752.7871139000636,752.7871139000636,752.7871139000636,752.7871139000636,752.7871139000636,752.7871139000636,752.7871139000636,752.7871139000636,752.7871139000636,752.7871139000636,752.7871139000636,752.7871139000636,752.7871139000636,752.7871139000636,752.7871139000636,752.7871139000636,752.7871139000636,755.2961872001179,755.2961872001179,755.2961872001179,755.2961872001179,755.2961872001179,33,36,54,60,33,64,3.0,0.9465730998199433,756.2599913999438,757.922683800105,,,,,,,,,150,m,18,2023-04-05_11h10.38.135,RL,2022.2.4,59.943557079744096,
1,78,0,78,0,,,,,,,,,,None,757.922683800105,757.922683800105,757.922683800105,757.922683800105,757.922683800105,757.922683800105,i,0.39744749991223216,758.3410904000048,758.3410904000048,758.3410904000048,758.3410904000048,758.3410904000048,758.3410904000048,758.6378169001546,758.6378169001546,760.4326765001751,760.4326765001751,760.4326765001751,760.4326765001751,760.4326765001751,760.4326765001751,760.4158622999676,760.4158622999676,760.4326765001751,760.4326765001751,760.4326765001751,760.4326765001751,760.4326765001751,760.4326765001751,760.4326765001751,760.4326765001751,760.4326765001751,762.9417769999709,762.9417769999709,762.9417769999709,762.9417769999709,762.9417769999709,43,38,58,57,58,27,5.0,0.8636494998354465,763.8227966001723,765.618410800118,,,,,,,,,150,m,18,2023-04-05_11h10.38.135,RL,2022.2.4,59.943557079744096,
1,79,0,79,0,,,,,,,,,,None,765.618410800118,765.618410800118,765.618410800118,765.618410800118,765.618410800118,765.618410800118,i,0.4647641000337899,766.101181200007,766.101181200007,766.101181200007,766.101181200007,766.101181200007,766.101181200007,766.3999855001457,766.3999855001457,767.2308271001093,767.2308271001093,767.2308271001093,767.2308271001093,767.2308271001093,767.2308271001093,767.2308271001093,767.2308271001093,767.2308271001093,767.2308271001093,767.2308271001093,767.2308271001093,767.2308271001093,767.2308271001093,767.2308271001093,767.2308271001093,767.2308271001093,769.7402460000012,769.7402460000012,769.7402460000012,769.7402460000012,769.7402460000012,46,38,55,63,55,80,3.0,0.8136186001356691,770.5710948000196,772.3997222001199,,,,,,,,,150,m,18,2023-04-05_11h10.38.135,RL,2022.2.4,59.943557079744096,
1,80,0,80,0,,,,,,,,,,None,772.3997222001199,772.3997222001199,772.3997222001199,772.3997222001199,772.3997222001199,772.3997222001199,i,0.4432528999168426,772.8658019001596,772.8658019001596,772.8658019001596,772.8658019001596,772.8658019001596,772.8658019001596,773.1647781000938,773.1647781000938,774.7768862000667,774.7768862000667,774.7768862000667,774.7768862000667,774.7768862000667,774.7768862000667,774.7768862000667,774.7768862000667,774.7768862000667,774.7768862000667,774.7768862000667,774.7768862000667,774.7768862000667,774.7768862000667,774.7768862000667,774.7768862000667,774.7768862000667,777.2859920000192,777.2859920000192,777.2859920000192,777.2859920000192,777.2859920000192,49,36,54,58,54,84,3.0,1.1289465997833759,778.4329623000231,780.2951169000007,,,,,,,,,150,m,18,2023-04-05_11h10.38.135,RL,2022.2.4,59.943557079744096,
1,81,0,81,0,,,,,,,,,,None,780.2951169000007,780.2951169000007,780.2951169000007,780.2951169000007,780.2951169000007,780.2951169000007,f,0.6505074999295175,780.9776357000228,780.9776357000228,780.9776357000228,780.9776357000228,780.9776357000228,780.9776357000228,781.2760493000969,781.2760493000969,782.5558774999809,782.5558774999809,782.5558774999809,782.5558774999809,782.5558774999809,782.5558774999809,782.5558774999809,782.5558774999809,782.5558774999809,782.5558774999809,782.5558774999809,782.5558774999809,782.5558774999809,782.5558774999809,782.5558774999809,782.5558774999809,782.5558774999809,785.0647184001282,785.0647184001282,785.0647184001282,785.0647184001282,785.0647184001282,38,27,60,54,27,84,2.0,1.6942189999390393,786.7765252999961,788.5559229000937,,,,,,,,,150,m,18,2023-04-05_11h10.38.135,RL,2022.2.4,59.943557079744096,
1,82,0,82,0,,,,,,,,,,None,788.5559229000937,788.5559229000937,788.5559229000937,788.5559229000937,788.5559229000937,788.5559229000937,f,0.48732830001972616,789.0726658001076,789.0726658001076,789.0726658001076,789.0726658001076,789.0726658001076,789.0726658001076,789.3703461000696,789.3703461000696,791.3646829000209,791.3646829000209,791.3646829000209,791.3646829000209,791.3646829000209,791.3646829000209,791.3646829000209,791.3646829000209,791.3646829000209,791.3646829000209,791.3646829000209,791.3646829000209,791.3646829000209,791.3646829000209,791.3646829000209,791.3646829000209,791.3646829000209,793.8740930999629,793.8740930999629,793.8740930999629,793.8740930999629,793.8740930999629,43,35,60,65,35,80,3.0,1.195435400120914,795.0872891000472,796.9828775001224,,,,,,,,,150,m,18,2023-04-05_11h10.38.135,RL,2022.2.4,59.943557079744096,
1,83,0,83,0,,,,,,,,,,None,796.9828775001224,796.9828775001224,796.9828775001224,796.9828775001224,796.9828775001224,796.9828775001224,i,0.39293759991414845,797.3987684999593,797.3987684999593,797.3987684999593,797.3987684999593,797.3987684999593,797.3987684999593,797.697905600071,797.697905600071,798.8779170000926,798.8779170000926,798.8779170000926,798.8779170000926,798.8779170000926,798.8779170000926,798.8779170000926,798.8779170000926,798.8779170000926,798.8779170000926,798.8779170000926,798.8779170000926,798.8779170000926,798.8779170000926,798.8779170000926,798.8779170000926,798.8779170000926,801.3870067000389,801.3870067000389,801.3870067000389,801.3870067000389,801.3870067000389,50,34,57,73,57,39,4.0,1.7276804998982698,803.1321722001303,804.6451777999755,,,,,,,,,150,m,18,2023-04-05_11h10.38.135,RL,2022.2.4,59.943557079744096,
1,84,0,84,0,,,,,,,,,,None,804.6451777999755,804.6451777999755,804.6451777999755,804.6451777999755,804.6451777999755,804.6451777999755,i,0.7428177001420408,805.4104518000968,805.4104518000968,805.4104518000968,805.4104518000968,805.4104518000968,805.4104518000968,805.7094225999899,805.7094225999899,807.3048634000588,807.3048634000588,807.3048634000588,807.3048634000588,807.3048634000588,807.3048634000588,807.3048634000588,807.3048634000588,807.3048634000588,807.3048634000588,807.3048634000588,807.3048634000588,807.3048634000588,807.3048634000588,807.3048634000588,807.3048634000588,807.3048634000588,809.8140629001427,809.8140629001427,809.8140629001427,809.8140629001427,809.8140629001427,38,35,61,79,61,34,4.0,0.9468569001182914,810.7780552001204,812.6566961000208,,,,,,,,,150,m,18,2023-04-05_11h10.38.135,RL,2022.2.4,59.943557079744096,
1,85,0,85,0,,,,,,,,,,None,812.6566961000208,812.6566961000208,812.6566961000208,812.6566961000208,812.6566961000208,812.6566961000208,i,0.554275400005281,813.2401108001359,813.2401108001359,813.2401108001359,813.2401108001359,813.2401108001359,813.2401108001359,813.537730500102,813.537730500102,815.499300400028,815.499300400028,815.499300400028,815.499300400028,815.499300400028,815.499300400028,815.499300400028,815.499300400028,815.499300400028,815.499300400028,815.499300400028,815.499300400028,815.499300400028,815.499300400028,815.499300400028,815.499300400028,815.499300400028,818.0079505001195,818.0079505001195,818.0079505001195,818.0079505001195,818.0079505001195,40,29,59,71,59,92,3.0,1.6620288998819888,819.6871764000971,821.2994932001457,,,,,,,,,150,m,18,2023-04-05_11h10.38.135,RL,2022.2.4,59.943557079744096,
1,86,0,86,0,,,,,,,,,,None,821.2994932001457,821.2994932001457,821.2994932001457,821.2994932001457,821.2994932001457,821.2994932001457,i,0.7742846999317408,822.1005973001011,822.1005973001011,822.1005973001011,822.1005973001011,822.1005973001011,822.1005973001011,822.3967611000407,822.3967611000407,824.1423174999654,824.1423174999654,824.1423174999654,824.1423174999654,824.1423174999654,824.1423174999654,824.1423174999654,824.1423174999654,824.1423174999654,824.1423174999654,824.1423174999654,824.1423174999654,824.1423174999654,824.1423174999654,824.1423174999654,824.1423174999654,824.1423174999654,826.6511929000262,826.6511929000262,826.6511929000262,826.6511929000262,826.6511929000262,42,38,57,74,57,47,5.0,1.7771662999875844,828.4464211999439,830.3085044000763,,,,,,,,,150,m,18,2023-04-05_11h10.38.135,RL,2022.2.4,59.943557079744096,
1,87,0,87,0,,,,,,,,,,None,830.3085044000763,830.3085044000763,830.3085044000763,830.3085044000763,830.3085044000763,830.3085044000763,i,0.32767000002786517,830.6579726000782,830.6579726000782,830.6579726000782,830.6579726000782,830.6579726000782,830.6579726000782,830.9568495999556,830.9568495999556,831.8214298000094,831.8214298000094,831.8214298000094,831.8214298000094,831.8214298000094,831.8214298000094,831.8214298000094,831.8214298000094,831.8214298000094,831.8214298000094,831.8214298000094,831.8214298000094,831.8214298000094,831.8214298000094,831.8214298000094,831.8214298000094,831.8214298000094,834.3306080000475,834.3306080000475,834.3306080000475,834.3306080000475,834.3306080000475,41,40,53,68,53,85,3.0,1.494953699875623,835.843069500057,837.6718953000382,,,,,,,,,150,m,18,2023-04-05_11h10.38.135,RL,2022.2.4,59.943557079744096,
1,88,0,88,0,,,,,,,,,,None,837.6718953000382,837.6718953000382,837.6718953000382,837.6718953000382,837.6718953000382,837.6718953000382,i,0.2933328999206424,837.9883469000924,837.9883469000924,837.9883469000924,837.9883469000924,837.9883469000924,837.9883469000924,838.2871783000883,838.2871783000883,840.0655990999658,840.0655990999658,840.0655990999658,840.0655990999658,840.0655990999658,840.0655990999658,840.0655990999658,840.0655990999658,840.0655990999658,840.0655990999658,840.0655990999658,840.0655990999658,840.0655990999658,840.0655990999658,840.0655990999658,840.0655990999658,840.0655990999658,842.5748074001167,842.5748074001167,842.5748074001167,842.5748074001167,842.5748074001167,47,41,52,63,52,87,3.0,1.0466588998679072,843.6379597999621,845.3841969999485,,,,,,,,,150,m,18,2023-04-05_11h10.38.135,RL,2022.2.4,59.943557079744096,
1,89,0,89,0,,,,,,,,,,None,845.3841969999485,845.3841969999485,845.3841969999485,845.3841969999485,845.3841969999485,845.3841969999485,f,0.5937073999084532,845.9996638000011,845.9996638000011,845.9996638000011,845.9996638000011,845.9996638000011,845.9996638000011,846.2983032001648,846.2983032001648,847.9940724000335,847.9940724000335,847.9940724000335,847.9940724000335,847.9940724000335,847.9940724000335,847.9940724000335,847.9940724000335,847.9940724000335,847.9940724000335,847.9940724000335,847.9940724000335,847.9940724000335,847.9940724000335,847.9940724000335,847.9940724000335,847.9940724000335,850.5030263999943,850.5030263999943,850.5030263999943,850.5030263999943,850.5030263999943,53,46,44,63,46,60,3.0,1.5781013001687825,852.0987219000235,854.0768918001559,,,,,,,,,150,m,18,2023-04-05_11h10.38.135,RL,2022.2.4,59.943557079744096,
1,90,0,90,0,,,,,,,,,,None,854.0768918001559,854.0768918001559,854.0768918001559,854.0768918001559,854.0768918001559,854.0768918001559,j,0.6123500000685453,854.7090606000274,854.7090606000274,854.7090606000274,854.7090606000274,854.7090606000274,854.7090606000274,855.0078787000384,855.0078787000384,855.9221811001189,855.9221811001189,855.9221811001189,855.9221811001189,855.9221811001189,855.9221811001189,855.9221811001189,855.9221811001189,855.9221811001189,855.9221811001189,855.9221811001189,855.9221811001189,855.9221811001189,855.9221811001189,855.9221811001189,855.9221811001189,855.9221811001189,858.4313181000762,858.4313181000762,858.4313181000762,858.4313181000762,858.4313181000762,39,43,54,52,52,76,3.0,2.1438424999359995,860.5921756001189,862.3544751000591,,,,,,,,,150,m,18,2023-04-05_11h10.38.135,RL,2022.2.4,59.943557079744096,
1,91,0,91,0,,,,,,,,,,None,862.3544751000591,862.3544751000591,862.3544751000591,862.3544751000591,862.3544751000591,862.3544751000591,i,0.547091200016439,862.9232463000808,862.9232463000808,862.9232463000808,862.9232463000808,862.9232463000808,862.9232463000808,863.2188510000706,863.2188510000706,864.6319083999842,864.6319083999842,864.6319083999842,864.6319083999842,864.6319083999842,864.6319083999842,864.6319083999842,864.6319083999842,864.6319083999842,864.6319083999842,864.6319083999842,864.6319083999842,864.6319083999842,864.6319083999842,864.6319083999842,864.6319083999842,864.6319083999842,867.1406048999634,867.1406048999634,867.1406048999634,867.1406048999634,867.1406048999634,50,37,52,51,52,67,2.0,1.4785247999243438,868.6368683001492,870.2329414000269,,,,,,,,,150,m,18,2023-04-05_11h10.38.135,RL,2022.2.4,59.943557079744096,
1,92,0,92,0,,,,,,,,,,None,870.2329414000269,870.2329414000269,870.2329414000269,870.2329414000269,870.2329414000269,870.2329414000269,j,0.7766420999541879,871.032359899953,871.032359899953,871.032359899953,871.032359899953,871.032359899953,871.032359899953,871.3303259001113,871.3303259001113,872.2443874001037,872.2443874001037,872.2443874001037,872.2443874001037,872.2443874001037,872.2443874001037,872.2443874001037,872.2443874001037,872.2443874001037,872.2443874001037,872.2443874001037,872.2443874001037,872.2443874001037,872.2443874001037,872.2443874001037,872.2443874001037,872.2443874001037,874.7536296001635,874.7536296001635,874.7536296001635,874.7536296001635,874.7536296001635,46,49,52,56,56,57,4.0,1.5120644001290202,876.2826757000294,878.277753500035,,,,,,,,,150,m,18,2023-04-05_11h10.38.135,RL,2022.2.4,59.943557079744096,
1,93,0,93,0,,,,,,,,,,None,878.277753500035,878.277753500035,878.277753500035,878.277753500035,878.277753500035,878.277753500035,i,0.5401401999406517,878.8442452000454,878.8442452000454,878.8442452000454,878.8442452000454,878.8442452000454,878.8442452000454,879.142234200146,879.142234200146,880.9872616000939,880.9872616000939,880.9872616000939,880.9872616000939,880.9872616000939,880.9872616000939,880.9872616000939,880.9872616000939,880.9872616000939,880.9872616000939,880.9872616000939,880.9872616000939,880.9872616000939,880.9872616000939,880.9872616000939,880.9872616000939,880.9872616000939,883.4964016999584,883.4964016999584,883.4964016999584,883.4964016999584,883.4964016999584,45,46,49,43,49,81,3.0,1.262832400156185,884.7760777999647,886.5218724999577,,,,,,,,,150,m,18,2023-04-05_11h10.38.135,RL,2022.2.4,59.943557079744096,
1,94,0,94,0,,,,,,,,,,None,886.5218724999577,886.5218724999577,886.5218724999577,886.5218724999577,886.5218724999577,886.5218724999577,r,0.3531452000606805,886.9055670001544,886.9055670001544,886.9055670001544,886.9055670001544,886.9055670001544,886.9055670001544,887.2037075001281,887.2037075001281,888.882251100149,888.882251100149,888.882251100149,888.882251100149,888.882251100149,888.882251100149,888.882251100149,888.882251100149,888.882251100149,888.882251100149,888.882251100149,888.882251100149,888.882251100149,888.882251100149,888.882251100149,888.882251100149,888.882251100149,891.3914161000866,891.3914161000866,891.3914161000866,891.3914161000866,891.3914161000866,49,42,48,68,49,87,2.0,0.913884999928996,892.3220637999475,894.1011827001348,,,,,,,,,150,m,18,2023-04-05_11h10.38.135,RL,2022.2.4,59.943557079744096,
1,95,0,95,0,,,,,,,,,,None,894.1011827001348,894.1011827001348,894.1011827001348,894.1011827001348,894.1011827001348,894.1011827001348,r,0.4084467999637127,894.5335969000589,894.5335969000589,894.5335969000589,894.5335969000589,894.5335969000589,894.5335969000589,894.8325106000993,894.8325106000993,896.4946238000412,896.4946238000412,896.4946238000412,896.4946238000412,896.4946238000412,896.4946238000412,896.4946238000412,896.4946238000412,896.4946238000412,896.4946238000412,896.4946238000412,896.4946238000412,896.4946238000412,896.4946238000412,896.4946238000412,896.4946238000412,896.4946238000412,899.0040045999922,899.0040045999922,899.0040045999922,899.0040045999922,899.0040045999922,41,40,38,53,41,80,3.0,2.19334840006195,901.2146489999723,902.8439644000027,,,,,,,,,150,m,18,2023-04-05_11h10.38.135,RL,2022.2.4,59.943557079744096,
1,96,0,96,0,,,,,,,,,,None,902.8439644000027,902.8439644000027,902.8439644000027,902.8439644000027,902.8439644000027,902.8439644000027,r,0.6165242998395115,903.4926222001668,903.4926222001668,903.4926222001668,903.4926222001668,903.4926222001668,903.4926222001668,903.791719699977,903.791719699977,905.2042882000096,905.2042882000096,905.2042882000096,905.2042882000096,905.2042882000096,905.2042882000096,905.2042882000096,905.2042882000096,905.2042882000096,905.2042882000096,905.2042882000096,905.2042882000096,905.2042882000096,905.2042882000096,905.2042882000096,905.2042882000096,905.2042882000096,907.713487100089,907.713487100089,907.713487100089,907.713487100089,907.713487100089,49,40,29,66,49,77,3.0,1.5947191999293864,909.3257765001617,911.2043159001041,,,,,,,,,150,m,18,2023-04-05_11h10.38.135,RL,2022.2.4,59.943557079744096,
1,97,0,97,0,,,,,,,,,,None,911.2043159001041,911.2043159001041,911.2043159001041,911.2043159001041,911.2043159001041,911.2043159001041,i,0.423521300079301,911.6547552000266,911.6547552000266,911.6547552000266,911.6547552000266,911.6547552000266,911.6547552000266,911.9526881000493,911.9526881000493,913.3488078000955,913.3488078000955,913.3488078000955,913.3488078000955,913.3488078000955,913.3488078000955,913.3488078000955,913.3488078000955,913.3488078000955,913.3488078000955,913.3488078000955,913.3488078000955,913.3488078000955,913.3488078000955,913.3488078000955,913.3488078000955,913.3488078000955,915.8581284000538,915.8581284000538,915.8581284000538,915.8581284000538,915.8581284000538,43,43,37,66,37,54,3.0,0.8467238999437541,916.72237520013,918.6341334001627,,,,,,,,,150,m,18,2023-04-05_11h10.38.135,RL,2022.2.4,59.943557079744096,
1,98,0,98,0,,,,,,,,,,None,918.6341334001627,918.6341334001627,918.6341334001627,918.6341334001627,918.6341334001627,918.6341334001627,f,0.8809098000638187,919.5335574001074,919.5335574001074,919.5335574001074,919.5335574001074,919.5335574001074,919.5335574001074,919.8313283000607,919.8313283000607,921.3435943999793,921.3435943999793,921.3435943999793,921.3435943999793,921.3435943999793,921.3435943999793,921.3435943999793,921.3435943999793,921.3435943999793,921.3435943999793,921.3435943999793,921.3435943999793,921.3435943999793,921.3435943999793,921.3435943999793,921.3435943999793,921.3435943999793,923.8526682001539,923.8526682001539,923.8526682001539,923.8526682001539,923.8526682001539,35,45,35,61,45,73,2.0,0.9799353000707924,924.8501157001592,926.4628245001659,,,,,,,,,150,m,18,2023-04-05_11h10.38.135,RL,2022.2.4,59.943557079744096,
1,99,0,99,0,,,,,,,,,,None,926.4628245001659,926.4628245001659,926.4628245001659,926.4628245001659,926.4628245001659,926.4628245001659,j,1.114682300016284,927.610710500041,927.610710500041,927.610710500041,927.610710500041,927.610710500041,927.610710500041,927.9090083001647,927.9090083001647,928.9894712001551,928.9894712001551,928.9894712001551,928.9894712001551,928.9894712001551,928.9894712001551,928.9894712001551,928.9894712001551,928.9894712001551,928.9894712001551,928.9894712001551,928.9894712001551,928.9894712001551,928.9894712001551,928.9894712001551,928.9894712001551,928.9894712001551,931.4982334000524,931.4982334000524,931.4982334000524,931.4982334000524,931.4982334000524,40,39,41,67,67,75,3.0,0.9800490001216531,932.4956582000013,934.0588082000613,,,,,,,,,150,m,18,2023-04-05_11h10.38.135,RL,2022.2.4,59.943557079744096,
1,100,0,100,0,,,,,,,,,,None,934.0588082000613,934.0588082000613,934.0588082000613,934.0588082000613,934.0588082000613,934.0588082000613,i,1.27704990003258,935.357015500078,935.357015500078,935.357015500078,935.357015500078,935.357015500078,935.357015500078,935.6543805999681,935.6543805999681,936.6353512001224,936.6353512001224,936.6353512001224,936.6353512001224,936.6353512001224,936.6353512001224,936.6353512001224,936.6353512001224,936.6353512001224,936.6353512001224,936.6353512001224,936.6353512001224,936.6353512001224,936.6353512001224,936.6353512001224,936.6353512001224,936.6353512001224,939.1446724999696,939.1446724999696,939.1446724999696,939.1446724999696,939.1446724999696,37,30,46,56,46,77,3.0,1.727631599875167,940.8894213000312,942.6187764999922,,,,,,,,,150,m,18,2023-04-05_11h10.38.135,RL,2022.2.4,59.943557079744096,
1,101,0,101,0,,,,,,,,,,None,942.6187764999922,942.6187764999922,942.6187764999922,942.6187764999922,942.6187764999922,942.6187764999922,i,0.7399298001546413,943.3836308999453,943.3836308999453,943.3836308999453,943.3836308999453,943.3836308999453,943.3836308999453,943.682820700109,943.682820700109,945.3613233000506,945.3613233000506,945.3613233000506,945.3613233000506,945.3613233000506,945.3613233000506,945.3613233000506,945.3613233000506,945.3613233000506,945.3613233000506,945.3613233000506,945.3613233000506,945.3613233000506,945.3613233000506,945.3613233000506,945.3613233000506,945.3613233000506,947.8706196001731,947.8706196001731,947.8706196001731,947.8706196001731,947.8706196001731,41,29,47,54,47,84,3.0,2.2266287999227643,950.114192900015,951.9765075000469,,,,,,,,,150,m,18,2023-04-05_11h10.38.135,RL,2022.2.4,59.943557079744096,
1,102,0,102,0,,,,,,,,,,None,951.9765075000469,951.9765075000469,951.9765075000469,951.9765075000469,951.9765075000469,951.9765075000469,i,0.948371300008148,952.9590193999466,952.9590193999466,952.9590193999466,952.9590193999466,952.9590193999466,952.9590193999466,953.2563975001685,953.2563975001685,954.8021150000859,954.8021150000859,954.8021150000859,954.8021150000859,954.8021150000859,954.8021150000859,954.8021150000859,954.8021150000859,954.8021150000859,954.8021150000859,954.8021150000859,954.8021150000859,954.8021150000859,954.8021150000859,954.8021150000859,954.8021150000859,954.8021150000859,957.3115908000618,957.3115908000618,957.3115908000618,957.3115908000618,957.3115908000618,41,44,43,52,43,79,3.0,1.4782308000139892,958.8074988001026,960.8023218000308,,,,,,,,,150,m,18,2023-04-05_11h10.38.135,RL,2022.2.4,59.943557079744096,
1,103,0,103,0,,,,,,,,,,None,960.8023218000308,960.8023218000308,960.8023218000308,960.8023218000308,960.8023218000308,960.8023218000308,i,0.9792822999879718,961.800858899951,961.800858899951,961.800858899951,961.800858899951,961.800858899951,961.800858899951,962.099405700108,962.099405700108,963.279300400056,963.279300400056,963.279300400056,963.279300400056,963.279300400056,963.279300400056,963.2624578999821,963.2624578999821,963.279300400056,963.279300400056,963.279300400056,963.279300400056,963.279300400056,963.279300400056,963.279300400056,963.279300400056,963.279300400056,965.7883775001392,965.7883775001392,965.7883775001392,965.7883775001392,965.7883775001392,45,40,38,47,38,66,3.0,1.644752599997446,967.4501798001584,969.1630267000291,,,,,,,,,150,m,18,2023-04-05_11h10.38.135,RL,2022.2.4,59.943557079744096,
1,104,0,104,0,,,,,,,,,,None,969.1630267000291,969.1630267000291,969.1630267000291,969.1630267000291,969.1630267000291,969.1630267000291,f,1.1011794998776168,970.2936456000898,970.2936456000898,970.2936456000898,970.2936456000898,970.2936456000898,970.2936456000898,970.5927170000505,970.5927170000505,972.1880994001403,972.1880994001403,972.1880994001403,972.1880994001403,972.1880994001403,972.1880994001403,972.1880994001403,972.1880994001403,972.1880994001403,972.1880994001403,972.1880994001403,972.1880994001403,972.1880994001403,972.1880994001403,972.1880994001403,972.1880994001403,972.1880994001403,974.6971086000558,974.6971086000558,974.6971086000558,974.6971086000558,974.6971086000558,46,40,42,56,40,66,3.0,1.3624083001632243,976.0770596000366,977.8722630999982,,,,,,,,,150,m,18,2023-04-05_11h10.38.135,RL,2022.2.4,59.943557079744096,
1,105,0,105,0,,,,,,,,,,None,977.8722630999982,977.8722630999982,977.8722630999982,977.8722630999982,977.8722630999982,977.8722630999982,r,0.9630813000258058,978.8546148000751,978.8546148000751,978.8546148000751,978.8546148000751,978.8546148000751,978.8546148000751,979.1525828000158,979.1525828000158,979.9834794001654,979.9834794001654,979.9834794001654,979.9834794001654,979.9834794001654,979.9834794001654,979.967045500176,979.967045500176,979.9834794001654,979.9834794001654,979.9834794001654,979.9834794001654,979.9834794001654,979.9834794001654,979.9834794001654,979.9834794001654,979.9834794001654,982.4929208999965,982.4929208999965,982.4929208999965,982.4929208999965,982.4929208999965,46,46,48,52,46,73,3.0,1.8603380001150072,984.3709869999439,986.166497200029,,,,,,,,,150,m,18,2023-04-05_11h10.38.135,RL,2022.2.4,59.943557079744096,
1,106,0,106,0,,,,,,,,,,None,986.166497200029,986.166497200029,986.166497200029,986.166497200029,986.166497200029,986.166497200029,j,1.1060279000084847,987.2985627001617,987.2985627001617,987.2985627001617,987.2985627001617,987.2985627001617,987.2985627001617,987.5962793000508,987.5962793000508,989.1086804999504,989.1086804999504,989.1086804999504,989.1086804999504,989.1086804999504,989.1086804999504,989.1086804999504,989.1086804999504,989.1086804999504,989.1086804999504,989.1086804999504,989.1086804999504,989.1086804999504,989.1086804999504,989.1086804999504,989.1086804999504,989.1086804999504,991.6179605000652,991.6179605000652,991.6179605000652,991.6179605000652,991.6179605000652,52,35,34,62,62,30,5.0,1.146373299881816,992.7813214999624,994.7763207999524,,,,,,,,,150,m,18,2023-04-05_11h10.38.135,RL,2022.2.4,59.943557079744096,
1,107,0,107,0,,,,,,,,,,None,994.7763207999524,994.7763207999524,994.7763207999524,994.7763207999524,994.7763207999524,994.7763207999524,j,1.228281500050798,996.0233511000406,996.0233511000406,996.0233511000406,996.0233511000406,996.0233511000406,996.0233511000406,996.3223206000403,996.3223206000403,997.2193966000341,997.2193966000341,997.2193966000341,997.2193966000341,997.2193966000341,997.2193966000341,997.2193966000341,997.2193966000341,997.2193966000341,997.2193966000341,997.2193966000341,997.2193966000341,997.2193966000341,997.2193966000341,997.2193966000341,997.2193966000341,997.2193966000341,999.7291872000787,999.7291872000787,999.7291872000787,999.7291872000787,999.7291872000787,55,38,29,51,51,30,4.0,1.4448532001115382,1001.191448100144,1002.8378735999577,,,,,,,,,150,m,18,2023-04-05_11h10.38.135,RL,2022.2.4,59.943557079744096,
1,108,0,108,0,,,,,,,,,,None,1002.8378735999577,1002.8378735999577,1002.8378735999577,1002.8378735999577,1002.8378735999577,1002.8378735999577,j,1.1201440000440925,1003.9859317999799,1003.9859317999799,1003.9859317999799,1003.9859317999799,1003.9859317999799,1003.9859317999799,1004.2839629000518,1004.2839629000518,1006.0957635000814,1006.0957635000814,1006.0957635000814,1006.0957635000814,1006.0957635000814,1006.0957635000814,1006.0957635000814,1006.0957635000814,1006.0957635000814,1006.0957635000814,1006.0957635000814,1006.0957635000814,1006.0957635000814,1006.0957635000814,1006.0957635000814,1006.0957635000814,1006.0957635000814,1008.6047639001627,1008.6047639001627,1008.6047639001627,1008.6047639001627,1008.6047639001627,49,40,31,45,45,80,3.0,1.312574899988249,1009.9345497000031,1011.7300452999771,,,,,,,,,150,m,18,2023-04-05_11h10.38.135,RL,2022.2.4,59.943557079744096,
1,109,0,109,0,,,,,,,,,,None,1011.7300452999771,1011.7300452999771,1011.7300452999771,1011.7300452999771,1011.7300452999771,1011.7300452999771,r,1.3349880001042038,1013.09479620005,1013.09479620005,1013.09479620005,1013.09479620005,1013.09479620005,1013.09479620005,1013.3923136000521,1013.3923136000521,1014.4396441001445,1014.4396441001445,1014.4396441001445,1014.4396441001445,1014.4396441001445,1014.4396441001445,1014.4396441001445,1014.4396441001445,1014.4396441001445,1014.4396441001445,1014.4396441001445,1014.4396441001445,1014.4396441001445,1014.4396441001445,1014.4396441001445,1014.4396441001445,1014.4396441001445,1016.9486410999671,1016.9486410999671,1016.9486410999671,1016.9486410999671,1016.9486410999671,44,40,47,48,44,32,4.0,1.478740599937737,1018.4446060999762,1020.0240027001128,,,,,,,,,150,m,18,2023-04-05_11h10.38.135,RL,2022.2.4,59.943557079744096,
1,110,0,110,0,,,,,,,,,,None,1020.0240027001128,1020.0240027001128,1020.0240027001128,1020.0240027001128,1020.0240027001128,1020.0240027001128,f,1.0135134998708963,1021.0550472999457,1021.0550472999457,1021.0550472999457,1021.0550472999457,1021.0550472999457,1021.0550472999457,1021.354149900144,1021.354149900144,1022.9997551999986,1022.9997551999986,1022.9997551999986,1022.9997551999986,1022.9997551999986,1022.9997551999986,1022.9997551999986,1022.9997551999986,1022.9997551999986,1022.9997551999986,1022.9997551999986,1022.9997551999986,1022.9997551999986,1022.9997551999986,1022.9997551999986,1022.9997551999986,1022.9997551999986,1025.508781600045,1025.508781600045,1025.508781600045,1025.508781600045,1025.508781600045,42,37,39,44,37,74,2.0,1.428505300078541,1026.9548299999442,1028.9495443000924,,,,,,,,,150,m,18,2023-04-05_11h10.38.135,RL,2022.2.4,59.943557079744096,
1,111,0,111,0,,,,,,,,,,None,1028.9495443000924,1028.9495443000924,1028.9495443000924,1028.9495443000924,1028.9495443000924,1028.9495443000924,i,1.0359157000202686,1030.016122699948,1030.016122699948,1030.016122699948,1030.016122699948,1030.016122699948,1030.016122699948,1030.3129170001484,1030.3129170001484,1032.0250930001494,1032.0250930001494,1032.0250930001494,1032.0250930001494,1032.0250930001494,1032.0250930001494,1032.0250930001494,1032.0250930001494,1032.0250930001494,1032.0250930001494,1032.0250930001494,1032.0250930001494,1032.0250930001494,1032.0250930001494,1032.0250930001494,1032.0250930001494,1032.0250930001494,1034.5337984999642,1034.5337984999642,1034.5337984999642,1034.5337984999642,1034.5337984999642,47,36,40,47,40,39,5.0,1.145914499880746,1035.6973817001563,1037.5098008001223,,,,,,,,,150,m,18,2023-04-05_11h10.38.135,RL,2022.2.4,59.943557079744096,
1,112,0,112,0,,,,,,,,,,None,1037.5098008001223,1037.5098008001223,1037.5098008001223,1037.5098008001223,1037.5098008001223,1037.5098008001223,r,1.3372068000026047,1038.8730761001352,1038.8730761001352,1038.8730761001352,1038.8730761001352,1038.8730761001352,1038.8730761001352,1039.1718683000654,1039.1718683000654,1040.0692666000687,1040.0692666000687,1040.0692666000687,1040.0692666000687,1040.0692666000687,1040.0692666000687,1040.0692666000687,1040.0692666000687,1040.0692666000687,1040.0692666000687,1040.0692666000687,1040.0692666000687,1040.0692666000687,1040.0692666000687,1040.0692666000687,1040.0692666000687,1040.0692666000687,1042.5786301000044,1042.5786301000044,1042.5786301000044,1042.5786301000044,1042.5786301000044,51,32,42,44,51,83,3.0,1.9276467999443412,1044.5234217001125,1046.385677400045,,,,,,,,,150,m,18,2023-04-05_11h10.38.135,RL,2022.2.4,59.943557079744096,
1,113,0,113,0,,,,,,,,,,None,1046.385677400045,1046.385677400045,1046.385677400045,1046.385677400045,1046.385677400045,1046.385677400045,j,1.1627336998935789,1047.5664093999658,1047.5664093999658,1047.5664093999658,1047.5664093999658,1047.5664093999658,1047.5664093999658,1047.865253600059,1047.865253600059,1049.7599586001597,1049.7599586001597,1049.7599586001597,1049.7599586001597,1049.7599586001597,1049.7599586001597,1049.7599586001597,1049.7599586001597,1049.7599586001597,1049.7599586001597,1049.7599586001597,1049.7599586001597,1049.7599586001597,1049.7599586001597,1049.7599586001597,1049.7599586001597,1049.7599586001597,1052.2690991000272,1052.2690991000272,1052.2690991000272,1052.2690991000272,1052.2690991000272,44,32,50,55,55,38,3.0,1.3624680999200791,1053.6483171000145,1055.610175800044,,,,,,,,,150,m,18,2023-04-05_11h10.38.135,RL,2022.2.4,59.943557079744096,
1,114,0,114,0,,,,,,,,,,None,1055.610175800044,1055.610175800044,1055.610175800044,1055.610175800044,1055.610175800044,1055.610175800044,f,1.1648923999164253,1056.8077247999609,1056.8077247999609,1056.8077247999609,1056.8077247999609,1056.8077247999609,1056.8077247999609,1057.1063240000512,1057.1063240000512,1058.3200279001612,1058.3200279001612,1058.3200279001612,1058.3200279001612,1058.3200279001612,1058.3200279001612,1058.3200279001612,1058.3200279001612,1058.3200279001612,1058.3200279001612,1058.3200279001612,1058.3200279001612,1058.3200279001612,1058.3200279001612,1058.3200279001612,1058.3200279001612,1058.3200279001612,1060.8290135001298,1060.8290135001298,1060.8290135001298,1060.8290135001298,1060.8290135001298,40,34,53,49,34,89,2.0,1.910852100001648,1062.7570039001293,1064.65244360012,,,,,,,,,150,m,18,2023-04-05_11h10.38.135,RL,2022.2.4,59.943557079744096,
1,115,0,115,0,,,,,,,,,,None,1064.65244360012,1064.65244360012,1064.65244360012,1064.65244360012,1064.65244360012,1064.65244360012,r,0.9751122000161558,1065.6515304001514,1065.6515304001514,1065.6515304001514,1065.6515304001514,1065.6515304001514,1065.6515304001514,1065.9490130001213,1065.9490130001213,1066.9131985001732,1066.9131985001732,1066.9131985001732,1066.9131985001732,1066.9131985001732,1066.9131985001732,1066.9131985001732,1066.9131985001732,1066.9131985001732,1066.9131985001732,1066.9131985001732,1066.9131985001732,1066.9131985001732,1066.9131985001732,1066.9131985001732,1066.9131985001732,1066.9131985001732,1069.4222967999522,1069.4222967999522,1069.4222967999522,1069.4222967999522,1069.4222967999522,51,34,48,53,51,42,4.0,1.4618023000657558,1070.9013929001521,1072.6805835999548,,,,,,,,,150,m,18,2023-04-05_11h10.38.135,RL,2022.2.4,59.943557079744096,
