bandit,trials.thisRepN,trials.thisTrialN,trials.thisN,trials.thisIndex,instru_img1.started,instru_resp.started,instru_resp.keys,instru_resp.rt,instru_img2.started,instru_resp2.started,instru_resp2.keys,instru_resp2.rt,fixbefore_2.started,rest_response.keys,red.started,green.started,yellow.started,blue.started,choose_bandit.started,Fixation.started,choose_bandit.keys,choose_bandit.rt,black.started,red_2.started,green_2.started,yellow_2.started,blue_2.started,fixation_2.started,docs.started,image_2.started,docs.stopped,image_2.stopped,black.stopped,red_2.stopped,green_2.stopped,yellow_2.stopped,blue_2.stopped,fixation_2.stopped,black_com.started,reward_sub.started,palyerb.started,reward__sub.started,compare.started,red_compare.started,green_com.started,yellow_com.started,blue_com.started,image_3.started,slider.started,text.started,image_4.started,image_5.started,rewardyellow,rewardred,rewardblue,rewardgreen,subchoose,playerb,slider.response,slider.rt,intertrialfix.started,intertrialfix.stopped,bigx.started,bigx.stopped,rest_image.started,rest_response.started,rest_response.rt,image.started,key_resp.started,key_resp.keys,participant,Gender,Age,date,expName,psychopyVersion,frameRate,
,,,,,26.202866436000477,26.202866436000477,space,3.066712790001475,,,,,,,,,,,,,,,,,,,,,,,,,,,,,,,,,,,,,,,,,,,,,,,,,,,,,,,,,,,,,,,151,m,23,2023-04-03_11h15.33.309,RL,2022.2.4,60.10383947932909,
,,,,,,,,,29.299586570003157,29.299586570003157,space,13.893407212999591,,,,,,,,,,,,,,,,,,,,,,,,,,,,,,,,,,,,,,,,,,,,,,,,,,,,,,,,,,,151,m,23,2023-04-03_11h15.33.309,RL,2022.2.4,60.10383947932909,
1,0,0,0,0,,,,,,,,,43.235195804001705,None,44.25689532900287,44.25689532900287,44.25689532900287,44.25689532900287,44.25689532900287,44.25689532900287,i,0.6219112530015991,44.9464251970021,44.9464251970021,44.9464251970021,44.9464251970021,44.9464251970021,44.9464251970021,45.19577065700287,45.19577065700287,46.454900513999746,46.454900513999746,46.51388826699986,46.51388826699986,46.51388826699986,46.51388826699986,46.51388826699986,46.51388826699986,46.51388826699986,46.51388826699986,46.51388826699986,46.51388826699986,46.51388826699986,46.51388826699986,46.51388826699986,46.51388826699986,46.51388826699986,49.01400351900156,49.01400351900156,49.01400351900156,49.01400351900156,49.01400351900156,44,48,66,29,66,52,5.0,1.0147157159990456,50.04154738700163,51.730631297999935,,,,,,,,,151,m,23,2023-04-03_11h15.33.309,RL,2022.2.4,60.10383947932909,
1,1,0,1,0,,,,,,,,,,None,51.730631297999935,51.730631297999935,51.730631297999935,51.730631297999935,51.730631297999935,51.730631297999935,r,1.1220117759985442,52.90946494200034,52.90946494200034,52.90946494200034,52.90946494200034,52.90946494200034,52.90946494200034,53.17581297500146,53.17581297500146,54.74314806199982,54.74314806199982,54.78498826800205,54.78498826800205,54.78498826800205,54.78498826800205,54.78498826800205,54.78498826800205,54.78498826800205,54.78498826800205,54.78498826800205,54.78498826800205,54.78498826800205,54.78498826800205,54.78498826800205,54.78498826800205,54.78498826800205,57.29313701400315,57.29313701400315,57.29313701400315,57.29313701400315,57.29313701400315,45,46,73,29,45,32,5.0,1.2537563059995591,58.56172670200249,60.168340644002456,,,,,,,,,151,m,23,2023-04-03_11h15.33.309,RL,2022.2.4,60.10383947932909,
1,2,0,2,0,,,,,,,,,,None,60.168340644002456,60.168340644002456,60.168340644002456,60.168340644002456,60.168340644002456,60.168340644002456,None,,,,,,,,,,,,,,,,,,,,,,,,,,,,,,,,53,48,69,26,0,**,None,None,66.2186842830015,68.10554972500177,61.70715208800175,66.2186842830015,,,,,,,151,m,23,2023-04-03_11h15.33.309,RL,2022.2.4,60.10383947932909,
1,3,0,3,0,,,,,,,,,,None,68.10554972500177,68.10554972500177,68.10554972500177,68.10554972500177,68.10554972500177,68.10554972500177,i,0.5377856820014131,68.70289679200141,68.70289679200141,68.70289679200141,68.70289679200141,68.70289679200141,68.70289679200141,68.97732600700328,68.97732600700328,70.24536463000186,70.24536463000186,70.29067482800019,70.29067482800019,70.29067482800019,70.29067482800019,70.29067482800019,70.29067482800019,70.29067482800019,70.29067482800019,70.29067482800019,70.29067482800019,70.29067482800019,70.29067482800019,70.29067482800019,70.29067482800019,70.29067482800019,72.79828359500243,72.79828359500243,72.79828359500243,72.79828359500243,72.79828359500243,46,51,74,29,74,69,6.0,0.9027022299997043,73.71669198700329,75.45899419900161,,,,,,,,,151,m,23,2023-04-03_11h15.33.309,RL,2022.2.4,60.10383947932909,
1,4,0,4,0,,,,,,,,,,None,75.45899419900161,75.45899419900161,75.45899419900161,75.45899419900161,75.45899419900161,75.45899419900161,r,0.5721296480005549,76.10028874800264,76.10028874800264,76.10028874800264,76.10028874800264,76.10028874800264,76.10028874800264,76.35049577200334,76.35049577200334,77.28346557100303,77.28346557100303,77.33905689300082,77.33905689300082,77.33905689300082,77.33905689300082,77.33905689300082,77.33905689300082,77.33905689300082,77.33905689300082,77.33905689300082,77.33905689300082,77.33905689300082,77.33905689300082,77.33905689300082,77.33905689300082,77.33905689300082,79.84806880300312,79.84806880300312,79.84806880300312,79.84806880300312,79.84806880300312,55,54,74,33,55,26,6.0,1.1919508219980344,81.05111841800317,82.77835584600325,,,,,,,,,151,m,23,2023-04-03_11h15.33.309,RL,2022.2.4,60.10383947932909,
1,5,0,5,0,,,,,,,,,,None,82.77835584600325,82.77835584600325,82.77835584600325,82.77835584600325,82.77835584600325,82.77835584600325,j,0.5664122079979279,83.39672996300214,83.39672996300214,83.39672996300214,83.39672996300214,83.39672996300214,83.39672996300214,83.65248048300055,83.65248048300055,85.5411311170028,85.5411311170028,85.59517612700074,85.59517612700074,85.59517612700074,85.59517612700074,85.59517612700074,85.59517612700074,85.59517612700074,85.59517612700074,85.59517612700074,85.59517612700074,85.59517612700074,85.59517612700074,85.59517612700074,85.59517612700074,85.59517612700074,88.1071280110009,88.1071280110009,88.1071280110009,88.1071280110009,88.1071280110009,48,51,71,42,42,60,4.0,0.53615609100234,88.65614476100018,90.36553898700004,,,,,,,,,151,m,23,2023-04-03_11h15.33.309,RL,2022.2.4,60.10383947932909,
1,6,0,6,0,,,,,,,,,,None,90.36553898700004,90.36553898700004,90.36553898700004,90.36553898700004,90.36553898700004,90.36553898700004,j,0.5353203359991312,90.96327387300335,90.96327387300335,90.96327387300335,90.96327387300335,90.96327387300335,90.96327387300335,91.23974558400005,91.23974558400005,92.77417898500062,92.77417898500062,92.81597562600291,92.81597562600291,92.81597562600291,92.81597562600291,92.81597562600291,92.81597562600291,92.81597562600291,92.81597562600291,92.81597562600291,92.81597562600291,92.81597562600291,92.81597562600291,92.81597562600291,92.81597562600291,92.81597562600291,95.31146414600153,95.31146414600153,95.31146414600153,95.31146414600153,95.31146414600153,48,53,70,41,41,26,5.0,0.8670460699977411,96.19251506500223,98.13657926800079,,,,,,,,,151,m,23,2023-04-03_11h15.33.309,RL,2022.2.4,60.10383947932909,
1,7,0,7,0,,,,,,,,,,None,98.13657926800079,98.13657926800079,98.13657926800079,98.13657926800079,98.13657926800079,98.13657926800079,r,0.3593791870007408,98.55818421500226,98.55818421500226,98.55818421500226,98.55818421500226,98.55818421500226,98.55818421500226,98.8255981830007,98.8255981830007,99.741803334,99.741803334,99.78147141700174,99.78147141700174,99.78147141700174,99.78147141700174,99.78147141700174,99.78147141700174,99.78147141700174,99.78147141700174,99.78147141700174,99.78147141700174,99.78147141700174,99.78147141700174,99.78147141700174,99.78147141700174,99.78147141700174,102.28753113499988,102.28753113499988,102.28753113499988,102.28753113499988,102.28753113499988,53,50,66,24,53,67,4.0,0.5615690060003544,102.86229622300016,104.52250968200315,,,,,,,,,151,m,23,2023-04-03_11h15.33.309,RL,2022.2.4,60.10383947932909,
1,8,0,8,0,,,,,,,,,,None,104.52250968200315,104.52250968200315,104.52250968200315,104.52250968200315,104.52250968200315,104.52250968200315,f,0.33399044599718763,104.90808566600026,104.90808566600026,104.90808566600026,104.90808566600026,104.90808566600026,104.90808566600026,105.15908296800262,105.15908296800262,107.0318834360005,107.0318834360005,107.07036005000191,107.07036005000191,107.07036005000191,107.07036005000191,107.07036005000191,107.07036005000191,107.07036005000191,107.07036005000191,107.07036005000191,107.07036005000191,107.07036005000191,107.07036005000191,107.07036005000191,107.07036005000191,107.07036005000191,109.56894185200144,109.56894185200144,109.56894185200144,109.56894185200144,109.56894185200144,47,61,63,37,61,67,3.0,0.6275507689970254,110.21108094900046,111.84272778000013,,,,,,,,,151,m,23,2023-04-03_11h15.33.309,RL,2022.2.4,60.10383947932909,
1,9,0,9,0,,,,,,,,,,None,111.84272778000013,111.84272778000013,111.84272778000013,111.84272778000013,111.84272778000013,111.84272778000013,i,0.5122144929991919,112.41203827200297,112.41203827200297,112.41203827200297,112.41203827200297,112.41203827200297,112.41203827200297,112.66573098700246,112.66573098700246,114.00459038900226,114.00459038900226,114.06230208600027,114.06230208600027,114.06230208600027,114.06230208600027,114.06230208600027,114.06230208600027,114.06230208600027,114.06230208600027,114.06230208600027,114.06230208600027,114.06230208600027,114.06230208600027,114.06230208600027,114.06230208600027,114.06230208600027,116.55949399900055,116.55949399900055,116.55949399900055,116.55949399900055,116.55949399900055,51,50,61,27,61,58,4.0,1.1808057770031155,117.75151295600153,119.37956552800097,,,,,,,,,151,m,23,2023-04-03_11h15.33.309,RL,2022.2.4,60.10383947932909,
1,10,0,10,0,,,,,,,,,,None,119.37956552800097,119.37956552800097,119.37956552800097,119.37956552800097,119.37956552800097,119.37956552800097,f,0.31860159799907706,119.75651801800268,119.75651801800268,119.75651801800268,119.75651801800268,119.75651801800268,119.75651801800268,120.02076569300334,120.02076569300334,121.65062954300083,121.65062954300083,121.69222080000327,121.69222080000327,121.69222080000327,121.69222080000327,121.69222080000327,121.69222080000327,121.69222080000327,121.69222080000327,121.69222080000327,121.69222080000327,121.69222080000327,121.69222080000327,121.69222080000327,121.69222080000327,121.69222080000327,124.19065173000126,124.19065173000126,124.19065173000126,124.19065173000126,124.19065173000126,45,55,61,26,55,36,5.0,0.7167964649997884,124.91900855100175,126.59889209300309,,,,,,,,,151,m,23,2023-04-03_11h15.33.309,RL,2022.2.4,60.10383947932909,
1,11,0,11,0,,,,,,,,,,None,126.59889209300309,126.59889209300309,126.59889209300309,126.59889209300309,126.59889209300309,126.59889209300309,r,0.32716470399827813,126.97638878400176,126.97638878400176,126.97638878400176,126.97638878400176,126.97638878400176,126.97638878400176,127.24063363800087,127.24063363800087,129.19237298100052,129.19237298100052,129.2324522830022,129.2324522830022,129.2324522830022,129.2324522830022,129.2324522830022,129.2324522830022,129.2324522830022,129.2324522830022,129.2324522830022,129.2324522830022,129.2324522830022,129.2324522830022,129.2324522830022,129.2324522830022,129.2324522830022,131.73633611800324,131.73633611800324,131.73633611800324,131.73633611800324,131.73633611800324,44,55,57,24,44,63,3.0,1.0612971240007028,132.81279601200004,134.45228876200053,,,,,,,,,151,m,23,2023-04-03_11h15.33.309,RL,2022.2.4,60.10383947932909,
1,12,0,12,0,,,,,,,,,,None,134.45228876200053,134.45228876200053,134.45228876200053,134.45228876200053,134.45228876200053,134.45228876200053,j,0.2737974989977374,134.78321709800002,134.78321709800002,134.78321709800002,134.78321709800002,134.78321709800002,134.78321709800002,135.04283865400066,135.04283865400066,136.01976393400037,136.01976393400037,136.07689104300152,136.07689104300152,136.07689104300152,136.07689104300152,136.07689104300152,136.07689104300152,136.07689104300152,136.07689104300152,136.07689104300152,136.07689104300152,136.07689104300152,136.07689104300152,136.07689104300152,136.07689104300152,136.07689104300152,138.58821846900173,138.58821846900173,138.58821846900173,138.58821846900173,138.58821846900173,52,56,59,34,34,62,2.0,0.8314009140012786,139.42980073000217,141.02345056000195,,,,,,,,,151,m,23,2023-04-03_11h15.33.309,RL,2022.2.4,60.10383947932909,
1,13,0,13,0,,,,,,,,,,None,141.02345056000195,141.02345056000195,141.02345056000195,141.02345056000195,141.02345056000195,141.02345056000195,j,0.3639649049982836,141.45649698700072,141.45649698700072,141.45649698700072,141.45649698700072,141.45649698700072,141.45649698700072,141.69647402900227,141.69647402900227,143.52016944200295,143.52016944200295,143.59291256800134,143.59291256800134,143.59291256800134,143.59291256800134,143.59291256800134,143.59291256800134,143.59291256800134,143.59291256800134,143.59291256800134,143.59291256800134,143.59291256800134,143.59291256800134,143.59291256800134,143.59291256800134,143.59291256800134,146.10134936900067,146.10134936900067,146.10134936900067,146.10134936900067,146.10134936900067,47,52,65,23,23,62,2.0,0.6150043230009032,146.728703099001,148.47663824900155,,,,,,,,,151,m,23,2023-04-03_11h15.33.309,RL,2022.2.4,60.10383947932909,
1,14,0,14,0,,,,,,,,,,None,148.47663824900155,148.47663824900155,148.47663824900155,148.47663824900155,148.47663824900155,148.47663824900155,r,0.34979897199809784,148.8776099650022,148.8776099650022,148.8776099650022,148.8776099650022,148.8776099650022,148.8776099650022,149.13446985500195,149.13446985500195,150.65332174700234,150.65332174700234,150.69299655800205,150.69299655800205,150.69299655800205,150.69299655800205,150.69299655800205,150.69299655800205,150.69299655800205,150.69299655800205,150.69299655800205,150.69299655800205,150.69299655800205,150.69299655800205,150.69299655800205,150.69299655800205,150.69299655800205,153.19582115900266,153.19582115900266,153.19582115900266,153.19582115900266,153.19582115900266,44,58,61,29,44,44,4.0,1.7925127720009186,155.00042588200085,156.96400310800163,,,,,,,,,151,m,23,2023-04-03_11h15.33.309,RL,2022.2.4,60.10383947932909,
1,15,0,15,0,,,,,,,,,,None,156.96400310800163,156.96400310800163,156.96400310800163,156.96400310800163,156.96400310800163,156.96400310800163,r,0.2550877040011983,157.28541768800278,157.28541768800278,157.28541768800278,157.28541768800278,157.28541768800278,157.28541768800278,157.55395454800237,157.55395454800237,158.49126479200277,158.49126479200277,158.5316221250032,158.5316221250032,158.5316221250032,158.5316221250032,158.5316221250032,158.5316221250032,158.5316221250032,158.5316221250032,158.5316221250032,158.5316221250032,158.5316221250032,158.5316221250032,158.5316221250032,158.5316221250032,158.5316221250032,161.03095813400068,161.03095813400068,161.03095813400068,161.03095813400068,161.03095813400068,36,49,66,26,36,64,3.0,1.3017547950003063,162.34459855300156,164.1348216639999,,,,,,,,,151,m,23,2023-04-03_11h15.33.309,RL,2022.2.4,60.10383947932909,
1,16,0,16,0,,,,,,,,,,None,164.1348216639999,164.1348216639999,164.1348216639999,164.1348216639999,164.1348216639999,164.1348216639999,f,0.4482016560032207,164.65465887600294,164.65465887600294,164.65465887600294,164.65465887600294,164.65465887600294,164.65465887600294,164.9224006120021,164.9224006120021,166.18337970200082,166.18337970200082,166.20424431100037,166.20424431100037,166.20424431100037,166.20424431100037,166.20424431100037,166.20424431100037,166.20424431100037,166.20424431100037,166.20424431100037,166.20424431100037,166.20424431100037,166.20424431100037,166.20424431100037,166.20424431100037,166.20424431100037,168.7197882979999,168.7197882979999,168.7197882979999,168.7197882979999,168.7197882979999,42,49,53,28,49,58,4.0,0.6581021769998188,169.39204632900146,171.25296554300076,,,,,,,,,151,m,23,2023-04-03_11h15.33.309,RL,2022.2.4,60.10383947932909,
1,17,0,17,0,,,,,,,,,,None,171.25296554300076,171.25296554300076,171.25296554300076,171.25296554300076,171.25296554300076,171.25296554300076,i,0.39177995899808593,171.70526370900188,171.70526370900188,171.70526370900188,171.70526370900188,171.70526370900188,171.70526370900188,171.9771735650029,171.9771735650029,173.96003922599994,173.96003922599994,173.98375303000284,173.98375303000284,173.98375303000284,173.98375303000284,173.98375303000284,173.98375303000284,173.98375303000284,173.98375303000284,173.98375303000284,173.98375303000284,173.98375303000284,173.98375303000284,173.98375303000284,173.98375303000284,173.98375303000284,176.4872920350026,176.4872920350026,176.4872920350026,176.4872920350026,176.4872920350026,43,56,63,34,63,54,5.0,0.9453296360006789,177.44711261400153,179.27456508900286,,,,,,,,,151,m,23,2023-04-03_11h15.33.309,RL,2022.2.4,60.10383947932909,
1,18,0,18,0,,,,,,,,,,None,179.27456508900286,179.27456508900286,179.27456508900286,179.27456508900286,179.27456508900286,179.27456508900286,r,0.2861377219996939,179.6188818690025,179.6188818690025,179.6188818690025,179.6188818690025,179.6188818690025,179.6188818690025,179.88704054700065,179.88704054700065,181.45696587600105,181.45696587600105,181.49785154500205,181.49785154500205,181.49785154500205,181.49785154500205,181.49785154500205,181.49785154500205,181.49785154500205,181.49785154500205,181.49785154500205,181.49785154500205,181.49785154500205,181.49785154500205,181.49785154500205,181.49785154500205,181.49785154500205,184.00176072700197,184.00176072700197,184.00176072700197,184.00176072700197,184.00176072700197,44,49,58,34,44,64,3.0,0.9861620989977382,185.00198908600214,186.944960816003,,,,,,,,,151,m,23,2023-04-03_11h15.33.309,RL,2022.2.4,60.10383947932909,
1,19,0,19,0,,,,,,,,,,None,186.944960816003,186.944960816003,186.944960816003,186.944960816003,186.944960816003,186.944960816003,i,0.38674661700133584,187.3893420960012,187.3893420960012,187.3893420960012,187.3893420960012,187.3893420960012,187.3893420960012,187.65417447300206,187.65417447300206,188.9476260040028,188.9476260040028,188.98840530400048,188.98840530400048,188.98840530400048,188.98840530400048,188.98840530400048,188.98840530400048,188.98840530400048,188.98840530400048,188.98840530400048,188.98840530400048,188.98840530400048,188.98840530400048,188.98840530400048,188.98840530400048,188.98840530400048,191.50050223100334,191.50050223100334,191.50050223100334,191.50050223100334,191.50050223100334,46,56,52,37,52,60,4.0,0.9585449910009629,192.47390585900212,194.24889420700129,,,,,,,,,151,m,23,2023-04-03_11h15.33.309,RL,2022.2.4,60.10383947932909,
1,20,0,20,0,,,,,,,,,,None,194.24889420700129,194.24889420700129,194.24889420700129,194.24889420700129,194.24889420700129,194.24889420700129,f,0.24360850399898482,194.5521006980016,194.5521006980016,194.5521006980016,194.5521006980016,194.5521006980016,194.5521006980016,194.80508666600144,194.80508666600144,196.5120326540018,196.5120326540018,196.56722829700084,196.56722829700084,196.56722829700084,196.56722829700084,196.56722829700084,196.56722829700084,196.56722829700084,196.56722829700084,196.56722829700084,196.56722829700084,196.56722829700084,196.56722829700084,196.56722829700084,196.56722829700084,196.56722829700084,199.06932565900206,199.06932565900206,199.06932565900206,199.06932565900206,199.06932565900206,31,53,58,31,53,50,5.0,0.9072155030007707,199.990570967002,201.95209838400115,,,,,,,,,151,m,23,2023-04-03_11h15.33.309,RL,2022.2.4,60.10383947932909,
1,21,0,21,0,,,,,,,,,,None,201.95209838400115,201.95209838400115,201.95209838400115,201.95209838400115,201.95209838400115,201.95209838400115,r,0.3421700730032171,202.34951069300223,202.34951069300223,202.34951069300223,202.34951069300223,202.34951069300223,202.34951069300223,202.60789989000114,202.60789989000114,204.1375082600025,204.1375082600025,204.18049779600187,204.18049779600187,204.18049779600187,204.18049779600187,204.18049779600187,204.18049779600187,204.18049779600187,204.18049779600187,204.18049779600187,204.18049779600187,204.18049779600187,204.18049779600187,204.18049779600187,204.18049779600187,204.18049779600187,206.68266093000057,206.68266093000057,206.68266093000057,206.68266093000057,206.68266093000057,41,64,51,41,41,66,3.0,0.9184387370005425,207.61620144100016,209.17231083200022,,,,,,,,,151,m,23,2023-04-03_11h15.33.309,RL,2022.2.4,60.10383947932909,
1,22,0,22,0,,,,,,,,,,None,209.17231083200022,209.17231083200022,209.17231083200022,209.17231083200022,209.17231083200022,209.17231083200022,i,0.42263026800355874,209.64987906399983,209.64987906399983,209.64987906399983,209.64987906399983,209.64987906399983,209.64987906399983,209.91182793500047,209.91182793500047,211.38457917300184,211.38457917300184,211.42463638100162,211.42463638100162,211.42463638100162,211.42463638100162,211.42463638100162,211.42463638100162,211.42463638100162,211.42463638100162,211.42463638100162,211.42463638100162,211.42463638100162,211.42463638100162,211.42463638100162,211.42463638100162,211.42463638100162,213.93875862500136,213.93875862500136,213.93875862500136,213.93875862500136,213.93875862500136,38,58,50,43,50,47,5.0,0.8288953650007898,214.77863517600053,216.54232523700193,,,,,,,,,151,m,23,2023-04-03_11h15.33.309,RL,2022.2.4,60.10383947932909,
1,23,0,23,0,,,,,,,,,,None,216.54232523700193,216.54232523700193,216.54232523700193,216.54232523700193,216.54232523700193,216.54232523700193,i,0.18126745799963828,216.77461551099987,216.77461551099987,216.77461551099987,216.77461551099987,216.77461551099987,216.77461551099987,217.03076189400235,217.03076189400235,218.23077383800046,218.23077383800046,218.27071041500312,218.27071041500312,218.27071041500312,218.27071041500312,218.27071041500312,218.27071041500312,218.27071041500312,218.27071041500312,218.27071041500312,218.27071041500312,218.27071041500312,218.27071041500312,218.27071041500312,218.27071041500312,218.27071041500312,220.77180999400298,220.77180999400298,220.77180999400298,220.77180999400298,220.77180999400298,29,68,53,33,53,42,5.0,0.4643783840001561,221.24985461600227,222.76250363500003,,,,,,,,,151,m,23,2023-04-03_11h15.33.309,RL,2022.2.4,60.10383947932909,
1,24,0,24,0,,,,,,,,,,None,222.76250363500003,222.76250363500003,222.76250363500003,222.76250363500003,222.76250363500003,222.76250363500003,j,0.2585828359988227,223.0659761090028,223.0659761090028,223.0659761090028,223.0659761090028,223.0659761090028,223.0659761090028,223.33377193100023,223.33377193100023,224.47951036800077,224.47951036800077,224.51721825300046,224.51721825300046,224.51721825300046,224.51721825300046,224.51721825300046,224.51721825300046,224.51721825300046,224.51721825300046,224.51721825300046,224.51721825300046,224.51721825300046,224.51721825300046,224.51721825300046,224.51721825300046,224.51721825300046,227.0259962300006,227.0259962300006,227.0259962300006,227.0259962300006,227.0259962300006,28,61,60,28,28,57,3.0,0.7828386439978203,227.82224714699987,229.5144761540032,,,,,,,,,151,m,23,2023-04-03_11h15.33.309,RL,2022.2.4,60.10383947932909,
1,25,0,25,0,,,,,,,,,,None,229.5144761540032,229.5144761540032,229.5144761540032,229.5144761540032,229.5144761540032,229.5144761540032,r,0.1027696589990228,229.6721969140017,229.6721969140017,229.6721969140017,229.6721969140017,229.6721969140017,229.6721969140017,229.95505616900118,229.95505616900118,231.41619168200123,231.41619168200123,231.43885296400185,231.43885296400185,231.43885296400185,231.43885296400185,231.43885296400185,231.43885296400185,231.43885296400185,231.43885296400185,231.43885296400185,231.43885296400185,231.43885296400185,231.43885296400185,231.43885296400185,231.43885296400185,231.43885296400185,233.94444861300144,233.94444861300144,233.94444861300144,233.94444861300144,233.94444861300144,33,72,62,29,33,53,4.0,1.883197889001167,235.84123960299985,237.8367797580031,,,,,,,,,151,m,23,2023-04-03_11h15.33.309,RL,2022.2.4,60.10383947932909,
1,26,0,26,0,,,,,,,,,,None,237.8367797580031,237.8367797580031,237.8367797580031,237.8367797580031,237.8367797580031,237.8367797580031,r,0.31505605900019873,238.19873350499984,238.19873350499984,238.19873350499984,238.19873350499984,238.19873350499984,238.19873350499984,238.45781699200234,238.45781699200234,240.45829578900157,240.45829578900157,240.49892532100057,240.49892532100057,240.49892532100057,240.49892532100057,240.49892532100057,240.49892532100057,240.49892532100057,240.49892532100057,240.49892532100057,240.49892532100057,240.49892532100057,240.49892532100057,240.49892532100057,240.49892532100057,240.49892532100057,243.00759848000234,243.00759848000234,243.00759848000234,243.00759848000234,243.00759848000234,28,63,59,39,28,47,3.0,0.7246322800019698,243.7448920320021,245.63964242099973,,,,,,,,,151,m,23,2023-04-03_11h15.33.309,RL,2022.2.4,60.10383947932909,
1,27,0,27,0,,,,,,,,,,None,245.63964242099973,245.63964242099973,245.63964242099973,245.63964242099973,245.63964242099973,245.63964242099973,i,0.5973285180007224,246.27912321199983,246.27912321199983,246.27912321199983,246.27912321199983,246.27912321199983,246.27912321199983,246.54577543400228,246.54577543400228,248.2168710290025,248.2168710290025,248.25687276600001,248.25687276600001,248.25687276600001,248.25687276600001,248.25687276600001,248.25687276600001,248.25687276600001,248.25687276600001,248.25687276600001,248.25687276600001,248.25687276600001,248.25687276600001,248.25687276600001,248.25687276600001,248.25687276600001,250.75631694700132,250.75631694700132,250.75631694700132,250.75631694700132,250.75631694700132,33,73,49,42,49,44,4.0,0.845052509001107,251.6157725330013,253.27481594300116,,,,,,,,,151,m,23,2023-04-03_11h15.33.309,RL,2022.2.4,60.10383947932909,
1,28,0,28,0,,,,,,,,,,None,253.27481594300116,253.27481594300116,253.27481594300116,253.27481594300116,253.27481594300116,253.27481594300116,j,0.8315131800009112,254.15511484200033,254.15511484200033,254.15511484200033,254.15511484200033,254.15511484200033,254.15511484200033,254.4145908950013,254.4145908950013,255.33434025700262,255.33434025700262,255.377950858001,255.377950858001,255.377950858001,255.377950858001,255.377950858001,255.377950858001,255.377950858001,255.377950858001,255.377950858001,255.377950858001,255.377950858001,255.377950858001,255.377950858001,255.377950858001,255.377950858001,257.8781735340017,257.8781735340017,257.8781735340017,257.8781735340017,257.8781735340017,33,67,60,38,38,45,3.0,0.4454489720010315,258.33796960700056,259.8630491690019,,,,,,,,,151,m,23,2023-04-03_11h15.33.309,RL,2022.2.4,60.10383947932909,
1,29,0,29,0,,,,,,,,,,None,259.8630491690019,259.8630491690019,259.8630491690019,259.8630491690019,259.8630491690019,259.8630491690019,r,0.3317295369997737,260.24967503800144,260.24967503800144,260.24967503800144,260.24967503800144,260.24967503800144,260.24967503800144,260.5359163400026,260.5359163400026,261.3980254550006,261.3980254550006,261.3980254550006,261.3980254550006,261.3980254550006,261.3980254550006,261.3980254550006,261.3980254550006,261.3980254550006,261.3980254550006,261.3980254550006,261.3980254550006,261.3980254550006,261.3980254550006,261.3980254550006,261.3980254550006,261.3980254550006,263.9056293650028,263.9056293650028,263.9056293650028,263.9056293650028,263.9056293650028,28,72,56,42,28,47,3.0,1.3675957880004717,265.28688553400207,267.2336103330017,,,,,,,,,151,m,23,2023-04-03_11h15.33.309,RL,2022.2.4,60.10383947932909,
1,30,0,30,0,,,,,,,,,,None,267.2336103330017,267.2336103330017,267.2336103330017,267.2336103330017,267.2336103330017,267.2336103330017,f,0.4501100659981603,267.74338803200226,267.74338803200226,267.74338803200226,267.74338803200226,267.74338803200226,267.74338803200226,268.00688786200044,268.00688786200044,269.1575044130004,269.1575044130004,269.1986054370027,269.1986054370027,269.1986054370027,269.1986054370027,269.1986054370027,269.1986054370027,269.1986054370027,269.1986054370027,269.1986054370027,269.1986054370027,269.1986054370027,269.1986054370027,269.1986054370027,269.1986054370027,269.1986054370027,271.7106901240004,271.7106901240004,271.7106901240004,271.7106901240004,271.7106901240004,35,76,64,42,76,46,5.0,0.8687225290013885,272.5908733480028,274.5699681850019,,,,,,,,,151,m,23,2023-04-03_11h15.33.309,RL,2022.2.4,60.10383947932909,
1,31,0,31,0,,,,,,,,,,None,274.5699681850019,274.5699681850019,274.5699681850019,274.5699681850019,274.5699681850019,274.5699681850019,r,0.4215482899999188,275.04447761100164,275.04447761100164,275.04447761100164,275.04447761100164,275.04447761100164,275.04447761100164,275.31054839900025,275.31054839900025,277.1768078080022,277.1768078080022,277.21692449200054,277.21692449200054,277.21692449200054,277.21692449200054,277.21692449200054,277.21692449200054,277.21692449200054,277.21692449200054,277.21692449200054,277.21692449200054,277.21692449200054,277.21692449200054,277.21692449200054,277.21692449200054,277.21692449200054,279.7142946109998,279.7142946109998,279.7142946109998,279.7142946109998,279.7142946109998,46,72,64,36,46,50,4.0,0.6668370249972213,280.3958059710021,282.28986921100295,,,,,,,,,151,m,23,2023-04-03_11h15.33.309,RL,2022.2.4,60.10383947932909,
1,32,0,32,0,,,,,,,,,,None,282.28986921100295,282.28986921100295,282.28986921100295,282.28986921100295,282.28986921100295,282.28986921100295,j,0.29171514400150045,282.64265965100276,282.64265965100276,282.64265965100276,282.64265965100276,282.64265965100276,282.64265965100276,282.91390460000184,282.91390460000184,284.8042478410025,284.8042478410025,284.82558803400025,284.82558803400025,284.82558803400025,284.82558803400025,284.82558803400025,284.82558803400025,284.82558803400025,284.82558803400025,284.82558803400025,284.82558803400025,284.82558803400025,284.82558803400025,284.82558803400025,284.82558803400025,284.82558803400025,287.3398904269998,287.3398904269998,287.3398904269998,287.3398904269998,287.3398904269998,32,63,62,37,37,54,3.0,0.982613603999198,288.33631737200267,290.0104484780022,,,,,,,,,151,m,23,2023-04-03_11h15.33.309,RL,2022.2.4,60.10383947932909,
1,33,0,33,0,,,,,,,,,,None,290.0104484780022,290.0104484780022,290.0104484780022,290.0104484780022,290.0104484780022,290.0104484780022,r,0.551459360998706,290.60782327700144,290.60782327700144,290.60782327700144,290.60782327700144,290.60782327700144,290.60782327700144,290.86648227200203,290.86648227200203,292.2221976150031,292.2221976150031,292.2618264140001,292.2618264140001,292.2618264140001,292.2618264140001,292.2618264140001,292.2618264140001,292.2618264140001,292.2618264140001,292.2618264140001,292.2618264140001,292.2618264140001,292.2618264140001,292.2618264140001,292.2618264140001,292.2618264140001,294.76080661200103,294.76080661200103,294.76080661200103,294.76080661200103,294.76080661200103,30,71,59,40,30,48,3.0,0.3590813620030531,295.1322461080017,296.99740202199973,,,,,,,,,151,m,23,2023-04-03_11h15.33.309,RL,2022.2.4,60.10383947932909,
1,34,0,34,0,,,,,,,,,,None,296.99740202199973,296.99740202199973,296.99740202199973,296.99740202199973,296.99740202199973,296.99740202199973,i,0.46265751000100863,297.5044249880011,297.5044249880011,297.5044249880011,297.5044249880011,297.5044249880011,297.5044249880011,297.77006281300055,297.77006281300055,298.77570693200323,298.77570693200323,298.81616723400293,298.81616723400293,298.81616723400293,298.81616723400293,298.81616723400293,298.81616723400293,298.81616723400293,298.81616723400293,298.81616723400293,298.81616723400293,298.81616723400293,298.81616723400293,298.81616723400293,298.81616723400293,298.81616723400293,301.32977431100153,301.32977431100153,301.32977431100153,301.32977431100153,301.32977431100153,28,76,57,37,57,40,5.0,0.981712934000825,302.3244469780002,304.15089606200127,,,,,,,,,151,m,23,2023-04-03_11h15.33.309,RL,2022.2.4,60.10383947932909,
1,35,0,35,0,,,,,,,,,,None,304.15089606200127,304.15089606200127,304.15089606200127,304.15089606200127,304.15089606200127,304.15089606200127,j,0.28155365599741344,304.47965213000134,304.47965213000134,304.47965213000134,304.47965213000134,304.47965213000134,304.47965213000134,304.7463215230018,304.7463215230018,305.8723340430006,305.8723340430006,305.91265581900007,305.91265581900007,305.91265581900007,305.91265581900007,305.91265581900007,305.91265581900007,305.91265581900007,305.91265581900007,305.91265581900007,305.91265581900007,305.91265581900007,305.91265581900007,305.91265581900007,305.91265581900007,305.91265581900007,308.4141547750005,308.4141547750005,308.4141547750005,308.4141547750005,308.4141547750005,30,68,59,39,39,41,4.0,0.43058839199875365,308.8581696680012,310.75237352600016,,,,,,,,,151,m,23,2023-04-03_11h15.33.309,RL,2022.2.4,60.10383947932909,
1,36,0,36,0,,,,,,,,,,None,310.75237352600016,310.75237352600016,310.75237352600016,310.75237352600016,310.75237352600016,310.75237352600016,r,0.9365952359985386,311.7444474710028,311.7444474710028,311.7444474710028,311.7444474710028,311.7444474710028,311.7444474710028,312.0110571780024,312.0110571780024,313.16122732700023,313.16122732700023,313.21609469800023,313.21609469800023,313.21609469800023,313.21609469800023,313.21609469800023,313.21609469800023,313.21609469800023,313.21609469800023,313.21609469800023,313.21609469800023,313.21609469800023,313.21609469800023,313.21609469800023,313.21609469800023,313.21609469800023,315.71620047000033,315.71620047000033,315.71620047000033,315.71620047000033,315.71620047000033,39,72,58,37,39,41,4.0,0.7010635279984854,316.4319548190033,317.9901797420025,,,,,,,,,151,m,23,2023-04-03_11h15.33.309,RL,2022.2.4,60.10383947932909,
1,37,0,37,0,,,,,,,,,,None,317.9901797420025,317.9901797420025,317.9901797420025,317.9901797420025,317.9901797420025,317.9901797420025,i,0.3863590490000206,318.43037024099976,318.43037024099976,318.43037024099976,318.43037024099976,318.43037024099976,318.43037024099976,318.6969791570009,318.6969791570009,319.6897220690007,319.6897220690007,319.727365687002,319.727365687002,319.727365687002,319.727365687002,319.727365687002,319.727365687002,319.727365687002,319.727365687002,319.727365687002,319.727365687002,319.727365687002,319.727365687002,319.727365687002,319.727365687002,319.727365687002,322.22902812900065,322.22902812900065,322.22902812900065,322.22902812900065,322.22902812900065,43,73,66,37,66,51,5.0,0.7072286949987756,322.94974120700135,324.62683359400035,,,,,,,,,151,m,23,2023-04-03_11h15.33.309,RL,2022.2.4,60.10383947932909,
1,38,0,38,0,,,,,,,,,,None,324.62683359400035,324.62683359400035,324.62683359400035,324.62683359400035,324.62683359400035,324.62683359400035,r,0.24201360500228475,324.9161056410012,324.9161056410012,324.9161056410012,324.9161056410012,324.9161056410012,324.9161056410012,325.18284225200114,325.18284225200114,327.0631594309998,327.0631594309998,327.1039373450003,327.1039373450003,327.1039373450003,327.1039373450003,327.1039373450003,327.1039373450003,327.1039373450003,327.1039373450003,327.1039373450003,327.1039373450003,327.1039373450003,327.1039373450003,327.1039373450003,327.1039373450003,327.1039373450003,329.6114565300013,329.6114565300013,329.6114565300013,329.6114565300013,329.6114565300013,41,72,64,41,41,38,4.0,1.5299007319990778,331.1531621510003,332.8312833980017,,,,,,,,,151,m,23,2023-04-03_11h15.33.309,RL,2022.2.4,60.10383947932909,
1,39,0,39,0,,,,,,,,,,None,332.8312833980017,332.8312833980017,332.8312833980017,332.8312833980017,332.8312833980017,332.8312833980017,f,0.38907313700110535,333.2709299820017,333.2709299820017,333.2709299820017,333.2709299820017,333.2709299820017,333.2709299820017,333.5368377820014,333.5368377820014,334.9696755190016,334.9696755190016,335.0107632920008,335.0107632920008,335.0107632920008,335.0107632920008,335.0107632920008,335.0107632920008,335.0107632920008,335.0107632920008,335.0107632920008,335.0107632920008,335.0107632920008,335.0107632920008,335.0107632920008,335.0107632920008,335.0107632920008,337.5109211830022,337.5109211830022,337.5109211830022,337.5109211830022,337.5109211830022,35,69,53,33,69,37,6.0,0.5835558219987433,338.10763047100045,339.6512179720012,,,,,,,,,151,m,23,2023-04-03_11h15.33.309,RL,2022.2.4,60.10383947932909,
1,40,0,40,0,,,,,,,,,,None,339.6512179720012,339.6512179720012,339.6512179720012,339.6512179720012,339.6512179720012,339.6512179720012,r,0.32431281699973624,340.0291036000017,340.0291036000017,340.0291036000017,340.0291036000017,340.0291036000017,340.0291036000017,340.2940098979998,340.2940098979998,342.0124262470017,342.0124262470017,342.05226274000233,342.05226274000233,342.05226274000233,342.05226274000233,342.05226274000233,342.05226274000233,342.05226274000233,342.05226274000233,342.05226274000233,342.05226274000233,342.05226274000233,342.05226274000233,342.05226274000233,342.05226274000233,342.05226274000233,344.5512125500027,344.5512125500027,344.5512125500027,344.5512125500027,344.5512125500027,40,76,49,31,40,69,3.0,0.6066535129975819,345.172895877,347.0544396330006,,,,,,,,,151,m,23,2023-04-03_11h15.33.309,RL,2022.2.4,60.10383947932909,
1,41,0,41,0,,,,,,,,,,None,347.0544396330006,347.0544396330006,347.0544396330006,347.0544396330006,347.0544396330006,347.0544396330006,f,0.4858304209992639,347.5946082010014,347.5946082010014,347.5946082010014,347.5946082010014,347.5946082010014,347.5946082010014,347.866247705002,347.866247705002,349.4134329080007,349.4134329080007,349.4374825170016,349.4374825170016,349.4374825170016,349.4374825170016,349.4374825170016,349.4374825170016,349.4374825170016,349.4374825170016,349.4374825170016,349.4374825170016,349.4374825170016,349.4374825170016,349.4374825170016,349.4374825170016,349.4374825170016,351.9492001610015,351.9492001610015,351.9492001610015,351.9492001610015,351.9492001610015,41,66,60,25,66,44,5.0,0.9169008809985826,352.87978465200285,354.44065139300073,,,,,,,,,151,m,23,2023-04-03_11h15.33.309,RL,2022.2.4,60.10383947932909,
1,42,0,42,0,,,,,,,,,,None,354.44065139300073,354.44065139300073,354.44065139300073,354.44065139300073,354.44065139300073,354.44065139300073,j,0.3029083420005918,354.791948995,354.791948995,354.791948995,354.791948995,354.791948995,354.791948995,355.0633495580005,355.0633495580005,356.83165139300036,356.83165139300036,356.8702744080001,356.8702744080001,356.8702744080001,356.8702744080001,356.8702744080001,356.8702744080001,356.8702744080001,356.8702744080001,356.8702744080001,356.8702744080001,356.8702744080001,356.8702744080001,356.8702744080001,356.8702744080001,356.8702744080001,359.3767907500005,359.3767907500005,359.3767907500005,359.3767907500005,359.3767907500005,41,68,64,28,28,80,3.0,1.077209443999891,360.46770966700205,361.99367608600005,,,,,,,,,151,m,23,2023-04-03_11h15.33.309,RL,2022.2.4,60.10383947932909,
1,43,0,43,0,,,,,,,,,,None,361.99367608600005,361.99367608600005,361.99367608600005,361.99367608600005,361.99367608600005,361.99367608600005,r,0.37522845400235383,362.4219403420029,362.4219403420029,362.4219403420029,362.4219403420029,362.4219403420029,362.4219403420029,362.68601794100323,362.68601794100323,363.94798459100275,363.94798459100275,363.98970510599975,363.98970510599975,363.98970510599975,363.98970510599975,363.98970510599975,363.98970510599975,363.98970510599975,363.98970510599975,363.98970510599975,363.98970510599975,363.98970510599975,363.98970510599975,363.98970510599975,363.98970510599975,363.98970510599975,366.49756448900007,366.49756448900007,366.49756448900007,366.49756448900007,366.49756448900007,32,73,59,33,32,49,3.0,0.5412111730001925,367.05302320800183,368.9646921590029,,,,,,,,,151,m,23,2023-04-03_11h15.33.309,RL,2022.2.4,60.10383947932909,
1,44,0,44,0,,,,,,,,,,None,368.9646921590029,368.9646921590029,368.9646921590029,368.9646921590029,368.9646921590029,368.9646921590029,f,0.4752877030005038,369.4890759990012,369.4890759990012,369.4890759990012,369.4890759990012,369.4890759990012,369.4890759990012,369.7537421900015,369.7537421900015,371.608300777003,371.608300777003,371.648290688001,371.648290688001,371.648290688001,371.648290688001,371.648290688001,371.648290688001,371.648290688001,371.648290688001,371.648290688001,371.648290688001,371.648290688001,371.648290688001,371.648290688001,371.648290688001,371.648290688001,374.1561253550026,374.1561253550026,374.1561253550026,374.1561253550026,374.1561253550026,31,68,55,29,68,51,5.0,0.4749348870027461,374.6447140440032,376.6038896070022,,,,,,,,,151,m,23,2023-04-03_11h15.33.309,RL,2022.2.4,60.10383947932909,
1,45,0,45,0,,,,,,,,,,None,376.6038896070022,376.6038896070022,376.6038896070022,376.6038896070022,376.6038896070022,376.6038896070022,i,0.38769595100166043,377.0469510150033,377.0469510150033,377.0469510150033,377.0469510150033,377.0469510150033,377.0469510150033,377.3233432950001,377.3233432950001,378.8148197030023,378.8148197030023,378.83664597900133,378.83664597900133,378.83664597900133,378.83664597900133,378.83664597900133,378.83664597900133,378.83664597900133,378.83664597900133,378.83664597900133,378.83664597900133,378.83664597900133,378.83664597900133,378.83664597900133,378.83664597900133,378.83664597900133,381.3380956800029,381.3380956800029,381.3380956800029,381.3380956800029,381.3380956800029,30,71,55,38,55,90,3.0,0.8604348380031297,382.2121441950003,383.90514752200033,,,,,,,,,151,m,23,2023-04-03_11h15.33.309,RL,2022.2.4,60.10383947932909,
1,46,0,46,0,,,,,,,,,,None,383.90514752200033,383.90514752200033,383.90514752200033,383.90514752200033,383.90514752200033,383.90514752200033,r,0.26735510599974077,384.22596617300223,384.22596617300223,384.22596617300223,384.22596617300223,384.22596617300223,384.22596617300223,384.49604738500057,384.49604738500057,385.708496954001,385.708496954001,385.75031207400025,385.75031207400025,385.75031207400025,385.75031207400025,385.75031207400025,385.75031207400025,385.75031207400025,385.75031207400025,385.75031207400025,385.75031207400025,385.75031207400025,385.75031207400025,385.75031207400025,385.75031207400025,385.75031207400025,388.2472240850002,388.2472240850002,388.2472240850002,388.2472240850002,388.2472240850002,31,77,56,38,31,75,2.0,0.7986906599981012,389.05981953300216,390.84158651500184,,,,,,,,,151,m,23,2023-04-03_11h15.33.309,RL,2022.2.4,60.10383947932909,
1,47,0,47,0,,,,,,,,,,None,390.84158651500184,390.84158651500184,390.84158651500184,390.84158651500184,390.84158651500184,390.84158651500184,j,0.5639767190004932,391.4520141480025,391.4520141480025,391.4520141480025,391.4520141480025,391.4520141480025,391.4520141480025,391.7187513800018,391.7187513800018,392.7092614220019,392.7092614220019,392.7485765190031,392.7485765190031,392.7485765190031,392.7485765190031,392.7485765190031,392.7485765190031,392.7485765190031,392.7485765190031,392.7485765190031,392.7485765190031,392.7485765190031,392.7485765190031,392.7485765190031,392.7485765190031,392.7485765190031,395.24828565100324,395.24828565100324,395.24828565100324,395.24828565100324,395.24828565100324,29,70,68,40,40,73,2.0,0.3564557589998003,395.61789915400004,397.5117855360004,,,,,,,,,151,m,23,2023-04-03_11h15.33.309,RL,2022.2.4,60.10383947932909,
1,48,0,48,0,,,,,,,,,,None,397.5117855360004,397.5117855360004,397.5117855360004,397.5117855360004,397.5117855360004,397.5117855360004,f,0.3449661320009909,397.91137407800124,397.91137407800124,397.91137407800124,397.91137407800124,397.91137407800124,397.91137407800124,398.1838028130005,398.1838028130005,399.0063836840018,399.0063836840018,399.04649069100196,399.04649069100196,399.04649069100196,399.04649069100196,399.04649069100196,399.04649069100196,399.04649069100196,399.04649069100196,399.04649069100196,399.04649069100196,399.04649069100196,399.04649069100196,399.04649069100196,399.04649069100196,399.04649069100196,401.544231873002,401.544231873002,401.544231873002,401.544231873002,401.544231873002,44,63,58,36,63,83,2.0,0.26040734900016105,401.81687357600094,403.4307993680013,,,,,,,,,151,m,23,2023-04-03_11h15.33.309,RL,2022.2.4,60.10383947932909,
1,49,0,49,0,,,,,,,,,,None,403.4307993680013,403.4307993680013,403.4307993680013,403.4307993680013,403.4307993680013,403.4307993680013,j,0.6908499789969937,404.18029870600003,404.18029870600003,404.18029870600003,404.18029870600003,404.18029870600003,404.18029870600003,404.4537455509999,404.4537455509999,405.92774448600176,405.92774448600176,405.9508613750004,405.9508613750004,405.9508613750004,405.9508613750004,405.9508613750004,405.9508613750004,405.9508613750004,405.9508613750004,405.9508613750004,405.9508613750004,405.9508613750004,405.9508613750004,405.9508613750004,405.9508613750004,405.9508613750004,408.4652713230025,408.4652713230025,408.4652713230025,408.4652713230025,408.4652713230025,36,65,52,35,35,68,2.0,0.5202325629979896,408.9988977530011,410.9183317550014,,,,,,,,,151,m,23,2023-04-03_11h15.33.309,RL,2022.2.4,60.10383947932909,
1,50,0,50,0,,,,,,,,,,None,410.9183317550014,410.9183317550014,410.9183317550014,410.9183317550014,410.9183317550014,410.9183317550014,r,0.42531687000155216,411.391568932002,411.391568932002,411.391568932002,411.391568932002,411.391568932002,411.391568932002,411.6577710090023,411.6577710090023,413.6063735960015,413.6063735960015,413.6301170450024,413.6301170450024,413.6301170450024,413.6301170450024,413.6301170450024,413.6301170450024,413.6301170450024,413.6301170450024,413.6301170450024,413.6301170450024,413.6301170450024,413.6301170450024,413.6301170450024,413.6301170450024,413.6301170450024,416.1410582060016,416.1410582060016,416.1410582060016,416.1410582060016,416.1410582060016,36,76,51,33,36,80,1.0,1.2253996770014055,417.37874898200243,419.18758669100134,,,,,,,,,151,m,23,2023-04-03_11h15.33.309,RL,2022.2.4,60.10383947932909,
1,51,0,51,0,,,,,,,,,,None,419.18758669100134,419.18758669100134,419.18758669100134,419.18758669100134,419.18758669100134,419.18758669100134,f,0.035233152000728296,419.28151138500107,419.28151138500107,419.28151138500107,419.28151138500107,419.28151138500107,419.28151138500107,419.5413497240006,419.5413497240006,420.4096233820019,420.4096233820019,420.46741903800284,420.46741903800284,420.46741903800284,420.46741903800284,420.46741903800284,420.46741903800284,420.46741903800284,420.46741903800284,420.46741903800284,420.46741903800284,420.46741903800284,420.46741903800284,420.46741903800284,420.46741903800284,420.46741903800284,422.97252678100267,422.97252678100267,422.97252678100267,422.97252678100267,422.97252678100267,39,73,61,20,73,46,5.0,0.9228676530001394,423.90874382400216,425.69061575399974,,,,,,,,,151,m,23,2023-04-03_11h15.33.309,RL,2022.2.4,60.10383947932909,
1,52,0,52,0,,,,,,,,,,None,425.69061575399974,425.69061575399974,425.69061575399974,425.69061575399974,425.69061575399974,425.69061575399974,r,0.18996005000008154,425.92927165400033,425.92927165400033,425.92927165400033,425.92927165400033,425.92927165400033,425.92927165400033,426.1981470480023,426.1981470480023,427.5527515720023,427.5527515720023,427.59394842300026,427.59394842300026,427.59394842300026,427.59394842300026,427.59394842300026,427.59394842300026,427.59394842300026,427.59394842300026,427.59394842300026,427.59394842300026,427.59394842300026,427.59394842300026,427.59394842300026,427.59394842300026,427.59394842300026,430.098025239,430.098025239,430.098025239,430.098025239,430.098025239,41,66,58,17,41,46,4.0,0.6639091569995799,430.7779593530031,432.5110132059999,,,,,,,,,151,m,23,2023-04-03_11h15.33.309,RL,2022.2.4,60.10383947932909,
1,53,0,53,0,,,,,,,,,,None,432.5110132059999,432.5110132059999,432.5110132059999,432.5110132059999,432.5110132059999,432.5110132059999,i,0.6647750949996407,433.2247579340001,433.2247579340001,433.2247579340001,433.2247579340001,433.2247579340001,433.2247579340001,433.4889274779998,433.4889274779998,434.747809358003,434.747809358003,434.7903180250032,434.7903180250032,434.7903180250032,434.7903180250032,434.7903180250032,434.7903180250032,434.7903180250032,434.7903180250032,434.7903180250032,434.7903180250032,434.7903180250032,434.7903180250032,434.7903180250032,434.7903180250032,434.7903180250032,437.29813581000053,437.29813581000053,437.29813581000053,437.29813581000053,437.29813581000053,40,66,52,14,52,71,3.0,0.5279714499993133,437.8398858690016,439.8142119410004,,,,,,,,,151,m,23,2023-04-03_11h15.33.309,RL,2022.2.4,60.10383947932909,
1,54,0,54,0,,,,,,,,,,None,439.8142119410004,439.8142119410004,439.8142119410004,439.8142119410004,439.8142119410004,439.8142119410004,f,0.2902765439976065,440.1507698310015,440.1507698310015,440.1507698310015,440.1507698310015,440.1507698310015,440.1507698310015,440.42228350500227,440.42228350500227,442.1403746830001,442.1403746830001,442.16446453400204,442.16446453400204,442.16446453400204,442.16446453400204,442.16446453400204,442.16446453400204,442.16446453400204,442.16446453400204,442.16446453400204,442.16446453400204,442.16446453400204,442.16446453400204,442.16446453400204,442.16446453400204,442.16446453400204,444.66605730300216,444.66605730300216,444.66605730300216,444.66605730300216,444.66605730300216,51,63,49,26,63,41,5.0,0.813064594000025,445.4910215430027,447.1345036410021,,,,,,,,,151,m,23,2023-04-03_11h15.33.309,RL,2022.2.4,60.10383947932909,
1,55,0,55,0,,,,,,,,,,None,447.1345036410021,447.1345036410021,447.1345036410021,447.1345036410021,447.1345036410021,447.1345036410021,r,0.25429681400055415,447.4420356740011,447.4420356740011,447.4420356740011,447.4420356740011,447.4420356740011,447.4420356740011,447.71189807700284,447.71189807700284,449.07380342500255,449.07380342500255,449.11382437200155,449.11382437200155,449.11382437200155,449.11382437200155,449.11382437200155,449.11382437200155,449.11382437200155,449.11382437200155,449.11382437200155,449.11382437200155,449.11382437200155,449.11382437200155,449.11382437200155,449.11382437200155,449.11382437200155,451.62176597000143,451.62176597000143,451.62176597000143,451.62176597000143,451.62176597000143,50,71,62,16,50,74,3.0,0.5243634229991585,452.1597642270026,453.9386022580002,,,,,,,,,151,m,23,2023-04-03_11h15.33.309,RL,2022.2.4,60.10383947932909,
1,56,0,56,0,,,,,,,,,,None,453.9386022580002,453.9386022580002,453.9386022580002,453.9386022580002,453.9386022580002,453.9386022580002,r,0.5941400029987562,454.59018151200144,454.59018151200144,454.59018151200144,454.59018151200144,454.59018151200144,454.59018151200144,454.86110896600076,454.86110896600076,456.4272591480003,456.4272591480003,456.46708712000327,456.46708712000327,456.46708712000327,456.46708712000327,456.46708712000327,456.46708712000327,456.46708712000327,456.46708712000327,456.46708712000327,456.46708712000327,456.46708712000327,456.46708712000327,456.46708712000327,456.46708712000327,456.46708712000327,458.97353219900106,458.97353219900106,458.97353219900106,458.97353219900106,458.97353219900106,54,73,56,23,54,68,3.0,0.7463332129991613,459.73242709600163,461.72498274700047,,,,,,,,,151,m,23,2023-04-03_11h15.33.309,RL,2022.2.4,60.10383947932909,
1,57,0,57,0,,,,,,,,,,None,461.72498274700047,461.72498274700047,461.72498274700047,461.72498274700047,461.72498274700047,461.72498274700047,j,0.4608419150026748,462.24167704400315,462.24167704400315,462.24167704400315,462.24167704400315,462.24167704400315,462.24167704400315,462.49764279300143,462.49764279300143,463.8699873550031,463.8699873550031,463.9109446910006,463.9109446910006,463.9109446910006,463.9109446910006,463.9109446910006,463.9109446910006,463.9109446910006,463.9109446910006,463.9109446910006,463.9109446910006,463.9109446910006,463.9109446910006,463.9109446910006,463.9109446910006,463.9109446910006,466.4186328880023,466.4186328880023,466.4186328880023,466.4186328880023,466.4186328880023,54,77,54,15,15,72,1.0,0.50177169699964,466.9348454300016,468.7947883450033,,,,,,,,,151,m,23,2023-04-03_11h15.33.309,RL,2022.2.4,60.10383947932909,
1,58,0,58,0,,,,,,,,,,None,468.7947883450033,468.7947883450033,468.7947883450033,468.7947883450033,468.7947883450033,468.7947883450033,r,0.7193357610012754,469.5720696490025,469.5720696490025,469.5720696490025,469.5720696490025,469.5720696490025,469.5720696490025,469.83705729600115,469.83705729600115,471.70733989600194,471.70733989600194,471.745820842003,471.745820842003,471.745820842003,471.745820842003,471.745820842003,471.745820842003,471.745820842003,471.745820842003,471.745820842003,471.745820842003,471.745820842003,471.745820842003,471.745820842003,471.745820842003,471.745820842003,474.25263745100165,474.25263745100165,474.25263745100165,474.25263745100165,474.25263745100165,54,80,49,17,54,71,3.0,0.6407958380004857,474.9052412230012,476.73210423000273,,,,,,,,,151,m,23,2023-04-03_11h15.33.309,RL,2022.2.4,60.10383947932909,
1,59,0,59,0,,,,,,,,,,None,476.73210423000273,476.73210423000273,476.73210423000273,476.73210423000273,476.73210423000273,476.73210423000273,r,0.9995555739988049,477.77897111900165,477.77897111900165,477.77897111900165,477.77897111900165,477.77897111900165,477.77897111900165,478.05487929500305,478.05487929500305,479.901916275001,479.901916275001,479.9239225400015,479.9239225400015,479.9239225400015,479.9239225400015,479.9239225400015,479.9239225400015,479.9239225400015,479.9239225400015,479.9239225400015,479.9239225400015,479.9239225400015,479.9239225400015,479.9239225400015,479.9239225400015,479.9239225400015,482.43288403800034,482.43288403800034,482.43288403800034,482.43288403800034,482.43288403800034,58,64,48,10,58,66,4.0,0.6815265069999441,483.1264112170029,484.8697562080015,,,,,,,,,151,m,23,2023-04-03_11h15.33.309,RL,2022.2.4,60.10383947932909,
1,60,0,60,0,,,,,,,,,,None,484.8697562080015,484.8697562080015,484.8697562080015,484.8697562080015,484.8697562080015,484.8697562080015,f,0.3931440950000251,485.31836276000104,485.31836276000104,485.31836276000104,485.31836276000104,485.31836276000104,485.31836276000104,485.5926153190012,485.5926153190012,487.17552011800217,487.17552011800217,487.2190324450021,487.2190324450021,487.2190324450021,487.2190324450021,487.2190324450021,487.2190324450021,487.2190324450021,487.2190324450021,487.2190324450021,487.2190324450021,487.2190324450021,487.2190324450021,487.2190324450021,487.2190324450021,487.2190324450021,489.7194875740024,489.7194875740024,489.7194875740024,489.7194875740024,489.7194875740024,62,63,56,21,63,62,4.0,0.3143791330003296,490.04504079400067,492.03970791600295,,,,,,,,,151,m,23,2023-04-03_11h15.33.309,RL,2022.2.4,60.10383947932909,
1,61,0,61,0,,,,,,,,,,None,492.03970791600295,492.03970791600295,492.03970791600295,492.03970791600295,492.03970791600295,492.03970791600295,j,0.2534858010003518,492.3502414270006,492.3502414270006,492.3502414270006,492.3502414270006,492.3502414270006,492.3502414270006,492.617814352001,492.617814352001,494.1818855870006,494.1818855870006,494.2200947340025,494.2200947340025,494.2200947340025,494.2200947340025,494.2200947340025,494.2200947340025,494.2200947340025,494.2200947340025,494.2200947340025,494.2200947340025,494.2200947340025,494.2200947340025,494.2200947340025,494.2200947340025,494.2200947340025,496.72499895500005,496.72499895500005,496.72499895500005,496.72499895500005,496.72499895500005,62,66,53,17,17,36,3.0,0.3962195200001588,497.1349925040013,499.02520223500323,,,,,,,,,151,m,23,2023-04-03_11h15.33.309,RL,2022.2.4,60.10383947932909,
1,62,0,62,0,,,,,,,,,,None,499.02520223500323,499.02520223500323,499.02520223500323,499.02520223500323,499.02520223500323,499.02520223500323,i,0.5098095299981651,499.5864977110032,499.5864977110032,499.5864977110032,499.5864977110032,499.5864977110032,499.5864977110032,499.85502691900183,499.85502691900183,501.0436003640025,501.0436003640025,501.0839237950022,501.0839237950022,501.0839237950022,501.0839237950022,501.0839237950022,501.0839237950022,501.0839237950022,501.0839237950022,501.0839237950022,501.0839237950022,501.0839237950022,501.0839237950022,501.0839237950022,501.0839237950022,501.0839237950022,503.5834380870001,503.5834380870001,503.5834380870001,503.5834380870001,503.5834380870001,65,70,63,18,63,68,4.0,0.3068728280013602,503.90183006400184,505.6630239980004,,,,,,,,,151,m,23,2023-04-03_11h15.33.309,RL,2022.2.4,60.10383947932909,
1,63,0,63,0,,,,,,,,,,None,505.6630239980004,505.6630239980004,505.6630239980004,505.6630239980004,505.6630239980004,505.6630239980004,None,,,,,,,,,,,,,,,,,,,,,,,,,,,,,,,,60,68,61,25,0,**,None,None,511.71307656200224,513.2668988470032,507.19962513800056,511.71307656200224,,,,,,,151,m,23,2023-04-03_11h15.33.309,RL,2022.2.4,60.10383947932909,
1,64,0,64,0,,,,,,,,,,None,513.2668988470032,513.2668988470032,513.2668988470032,513.2668988470032,513.2668988470032,513.2668988470032,f,0.7643035500004771,514.0802571680033,514.0802571680033,514.0802571680033,514.0802571680033,514.0802571680033,514.0802571680033,514.3383517130023,514.3383517130023,515.2793237870028,515.2793237870028,515.3175713689998,515.3175713689998,515.3175713689998,515.3175713689998,515.3175713689998,515.3175713689998,515.3175713689998,515.3175713689998,515.3175713689998,515.3175713689998,515.3175713689998,515.3175713689998,515.3175713689998,515.3175713689998,515.3175713689998,517.8268669310019,517.8268669310019,517.8268669310019,517.8268669310019,517.8268669310019,64,60,60,25,60,68,4.0,0.9358520049972867,518.7766256180003,520.3683854160008,,,,,,,,,151,m,23,2023-04-03_11h15.33.309,RL,2022.2.4,60.10383947932909,
1,65,0,65,0,,,,,,,,,,None,520.3683854160008,520.3683854160008,520.3683854160008,520.3683854160008,520.3683854160008,520.3683854160008,i,0.26435300299999653,520.6741983020001,520.6741983020001,520.6741983020001,520.6741983020001,520.6741983020001,520.6741983020001,520.9439368190033,520.9439368190033,522.5129010420023,522.5129010420023,522.5366388130024,522.5366388130024,522.5366388130024,522.5366388130024,522.5366388130024,522.5366388130024,522.5366388130024,522.5366388130024,522.5366388130024,522.5366388130024,522.5366388130024,522.5366388130024,522.5366388130024,522.5366388130024,522.5366388130024,525.0478940090034,525.0478940090034,525.0478940090034,525.0478940090034,525.0478940090034,56,68,70,26,70,73,4.0,0.4484370520003722,525.5103206350032,527.3904087370029,,,,,,,,,151,m,23,2023-04-03_11h15.33.309,RL,2022.2.4,60.10383947932909,
1,66,0,66,0,,,,,,,,,,None,527.3904087370029,527.3904087370029,527.3904087370029,527.3904087370029,527.3904087370029,527.3904087370029,f,0.4928394519993162,527.9287221900013,527.9287221900013,527.9287221900013,527.9287221900013,527.9287221900013,527.9287221900013,528.1948465880014,528.1948465880014,530.1369717750022,530.1369717750022,530.1754017420026,530.1754017420026,530.1754017420026,530.1754017420026,530.1754017420026,530.1754017420026,530.1754017420026,530.1754017420026,530.1754017420026,530.1754017420026,530.1754017420026,530.1754017420026,530.1754017420026,530.1754017420026,530.1754017420026,532.6902339450025,532.6902339450025,532.6902339450025,532.6902339450025,532.6902339450025,60,70,66,19,70,70,4.0,0.19769333199656103,532.8983441650016,534.743187303,,,,,,,,,151,m,23,2023-04-03_11h15.33.309,RL,2022.2.4,60.10383947932909,
1,67,0,67,0,,,,,,,,,,None,534.743187303,534.743187303,534.743187303,534.743187303,534.743187303,534.743187303,i,0.3320904460015299,535.1308964030031,535.1308964030031,535.1308964030031,535.1308964030031,535.1308964030031,535.1308964030031,535.3994619540026,535.3994619540026,536.544306967,536.544306967,536.5843479200012,536.5843479200012,536.5843479200012,536.5843479200012,536.5843479200012,536.5843479200012,536.5843479200012,536.5843479200012,536.5843479200012,536.5843479200012,536.5843479200012,536.5843479200012,536.5843479200012,536.5843479200012,536.5843479200012,539.0893040400006,539.0893040400006,539.0893040400006,539.0893040400006,539.0893040400006,64,80,66,19,66,38,5.0,0.5541014859991265,539.6605122820001,541.5963272059998,,,,,,,,,151,m,23,2023-04-03_11h15.33.309,RL,2022.2.4,60.10383947932909,
1,68,0,68,0,,,,,,,,,,None,541.5963272059998,541.5963272059998,541.5963272059998,541.5963272059998,541.5963272059998,541.5963272059998,f,0.2201446830003988,541.8589647469998,541.8589647469998,541.8589647469998,541.8589647469998,541.8589647469998,541.8589647469998,542.118510465003,542.118510465003,543.8859236650023,543.8859236650023,543.9460055150012,543.9460055150012,543.9460055150012,543.9460055150012,543.9460055150012,543.9460055150012,543.9460055150012,543.9460055150012,543.9460055150012,543.9460055150012,543.9460055150012,543.9460055150012,543.9460055150012,543.9460055150012,543.9460055150012,546.4534767350015,546.4534767350015,546.4534767350015,546.4534767350015,546.4534767350015,55,75,76,26,75,61,5.0,0.3396929939990514,546.8083501340006,548.4667598450033,,,,,,,,,151,m,23,2023-04-03_11h15.33.309,RL,2022.2.4,60.10383947932909,
1,69,0,69,0,,,,,,,,,,None,548.4667598450033,548.4667598450033,548.4667598450033,548.4667598450033,548.4667598450033,548.4667598450033,r,0.3217641609990096,548.8563640190005,548.8563640190005,548.8563640190005,548.8563640190005,548.8563640190005,548.8563640190005,549.1238537950012,549.1238537950012,550.7379790580017,550.7379790580017,550.7824214259999,550.7824214259999,550.7824214259999,550.7824214259999,550.7824214259999,550.7824214259999,550.7824214259999,550.7824214259999,550.7824214259999,550.7824214259999,550.7824214259999,550.7824214259999,550.7824214259999,550.7824214259999,550.7824214259999,553.2767398760006,553.2767398760006,553.2767398760006,553.2767398760006,553.2767398760006,59,71,73,25,59,63,4.0,0.019938720997743076,553.3107157690029,554.9520760250016,,,,,,,,,151,m,23,2023-04-03_11h15.33.309,RL,2022.2.4,60.10383947932909,
1,70,0,70,0,,,,,,,,,,None,554.9520760250016,554.9520760250016,554.9520760250016,554.9520760250016,554.9520760250016,554.9520760250016,f,0.25824382599967066,555.2625850020013,555.2625850020013,555.2625850020013,555.2625850020013,555.2625850020013,555.2625850020013,555.5393365910022,555.5393365910022,557.3535303950011,557.3535303950011,557.3744478200024,557.3744478200024,557.3744478200024,557.3744478200024,557.3744478200024,557.3744478200024,557.3744478200024,557.3744478200024,557.3744478200024,557.3744478200024,557.3744478200024,557.3744478200024,557.3744478200024,557.3744478200024,557.3744478200024,559.8701170010027,559.8701170010027,559.8701170010027,559.8701170010027,559.8701170010027,57,70,68,26,70,63,5.0,0.37643887599915615,560.2600846430032,561.87287517,,,,,,,,,151,m,23,2023-04-03_11h15.33.309,RL,2022.2.4,60.10383947932909,
1,71,0,71,0,,,,,,,,,,None,561.87287517,561.87287517,561.87287517,561.87287517,561.87287517,561.87287517,j,0.5705171220033662,562.5006200870012,562.5006200870012,562.5006200870012,562.5006200870012,562.5006200870012,562.5006200870012,562.7742067540021,562.7742067540021,564.2834180509999,564.2834180509999,564.3066670220032,564.3066670220032,564.3066670220032,564.3066670220032,564.3066670220032,564.3066670220032,564.3066670220032,564.3066670220032,564.3066670220032,564.3066670220032,564.3066670220032,564.3066670220032,564.3066670220032,564.3066670220032,564.3066670220032,566.8125469870029,566.8125469870029,566.8125469870029,566.8125469870029,566.8125469870029,64,73,73,26,26,61,3.0,0.4915098500023305,567.3175483910018,569.2417713240029,,,,,,,,,151,m,23,2023-04-03_11h15.33.309,RL,2022.2.4,60.10383947932909,
1,72,0,72,0,,,,,,,,,,None,569.2417713240029,569.2417713240029,569.2417713240029,569.2417713240029,569.2417713240029,569.2417713240029,f,0.3786888349968649,569.6680707880005,569.6680707880005,569.6680707880005,569.6680707880005,569.6680707880005,569.6680707880005,569.9267029230032,569.9267029230032,570.966988635002,570.966988635002,571.0057093570031,571.0057093570031,571.0057093570031,571.0057093570031,571.0057093570031,571.0057093570031,571.0057093570031,571.0057093570031,571.0057093570031,571.0057093570031,571.0057093570031,571.0057093570031,571.0057093570031,571.0057093570031,571.0057093570031,573.5093957880017,573.5093957880017,573.5093957880017,573.5093957880017,573.5093957880017,67,78,71,28,78,57,5.0,0.3297128270023677,573.852331045,575.8297091029999,,,,,,,,,151,m,23,2023-04-03_11h15.33.309,RL,2022.2.4,60.10383947932909,
1,73,0,73,0,,,,,,,,,,None,575.8297091029999,575.8297091029999,575.8297091029999,575.8297091029999,575.8297091029999,575.8297091029999,i,0.6452741230023094,576.5297623830011,576.5297623830011,576.5297623830011,576.5297623830011,576.5297623830011,576.5297623830011,576.8023703090003,576.8023703090003,577.8631029580029,577.8631029580029,577.8869050130015,577.8869050130015,577.8869050130015,577.8869050130015,577.8869050130015,577.8869050130015,577.8869050130015,577.8869050130015,577.8869050130015,577.8869050130015,577.8869050130015,577.8869050130015,577.8869050130015,577.8869050130015,577.8869050130015,580.3937774200022,580.3937774200022,580.3937774200022,580.3937774200022,580.3937774200022,66,71,68,20,68,71,4.0,0.2820160970004508,580.6895470740019,582.464747273003,,,,,,,,,151,m,23,2023-04-03_11h15.33.309,RL,2022.2.4,60.10383947932909,
1,74,0,74,0,,,,,,,,,,None,582.464747273003,582.464747273003,582.464747273003,582.464747273003,582.464747273003,582.464747273003,r,0.5373187819968734,583.0531408780007,583.0531408780007,583.0531408780007,583.0531408780007,583.0531408780007,583.0531408780007,583.3259784500005,583.3259784500005,584.8896438120028,584.8896438120028,584.9297594960008,584.9297594960008,584.9297594960008,584.9297594960008,584.9297594960008,584.9297594960008,584.9297594960008,584.9297594960008,584.9297594960008,584.9297594960008,584.9297594960008,584.9297594960008,584.9297594960008,584.9297594960008,584.9297594960008,587.4285871210013,587.4285871210013,587.4285871210013,587.4285871210013,587.4285871210013,74,80,68,37,74,64,5.0,1.350758461998339,588.7927055110013,590.7507505390022,,,,,,,,,151,m,23,2023-04-03_11h15.33.309,RL,2022.2.4,60.10383947932909,
1,75,0,75,0,,,,,,,,,,q,686.1668584550025,686.1668584550025,686.1668584550025,686.1668584550025,686.1668584550025,686.1668584550025,j,0.6270315649999247,686.8602153150023,686.8602153150023,686.8602153150023,686.8602153150023,686.8602153150023,686.8602153150023,687.1214780830014,687.1214780830014,688.1258430280031,688.1258430280031,688.1658416390019,688.1658416390019,688.1658416390019,688.1658416390019,688.1658416390019,688.1658416390019,688.1658416390019,688.1658416390019,688.1658416390019,688.1658416390019,688.1658416390019,688.1658416390019,688.1658416390019,688.1658416390019,688.1658416390019,690.665316259001,690.665316259001,690.665316259001,690.665316259001,690.665316259001,74,66,63,32,32,42,3.0,2.5509475850012677,693.2331052930022,695.2360368700029,,,590.7507505390022,590.7507505390022,95.36813241100026,,,,151,m,23,2023-04-03_11h15.33.309,RL,2022.2.4,60.10383947932909,
1,76,0,76,0,,,,,,,,,,None,695.2360368700029,695.2360368700029,695.2360368700029,695.2360368700029,695.2360368700029,695.2360368700029,r,0.5370747699998901,695.8401387740014,695.8401387740014,695.8401387740014,695.8401387740014,695.8401387740014,695.8401387740014,696.1088446520007,696.1088446520007,697.5052124970025,697.5052124970025,697.5273005840027,697.5273005840027,697.5273005840027,697.5273005840027,697.5273005840027,697.5273005840027,697.5273005840027,697.5273005840027,697.5273005840027,697.5273005840027,697.5273005840027,697.5273005840027,697.5273005840027,697.5273005840027,697.5273005840027,700.036541968002,700.036541968002,700.036541968002,700.036541968002,700.036541968002,75,73,61,23,75,57,5.0,0.5133111429968267,700.5614474460017,702.3400120600018,,,,,,,,,151,m,23,2023-04-03_11h15.33.309,RL,2022.2.4,60.10383947932909,
1,77,0,77,0,,,,,,,,,,None,702.3400120600018,702.3400120600018,702.3400120600018,702.3400120600018,702.3400120600018,702.3400120600018,i,0.5253157960032695,702.9234371470011,702.9234371470011,702.9234371470011,702.9234371470011,702.9234371470011,702.9234371470011,703.1966589220028,703.1966589220028,704.8509664810008,704.8509664810008,704.8917944350032,704.8917944350032,704.8917944350032,704.8917944350032,704.8917944350032,704.8917944350032,704.8917944350032,704.8917944350032,704.8917944350032,704.8917944350032,704.8917944350032,704.8917944350032,704.8917944350032,704.8917944350032,704.8917944350032,707.3954539229999,707.3954539229999,707.3954539229999,707.3954539229999,707.3954539229999,70,70,59,30,59,60,4.0,0.38917295200008084,707.7986403800023,709.3428187030004,,,,,,,,,151,m,23,2023-04-03_11h15.33.309,RL,2022.2.4,60.10383947932909,
1,78,0,78,0,,,,,,,,,,None,709.3428187030004,709.3428187030004,709.3428187030004,709.3428187030004,709.3428187030004,709.3428187030004,r,0.3730535590002546,709.7691804269998,709.7691804269998,709.7691804269998,709.7691804269998,709.7691804269998,709.7691804269998,710.0378241980034,710.0378241980034,711.6819893020001,711.6819893020001,711.7044644300004,711.7044644300004,711.7044644300004,711.7044644300004,711.7044644300004,711.7044644300004,711.7044644300004,711.7044644300004,711.7044644300004,711.7044644300004,711.7044644300004,711.7044644300004,711.7044644300004,711.7044644300004,711.7044644300004,714.2113131810002,714.2113131810002,714.2113131810002,714.2113131810002,714.2113131810002,71,65,61,17,71,51,5.0,0.05512134899981902,714.2926553680009,716.2295267810005,,,,,,,,,151,m,23,2023-04-03_11h15.33.309,RL,2022.2.4,60.10383947932909,
1,79,0,79,0,,,,,,,,,,None,716.2295267810005,716.2295267810005,716.2295267810005,716.2295267810005,716.2295267810005,716.2295267810005,f,0.43322360899765044,716.7075915620007,716.7075915620007,716.7075915620007,716.7075915620007,716.7075915620007,716.7075915620007,716.9853195940013,716.9853195940013,718.6404612960032,718.6404612960032,718.6810749110009,718.6810749110009,718.6810749110009,718.6810749110009,718.6810749110009,718.6810749110009,718.6810749110009,718.6810749110009,718.6810749110009,718.6810749110009,718.6810749110009,718.6810749110009,718.6810749110009,718.6810749110009,718.6810749110009,721.1805711230008,721.1805711230008,721.1805711230008,721.1805711230008,721.1805711230008,70,68,58,30,68,62,5.0,0.22028327299994999,721.4161664210005,723.0977155159999,,,,,,,,,151,m,23,2023-04-03_11h15.33.309,RL,2022.2.4,60.10383947932909,
1,80,0,80,0,,,,,,,,,,None,723.0977155159999,723.0977155159999,723.0977155159999,723.0977155159999,723.0977155159999,723.0977155159999,r,0.4319415370009665,723.5700352170024,723.5700352170024,723.5700352170024,723.5700352170024,723.5700352170024,723.5700352170024,723.8385098020008,723.8385098020008,724.9404230450018,724.9404230450018,724.9628607640007,724.9628607640007,724.9628607640007,724.9628607640007,724.9628607640007,724.9628607640007,724.9628607640007,724.9628607640007,724.9628607640007,724.9628607640007,724.9628607640007,724.9628607640007,724.9628607640007,724.9628607640007,724.9628607640007,727.4632902720004,727.4632902720004,727.4632902720004,727.4632902720004,727.4632902720004,59,64,62,25,59,63,4.0,0.1975821209998685,727.674983451001,729.3839311940028,,,,,,,,,151,m,23,2023-04-03_11h15.33.309,RL,2022.2.4,60.10383947932909,
1,81,0,81,0,,,,,,,,,,None,729.3839311940028,729.3839311940028,729.3839311940028,729.3839311940028,729.3839311940028,729.3839311940028,j,0.471472098997765,729.9106453210006,729.9106453210006,729.9106453210006,729.9106453210006,729.9106453210006,729.9106453210006,730.1773530760001,730.1773530760001,731.3909993130001,731.3909993130001,731.4314760380003,731.4314760380003,731.4314760380003,731.4314760380003,731.4314760380003,731.4314760380003,731.4314760380003,731.4314760380003,731.4314760380003,731.4314760380003,731.4314760380003,731.4314760380003,731.4314760380003,731.4314760380003,731.4314760380003,733.9290812610016,733.9290812610016,733.9290812610016,733.9290812610016,733.9290812610016,73,67,69,25,25,54,3.0,1.1681039709983452,735.110479834002,736.9751762510023,,,,,,,,,151,m,23,2023-04-03_11h15.33.309,RL,2022.2.4,60.10383947932909,
1,82,0,82,0,,,,,,,,,,None,736.9751762510023,736.9751762510023,736.9751762510023,736.9751762510023,736.9751762510023,736.9751762510023,f,0.15002298499894096,737.1814425680022,737.1814425680022,737.1814425680022,737.1814425680022,737.1814425680022,737.1814425680022,737.4478550180029,737.4478550180029,739.0695086020023,739.0695086020023,739.1092719900007,739.1092719900007,739.1092719900007,739.1092719900007,739.1092719900007,739.1092719900007,739.1092719900007,739.1092719900007,739.1092719900007,739.1092719900007,739.1092719900007,739.1092719900007,739.1092719900007,739.1092719900007,739.1092719900007,741.6161546910007,741.6161546910007,741.6161546910007,741.6161546910007,741.6161546910007,71,78,63,27,78,61,5.0,0.12586105599984876,741.7560675970017,743.5085538890016,,,,,,,,,151,m,23,2023-04-03_11h15.33.309,RL,2022.2.4,60.10383947932909,
1,83,0,83,0,,,,,,,,,,None,743.5085538890016,743.5085538890016,743.5085538890016,743.5085538890016,743.5085538890016,743.5085538890016,i,0.33716328400259954,743.8854503700022,743.8854503700022,743.8854503700022,743.8854503700022,743.8854503700022,743.8854503700022,744.1550177330028,744.1550177330028,745.3441176820015,745.3441176820015,745.3854983290003,745.3854983290003,745.3854983290003,745.3854983290003,745.3854983290003,745.3854983290003,745.3854983290003,745.3854983290003,745.3854983290003,745.3854983290003,745.3854983290003,745.3854983290003,745.3854983290003,745.3854983290003,745.3854983290003,747.8864166050007,747.8864166050007,747.8864166050007,747.8864166050007,747.8864166050007,73,72,65,16,65,55,5.0,0.16900330699718324,748.0687787410025,749.9449958250007,,,,,,,,,151,m,23,2023-04-03_11h15.33.309,RL,2022.2.4,60.10383947932909,
1,84,0,84,0,,,,,,,,,,None,749.9449958250007,749.9449958250007,749.9449958250007,749.9449958250007,749.9449958250007,749.9449958250007,r,0.5192839590017684,750.5069734290009,750.5069734290009,750.5069734290009,750.5069734290009,750.5069734290009,750.5069734290009,750.7770631130006,750.7770631130006,751.6127539400004,751.6127539400004,751.6512098040002,751.6512098040002,751.6512098040002,751.6512098040002,751.6512098040002,751.6512098040002,751.6512098040002,751.6512098040002,751.6512098040002,751.6512098040002,751.6512098040002,751.6512098040002,751.6512098040002,751.6512098040002,751.6512098040002,754.1576474170033,754.1576474170033,754.1576474170033,754.1576474170033,754.1576474170033,70,68,67,22,70,61,6.0,0.5665864139991754,754.7381760530006,756.2654362990033,,,,,,,,,151,m,23,2023-04-03_11h15.33.309,RL,2022.2.4,60.10383947932909,
1,85,0,85,0,,,,,,,,,,None,756.2654362990033,756.2654362990033,756.2654362990033,756.2654362990033,756.2654362990033,756.2654362990033,f,0.5084354430000531,756.8251298940013,756.8251298940013,756.8251298940013,756.8251298940013,756.8251298940013,756.8251298940013,757.0907541390006,757.0907541390006,758.2700470640011,758.2700470640011,758.3105156510028,758.3105156510028,758.3105156510028,758.3105156510028,758.3105156510028,758.3105156510028,758.3105156510028,758.3105156510028,758.3105156510028,758.3105156510028,758.3105156510028,758.3105156510028,758.3105156510028,758.3105156510028,758.3105156510028,760.8156177990022,760.8156177990022,760.8156177990022,760.8156177990022,760.8156177990022,66,74,65,22,74,61,6.0,0.23430377099793986,761.0659653330003,762.966933746,,,,,,,,,151,m,23,2023-04-03_11h15.33.309,RL,2022.2.4,60.10383947932909,
1,86,0,86,0,,,,,,,,,,None,762.966933746,762.966933746,762.966933746,762.966933746,762.966933746,762.966933746,i,0.3242367090024345,763.3384671070016,763.3384671070016,763.3384671070016,763.3384671070016,763.3384671070016,763.3384671070016,763.6067142680004,763.6067142680004,764.4890400110016,764.4890400110016,764.5123306580026,764.5123306580026,764.5123306580026,764.5123306580026,764.5123306580026,764.5123306580026,764.5123306580026,764.5123306580026,764.5123306580026,764.5123306580026,764.5123306580026,764.5123306580026,764.5123306580026,764.5123306580026,764.5123306580026,767.0117643250014,767.0117643250014,767.0117643250014,767.0117643250014,767.0117643250014,70,80,64,19,64,59,6.0,0.31866933399942354,767.3437321030033,769.1366437620018,,,,,,,,,151,m,23,2023-04-03_11h15.33.309,RL,2022.2.4,60.10383947932909,
1,87,0,87,0,,,,,,,,,,None,769.1366437620018,769.1366437620018,769.1366437620018,769.1366437620018,769.1366437620018,769.1366437620018,j,0.31929931299964665,769.5108456330017,769.5108456330017,769.5108456330017,769.5108456330017,769.5108456330017,769.5108456330017,769.778675708003,769.778675708003,771.0324139790027,771.0324139790027,771.0728634930019,771.0728634930019,771.0728634930019,771.0728634930019,771.0728634930019,771.0728634930019,771.0728634930019,771.0728634930019,771.0728634930019,771.0728634930019,771.0728634930019,771.0728634930019,771.0728634930019,771.0728634930019,771.0728634930019,773.5760125580018,773.5760125580018,773.5760125580018,773.5760125580018,773.5760125580018,68,71,70,23,23,46,3.0,0.17388428300182568,773.7619895490025,775.5895814790019,,,,,,,,,151,m,23,2023-04-03_11h15.33.309,RL,2022.2.4,60.10383947932909,
1,88,0,88,0,,,,,,,,,,None,775.5895814790019,775.5895814790019,775.5895814790019,775.5895814790019,775.5895814790019,775.5895814790019,f,1.392744587999914,777.0383812340006,777.0383812340006,777.0383812340006,777.0383812340006,777.0383812340006,777.0383812340006,777.2980352490013,777.2980352490013,778.5988844890016,778.5988844890016,778.6403892790004,778.6403892790004,778.6403892790004,778.6403892790004,778.6403892790004,778.6403892790004,778.6403892790004,778.6403892790004,778.6403892790004,778.6403892790004,778.6403892790004,778.6403892790004,778.6403892790004,778.6403892790004,778.6403892790004,781.138543117002,781.138543117002,781.138543117002,781.138543117002,781.138543117002,69,79,71,20,79,60,5.0,0.07306668800083571,781.2282451680003,782.9442618749999,,,,,,,,,151,m,23,2023-04-03_11h15.33.309,RL,2022.2.4,60.10383947932909,
1,89,0,89,0,,,,,,,,,,None,782.9442618749999,782.9442618749999,782.9442618749999,782.9442618749999,782.9442618749999,782.9442618749999,f,0.3519971360001364,783.3553473910033,783.3553473910033,783.3553473910033,783.3553473910033,783.3553473910033,783.3553473910033,783.6202514690012,783.6202514690012,785.5002105380008,785.5002105380008,785.5402665630027,785.5402665630027,785.5402665630027,785.5402665630027,785.5402665630027,785.5402665630027,785.5402665630027,785.5402665630027,785.5402665630027,785.5402665630027,785.5402665630027,785.5402665630027,785.5402665630027,785.5402665630027,785.5402665630027,788.0454829510018,788.0454829510018,788.0454829510018,788.0454829510018,788.0454829510018,71,76,72,21,76,58,5.0,0.19883391199982725,788.2580990300012,790.0145641020026,,,,,,,,,151,m,23,2023-04-03_11h15.33.309,RL,2022.2.4,60.10383947932909,
1,90,0,90,0,,,,,,,,,,None,790.0145641020026,790.0145641020026,790.0145641020026,790.0145641020026,790.0145641020026,790.0145641020026,r,0.34290570999655756,790.411569523003,790.411569523003,790.411569523003,790.411569523003,790.411569523003,790.411569523003,790.6868793300018,790.6868793300018,792.0816681190008,792.0816681190008,792.1049764510026,792.1049764510026,792.1049764510026,792.1049764510026,792.1049764510026,792.1049764510026,792.1049764510026,792.1049764510026,792.1049764510026,792.1049764510026,792.1049764510026,792.1049764510026,792.1049764510026,792.1049764510026,792.1049764510026,794.6069768320012,794.6069768320012,794.6069768320012,794.6069768320012,794.6069768320012,69,70,71,22,69,58,6.0,0.333458311000868,794.9535833520022,796.5342692630002,,,,,,,,,151,m,23,2023-04-03_11h15.33.309,RL,2022.2.4,60.10383947932909,
1,91,0,91,0,,,,,,,,,,None,796.5342692630002,796.5342692630002,796.5342692630002,796.5342692630002,796.5342692630002,796.5342692630002,j,0.34705213900087983,796.9299067730026,796.9299067730026,796.9299067730026,796.9299067730026,796.9299067730026,796.9299067730026,797.2069359180023,797.2069359180023,799.0068443470009,799.0068443470009,799.0460740670023,799.0460740670023,799.0460740670023,799.0460740670023,799.0460740670023,799.0460740670023,799.0460740670023,799.0460740670023,799.0460740670023,799.0460740670023,799.0460740670023,799.0460740670023,799.0460740670023,799.0460740670023,799.0460740670023,801.5506734709998,801.5506734709998,801.5506734709998,801.5506734709998,801.5506734709998,68,70,73,18,18,57,2.0,0.2951554860010219,801.8570923920015,803.5692876690009,,,,,,,,,151,m,23,2023-04-03_11h15.33.309,RL,2022.2.4,60.10383947932909,
1,92,0,92,0,,,,,,,,,,None,803.5692876690009,803.5692876690009,803.5692876690009,803.5692876690009,803.5692876690009,803.5692876690009,f,0.23557935500139138,803.8485942630032,803.8485942630032,803.8485942630032,803.8485942630032,803.8485942630032,803.8485942630032,804.1161833260012,804.1161833260012,805.2943587930022,805.2943587930022,805.3335795570019,805.3335795570019,805.3335795570019,805.3335795570019,805.3335795570019,805.3335795570019,805.3335795570019,805.3335795570019,805.3335795570019,805.3335795570019,805.3335795570019,805.3335795570019,805.3335795570019,805.3335795570019,805.3335795570019,807.8414239980011,807.8414239980011,807.8414239980011,807.8414239980011,807.8414239980011,63,65,73,25,65,55,5.0,0.5935111190010502,808.4487535710032,810.3233848260024,,,,,,,,,151,m,23,2023-04-03_11h15.33.309,RL,2022.2.4,60.10383947932909,
1,93,0,93,0,,,,,,,,,,None,810.3233848260024,810.3233848260024,810.3233848260024,810.3233848260024,810.3233848260024,810.3233848260024,r,0.314437627002917,810.6786894750003,810.6786894750003,810.6786894750003,810.6786894750003,810.6786894750003,810.6786894750003,810.9465684660026,810.9465684660026,811.9573101430033,811.9573101430033,811.9968864300026,811.9968864300026,811.9968864300026,811.9968864300026,811.9968864300026,811.9968864300026,811.9968864300026,811.9968864300026,811.9968864300026,811.9968864300026,811.9968864300026,811.9968864300026,811.9968864300026,811.9968864300026,811.9968864300026,814.504849686,814.504849686,814.504849686,814.504849686,814.504849686,64,64,66,25,64,60,4.0,0.38041735700244317,814.8990414100008,816.8768302570024,,,,,,,,,151,m,23,2023-04-03_11h15.33.309,RL,2022.2.4,60.10383947932909,
1,94,0,94,0,,,,,,,,,,None,816.8768302570024,816.8768302570024,816.8768302570024,816.8768302570024,816.8768302570024,816.8768302570024,f,0.5062211529984779,817.4451933430028,817.4451933430028,817.4451933430028,817.4451933430028,817.4451933430028,817.4451933430028,817.7170308430032,817.7170308430032,818.7218538380002,818.7218538380002,818.7452827790003,818.7452827790003,818.7452827790003,818.7452827790003,818.7452827790003,818.7452827790003,818.7452827790003,818.7452827790003,818.7452827790003,818.7452827790003,818.7452827790003,818.7452827790003,818.7452827790003,818.7452827790003,818.7452827790003,821.249224698,821.249224698,821.249224698,821.249224698,821.249224698,60,63,68,17,63,48,5.0,1.1749449420021847,822.437903109003,824.1802433680023,,,,,,,,,151,m,23,2023-04-03_11h15.33.309,RL,2022.2.4,60.10383947932909,
1,95,0,95,0,,,,,,,,,,None,824.1802433680023,824.1802433680023,824.1802433680023,824.1802433680023,824.1802433680023,824.1802433680023,i,0.27911784000025364,824.5093631960008,824.5093631960008,824.5093631960008,824.5093631960008,824.5093631960008,824.5093631960008,824.7874139890009,824.7874139890009,825.8398635150006,825.8398635150006,825.8797480310022,825.8797480310022,825.8797480310022,825.8797480310022,825.8797480310022,825.8797480310022,825.8797480310022,825.8797480310022,825.8797480310022,825.8797480310022,825.8797480310022,825.8797480310022,825.8797480310022,825.8797480310022,825.8797480310022,828.3792827970028,828.3792827970028,828.3792827970028,828.3792827970028,828.3792827970028,60,62,70,21,70,53,5.0,0.5978299980015436,828.9882743369999,830.6004300860004,,,,,,,,,151,m,23,2023-04-03_11h15.33.309,RL,2022.2.4,60.10383947932909,
1,96,0,96,0,,,,,,,,,,None,830.6004300860004,830.6004300860004,830.6004300860004,830.6004300860004,830.6004300860004,830.6004300860004,f,0.3488792509997438,831.0045185400013,831.0045185400013,831.0045185400013,831.0045185400013,831.0045185400013,831.0045185400013,831.2902709700029,831.2902709700029,833.1193612710013,833.1193612710013,833.1193612710013,833.1193612710013,833.1193612710013,833.1193612710013,833.1193612710013,833.1193612710013,833.1193612710013,833.1193612710013,833.1193612710013,833.1193612710013,833.1193612710013,833.1193612710013,833.1193612710013,833.1193612710013,833.1193612710013,835.6286442430028,835.6286442430028,835.6286442430028,835.6286442430028,835.6286442430028,65,65,71,16,65,53,5.0,0.3503096220010775,835.9904801210032,837.6521266740019,,,,,,,,,151,m,23,2023-04-03_11h15.33.309,RL,2022.2.4,60.10383947932909,
1,97,0,97,0,,,,,,,,,,None,837.6521266740019,837.6521266740019,837.6521266740019,837.6521266740019,837.6521266740019,837.6521266740019,f,0.2831687219986634,837.9914457340019,837.9914457340019,837.9914457340019,837.9914457340019,837.9914457340019,837.9914457340019,838.275899127002,838.275899127002,839.1953411750001,839.1953411750001,839.2167935329999,839.2167935329999,839.2167935329999,839.2167935329999,839.2167935329999,839.2167935329999,839.2167935329999,839.2167935329999,839.2167935329999,839.2167935329999,839.2167935329999,839.2167935329999,839.2167935329999,839.2167935329999,839.2167935329999,841.7217541190003,841.7217541190003,841.7217541190003,841.7217541190003,841.7217541190003,65,63,75,19,63,44,5.0,0.05634683900279924,841.7910291630033,843.6564347519998,,,,,,,,,151,m,23,2023-04-03_11h15.33.309,RL,2022.2.4,60.10383947932909,
1,98,0,98,0,,,,,,,,,,None,843.6564347519998,843.6564347519998,843.6564347519998,843.6564347519998,843.6564347519998,843.6564347519998,None,,,,,,,,,,,,,,,,,,,,,,,,,,,,,,,,71,56,74,20,0,**,None,None,849.6902848240024,851.2430272620004,845.1798310160011,849.6902848240024,,,,,,,151,m,23,2023-04-03_11h15.33.309,RL,2022.2.4,60.10383947932909,
1,99,0,99,0,,,,,,,,,,None,851.2430272620004,851.2430272620004,851.2430272620004,851.2430272620004,851.2430272620004,851.2430272620004,i,0.5601974839992181,851.846382947002,851.846382947002,851.846382947002,851.846382947002,851.846382947002,851.846382947002,852.1159658210017,852.1159658210017,853.7049514760001,853.7049514760001,853.7420927910025,853.7420927910025,853.7420927910025,853.7420927910025,853.7420927910025,853.7420927910025,853.7420927910025,853.7420927910025,853.7420927910025,853.7420927910025,853.7420927910025,853.7420927910025,853.7420927910025,853.7420927910025,853.7420927910025,856.2533035500019,856.2533035500019,856.2533035500019,856.2533035500019,856.2533035500019,73,55,73,12,73,55,5.0,0.39006199700088473,856.6620857990019,858.5467721330024,,,,,,,,,151,m,23,2023-04-03_11h15.33.309,RL,2022.2.4,60.10383947932909,
1,100,0,100,0,,,,,,,,,,None,858.5467721330024,858.5467721330024,858.5467721330024,858.5467721330024,858.5467721330024,858.5467721330024,r,0.30601373099852935,858.9044012930026,858.9044012930026,858.9044012930026,858.9044012930026,858.9044012930026,858.9044012930026,859.1696355910026,859.1696355910026,861.1580144170002,861.1580144170002,861.1989689690017,861.1989689690017,861.1989689690017,861.1989689690017,861.1989689690017,861.1989689690017,861.1989689690017,861.1989689690017,861.1989689690017,861.1989689690017,861.1989689690017,861.1989689690017,861.1989689690017,861.1989689690017,861.1989689690017,863.6959334150015,863.6959334150015,863.6959334150015,863.6959334150015,863.6959334150015,69,63,71,20,69,63,5.0,0.3126591379987076,864.0252369120026,865.6501332000007,,,,,,,,,151,m,23,2023-04-03_11h15.33.309,RL,2022.2.4,60.10383947932909,
1,101,0,101,0,,,,,,,,,,None,865.6501332000007,865.6501332000007,865.6501332000007,865.6501332000007,865.6501332000007,865.6501332000007,f,0.3853124259985634,866.0780533920006,866.0780533920006,866.0780533920006,866.0780533920006,866.0780533920006,866.0780533920006,866.3439105180005,866.3439105180005,868.1934253860018,868.1934253860018,868.2336653650018,868.2336653650018,868.2336653650018,868.2336653650018,868.2336653650018,868.2336653650018,868.2336653650018,868.2336653650018,868.2336653650018,868.2336653650018,868.2336653650018,868.2336653650018,868.2336653650018,868.2336653650018,868.2336653650018,870.7360749130021,870.7360749130021,870.7360749130021,870.7360749130021,870.7360749130021,67,63,75,21,63,49,5.0,0.6270398900014698,871.3748983810001,873.1203143410021,,,,,,,,,151,m,23,2023-04-03_11h15.33.309,RL,2022.2.4,60.10383947932909,
1,102,0,102,0,,,,,,,,,,None,873.1203143410021,873.1203143410021,873.1203143410021,873.1203143410021,873.1203143410021,873.1203143410021,r,0.2723716470027284,873.4424745680008,873.4424745680008,873.4424745680008,873.4424745680008,873.4424745680008,873.4424745680008,873.7096018700031,873.7096018700031,874.6122083350019,874.6122083350019,874.650361461001,874.650361461001,874.650361461001,874.650361461001,874.650361461001,874.650361461001,874.650361461001,874.650361461001,874.650361461001,874.650361461001,874.650361461001,874.650361461001,874.650361461001,874.650361461001,874.650361461001,877.1501513330004,877.1501513330004,877.1501513330004,877.1501513330004,877.1501513330004,77,65,65,24,77,51,6.0,0.37993267199999536,877.5439580540005,879.1389451490031,,,,,,,,,151,m,23,2023-04-03_11h15.33.309,RL,2022.2.4,60.10383947932909,
1,103,0,103,0,,,,,,,,,,None,879.1389451490031,879.1389451490031,879.1389451490031,879.1389451490031,879.1389451490031,879.1389451490031,f,0.2315651760000037,879.4153732020022,879.4153732020022,879.4153732020022,879.4153732020022,879.4153732020022,879.4153732020022,879.6787680880007,879.6787680880007,880.8823126429998,880.8823126429998,880.9393972690013,880.9393972690013,880.9393972690013,880.9393972690013,880.9393972690013,880.9393972690013,880.9393972690013,880.9393972690013,880.9393972690013,880.9393972690013,880.9393972690013,880.9393972690013,880.9393972690013,880.9393972690013,880.9393972690013,883.4513964350008,883.4513964350008,883.4513964350008,883.4513964350008,883.4513964350008,75,64,67,27,64,63,5.0,0.8504187709986581,884.314734966003,885.8581471910002,,,,,,,,,151,m,23,2023-04-03_11h15.33.309,RL,2022.2.4,60.10383947932909,
1,104,0,104,0,,,,,,,,,,None,885.8581471910002,885.8581471910002,885.8581471910002,885.8581471910002,885.8581471910002,885.8581471910002,f,0.39667479100171477,886.3005532070019,886.3005532070019,886.3005532070019,886.3005532070019,886.3005532070019,886.3005532070019,886.5667257170026,886.5667257170026,887.7115250410025,887.7115250410025,887.7522118120032,887.7522118120032,887.7522118120032,887.7522118120032,887.7522118120032,887.7522118120032,887.7522118120032,887.7522118120032,887.7522118120032,887.7522118120032,887.7522118120032,887.7522118120032,887.7522118120032,887.7522118120032,887.7522118120032,890.2533673180005,890.2533673180005,890.2533673180005,890.2533673180005,890.2533673180005,73,59,69,17,59,51,5.0,1.0355236219984363,891.3026923150028,893.0620379910033,,,,,,,,,151,m,23,2023-04-03_11h15.33.309,RL,2022.2.4,60.10383947932909,
1,105,0,105,0,,,,,,,,,,None,893.0620379910033,893.0620379910033,893.0620379910033,893.0620379910033,893.0620379910033,893.0620379910033,j,0.28360597000209964,893.3952246010012,893.3952246010012,893.3952246010012,893.3952246010012,893.3952246010012,893.3952246010012,893.6531409590025,893.6531409590025,894.7849674470017,894.7849674470017,894.8255704280018,894.8255704280018,894.8255704280018,894.8255704280018,894.8255704280018,894.8255704280018,894.8255704280018,894.8255704280018,894.8255704280018,894.8255704280018,894.8255704280018,894.8255704280018,894.8255704280018,894.8255704280018,894.8255704280018,897.3345073380005,897.3345073380005,897.3345073380005,897.3345073380005,897.3345073380005,84,60,60,15,15,42,3.0,0.7234614730004978,898.0711334750013,899.783101357003,,,,,,,,,151,m,23,2023-04-03_11h15.33.309,RL,2022.2.4,60.10383947932909,
1,106,0,106,0,,,,,,,,,,None,899.783101357003,899.783101357003,899.783101357003,899.783101357003,899.783101357003,899.783101357003,j,0.2956990520033287,900.1354175120032,900.1354175120032,900.1354175120032,900.1354175120032,900.1354175120032,900.1354175120032,900.3905179380017,900.3905179380017,901.524034850001,901.524034850001,901.5619937530028,901.5619937530028,901.5619937530028,901.5619937530028,901.5619937530028,901.5619937530028,901.5619937530028,901.5619937530028,901.5619937530028,901.5619937530028,901.5619937530028,901.5619937530028,901.5619937530028,901.5619937530028,901.5619937530028,904.063323497001,904.063323497001,904.063323497001,904.063323497001,904.063323497001,78,55,58,13,13,59,3.0,0.44800385599955916,904.5235636210018,906.1242786410003,,,,,,,,,151,m,23,2023-04-03_11h15.33.309,RL,2022.2.4,60.10383947932909,
1,107,0,107,0,,,,,,,,,,None,906.1242786410003,906.1242786410003,906.1242786410003,906.1242786410003,906.1242786410003,906.1242786410003,f,0.39434661099949153,906.5699921860032,906.5699921860032,906.5699921860032,906.5699921860032,906.5699921860032,906.5699921860032,906.8254813500025,906.8254813500025,908.2800570510008,908.2800570510008,908.3200201860018,908.3200201860018,908.3200201860018,908.3200201860018,908.3200201860018,908.3200201860018,908.3200201860018,908.3200201860018,908.3200201860018,908.3200201860018,908.3200201860018,908.3200201860018,908.3200201860018,908.3200201860018,908.3200201860018,910.820736165002,910.820736165002,910.820736165002,910.820736165002,910.820736165002,78,59,62,5,59,35,5.0,0.0927218940014427,910.9245635160005,912.838514643001,,,,,,,,,151,m,23,2023-04-03_11h15.33.309,RL,2022.2.4,60.10383947932909,
1,108,0,108,0,,,,,,,,,,None,912.838514643001,912.838514643001,912.838514643001,912.838514643001,912.838514643001,912.838514643001,i,0.38064476200088393,913.2624763740023,913.2624763740023,913.2624763740023,913.2624763740023,913.2624763740023,913.2624763740023,913.5291700680027,913.5291700680027,914.3619127080019,914.3619127080019,914.4018582770004,914.4018582770004,914.4018582770004,914.4018582770004,914.4018582770004,914.4018582770004,914.4018582770004,914.4018582770004,914.4018582770004,914.4018582770004,914.4018582770004,914.4018582770004,914.4018582770004,914.4018582770004,914.4018582770004,916.9070124790014,916.9070124790014,916.9070124790014,916.9070124790014,916.9070124790014,86,52,56,18,56,52,4.0,0.4923303659998055,917.4128640039999,918.9412262090009,,,,,,,,,151,m,23,2023-04-03_11h15.33.309,RL,2022.2.4,60.10383947932909,
1,109,0,109,0,,,,,,,,,,None,918.9412262090009,918.9412262090009,918.9412262090009,918.9412262090009,918.9412262090009,918.9412262090009,f,0.2275593630001822,919.2119776520012,919.2119776520012,919.2119776520012,919.2119776520012,919.2119776520012,919.2119776520012,919.4807144320002,919.4807144320002,921.3506969850023,921.3506969850023,921.3890632510011,921.3890632510011,921.3890632510011,921.3890632510011,921.3890632510011,921.3890632510011,921.3890632510011,921.3890632510011,921.3890632510011,921.3890632510011,921.3890632510011,921.3890632510011,921.3890632510011,921.3890632510011,921.3890632510011,923.897646505,923.897646505,923.897646505,923.897646505,923.897646505,86,57,70,15,57,47,5.0,0.8441414119988622,924.7547285540022,926.7628471790013,,,,,,,,,151,m,23,2023-04-03_11h15.33.309,RL,2022.2.4,60.10383947932909,
1,110,0,110,0,,,,,,,,,,None,926.7628471790013,926.7628471790013,926.7628471790013,926.7628471790013,926.7628471790013,926.7628471790013,i,0.31751475900091464,927.1212086520027,927.1212086520027,927.1212086520027,927.1212086520027,927.1212086520027,927.1212086520027,927.3913642250009,927.3913642250009,928.5073518190002,928.5073518190002,928.5474868020028,928.5474868020028,928.5474868020028,928.5474868020028,928.5474868020028,928.5474868020028,928.5474868020028,928.5474868020028,928.5474868020028,928.5474868020028,928.5474868020028,928.5474868020028,928.5474868020028,928.5474868020028,928.5474868020028,931.0476732380012,931.0476732380012,931.0476732380012,931.0476732380012,931.0476732380012,90,68,64,23,64,28,6.0,0.7445686319988454,931.802182194002,933.4658336850007,,,,,,,,,151,m,23,2023-04-03_11h15.33.309,RL,2022.2.4,60.10383947932909,
1,111,0,111,0,,,,,,,,,,None,933.4658336850007,933.4658336850007,933.4658336850007,933.4658336850007,933.4658336850007,933.4658336850007,r,0.37594018199888524,933.889408559,933.889408559,933.889408559,933.889408559,933.889408559,933.889408559,934.1571288100022,934.1571288100022,935.6381300880021,935.6381300880021,935.6791737460007,935.6791737460007,935.6791737460007,935.6791737460007,935.6791737460007,935.6791737460007,935.6791737460007,935.6791737460007,935.6791737460007,935.6791737460007,935.6791737460007,935.6791737460007,935.6791737460007,935.6791737460007,935.6791737460007,938.1766997710001,938.1766997710001,938.1766997710001,938.1766997710001,938.1766997710001,91,60,71,21,91,38,7.0,0.5694977039966034,938.7602851690026,940.6521636880025,,,,,,,,,151,m,23,2023-04-03_11h15.33.309,RL,2022.2.4,60.10383947932909,
1,112,0,112,0,,,,,,,,,,None,940.6521636880025,940.6521636880025,940.6521636880025,940.6521636880025,940.6521636880025,940.6521636880025,f,0.2572546670016891,940.9614840930008,940.9614840930008,940.9614840930008,940.9614840930008,940.9614840930008,940.9614840930008,941.2245430210023,941.2245430210023,942.7865230269999,942.7865230269999,942.8244492000013,942.8244492000013,942.8244492000013,942.8244492000013,942.8244492000013,942.8244492000013,942.8244492000013,942.8244492000013,942.8244492000013,942.8244492000013,942.8244492000013,942.8244492000013,942.8244492000013,942.8244492000013,942.8244492000013,945.3316242890032,945.3316242890032,945.3316242890032,945.3316242890032,945.3316242890032,90,63,72,17,63,42,5.0,0.23450061199764605,945.5800191310009,947.4893651480015,,,,,,,,,151,m,23,2023-04-03_11h15.33.309,RL,2022.2.4,60.10383947932909,
1,113,0,113,0,,,,,,,,,,None,947.4893651480015,947.4893651480015,947.4893651480015,947.4893651480015,947.4893651480015,947.4893651480015,j,0.12949349200061988,947.6650055450009,947.6650055450009,947.6650055450009,947.6650055450009,947.6650055450009,947.6650055450009,947.9341300500018,947.9341300500018,949.245988673003,949.245988673003,949.2846896020019,949.2846896020019,949.2846896020019,949.2846896020019,949.2846896020019,949.2846896020019,949.2846896020019,949.2846896020019,949.2846896020019,949.2846896020019,949.2846896020019,949.2846896020019,949.2846896020019,949.2846896020019,949.2846896020019,951.7883093780001,951.7883093780001,951.7883093780001,951.7883093780001,951.7883093780001,86,61,80,26,26,40,3.0,0.16292119400168303,951.9616109720009,953.9757105190001,,,,,,,,,151,m,23,2023-04-03_11h15.33.309,RL,2022.2.4,60.10383947932909,
1,114,0,114,0,,,,,,,,,,None,953.9757105190001,953.9757105190001,953.9757105190001,953.9757105190001,953.9757105190001,953.9757105190001,f,0.43612316999860923,954.4670631710032,954.4670631710032,954.4670631710032,954.4670631710032,954.4670631710032,954.4670631710032,954.733524356001,954.733524356001,955.9861314139998,955.9861314139998,956.0259412530031,956.0259412530031,956.0259412530031,956.0259412530031,956.0259412530031,956.0259412530031,956.0259412530031,956.0259412530031,956.0259412530031,956.0259412530031,956.0259412530031,956.0259412530031,956.0259412530031,956.0259412530031,956.0259412530031,958.5333155980006,958.5333155980006,958.5333155980006,958.5333155980006,958.5333155980006,85,55,75,26,55,64,3.0,0.37036847800118267,958.9175556050031,960.4955006590026,,,,,,,,,151,m,23,2023-04-03_11h15.33.309,RL,2022.2.4,60.10383947932909,
1,115,0,115,0,,,,,,,,,,None,960.4955006590026,960.4955006590026,960.4955006590026,960.4955006590026,960.4955006590026,960.4955006590026,j,0.322173794000264,960.8803770300001,960.8803770300001,960.8803770300001,960.8803770300001,960.8803770300001,960.8803770300001,961.1509274220007,961.1509274220007,963.0508263890006,963.0508263890006,963.0743848150014,963.0743848150014,963.0743848150014,963.0743848150014,963.0743848150014,963.0743848150014,963.0743848150014,963.0743848150014,963.0743848150014,963.0743848150014,963.0743848150014,963.0743848150014,963.0743848150014,963.0743848150014,963.0743848150014,965.5703805379999,965.5703805379999,965.5703805379999,965.5703805379999,965.5703805379999,81,58,86,22,22,60,3.0,0.6684650030001649,966.2528065200022,967.8318272590004,,,,,,,,,151,m,23,2023-04-03_11h15.33.309,RL,2022.2.4,60.10383947932909,
1,116,0,116,0,,,,,,,,,,None,967.8318272590004,967.8318272590004,967.8318272590004,967.8318272590004,967.8318272590004,967.8318272590004,i,0.2756969990005018,968.1670225520029,968.1670225520029,968.1670225520029,968.1670225520029,968.1670225520029,968.1670225520029,968.4372196310032,968.4372196310032,970.353011467003,970.353011467003,970.3942695820006,970.3942695820006,970.3942695820006,970.3942695820006,970.3942695820006,970.3942695820006,970.3942695820006,970.3942695820006,970.3942695820006,970.3942695820006,970.3942695820006,970.3942695820006,970.3942695820006,970.3942695820006,970.3942695820006,972.9046370480028,972.9046370480028,972.9046370480028,972.9046370480028,972.9046370480028,74,54,85,21,85,58,6.0,0.6904973900018376,973.6086688169999,975.1186366070033,,,,,,,,,151,m,23,2023-04-03_11h15.33.309,RL,2022.2.4,60.10383947932909,
