bandit,trials.thisRepN,trials.thisTrialN,trials.thisN,trials.thisIndex,instru_img1.started,instru_resp.started,instru_resp.keys,instru_resp.rt,instru_img2.started,instru_resp2.started,instru_resp2.keys,instru_resp2.rt,fixbefore_2.started,rest_response.keys,red.started,green.started,yellow.started,blue.started,choose_bandit.started,Fixation.started,choose_bandit.keys,choose_bandit.rt,black.started,red_2.started,green_2.started,yellow_2.started,blue_2.started,fixation_2.started,docs.started,image_2.started,docs.stopped,image_2.stopped,black.stopped,red_2.stopped,green_2.stopped,yellow_2.stopped,blue_2.stopped,fixation_2.stopped,black_com.started,reward_sub.started,palyerb.started,reward__sub.started,compare.started,red_compare.started,green_com.started,yellow_com.started,blue_com.started,image_3.started,slider.started,text.started,image_4.started,image_5.started,rewardyellow,rewardred,rewardblue,rewardgreen,subchoose,playerb,slider.response,slider.rt,intertrialfix.started,intertrialfix.stopped,rest_image.started,rest_response.started,rest_response.rt,image.started,key_resp.started,key_resp.keys,participant,Gender,Age,date,expName,psychopyVersion,frameRate,
,,,,,31.730843299999833,31.730843299999833,space,6.6829371999483556,,,,,,,,,,,,,,,,,,,,,,,,,,,,,,,,,,,,,,,,,,,,,,,,,,,,,,,,,,,,,152,f,31,2023-04-03_11h15.32.791,RL,2022.2.4,59.99926798938713,
,,,,,,,,,38.434993900125846,38.434993900125846,y,14.17687389999628,,,,,,,,,,,,,,,,,,,,,,,,,,,,,,,,,,,,,,,,,,,,,,,,,,,,,,,,,152,f,31,2023-04-03_11h15.32.791,RL,2022.2.4,59.99926798938713,
1,0,0,0,0,,,,,,,,,52.64079309999943,None,53.65596859995276,53.65596859995276,53.65596859995276,53.65596859995276,53.65596859995276,53.65596859995276,f,0.9782509999349713,54.662718300009146,54.662718300009146,54.662718300009146,54.662718300009146,54.662718300009146,54.662718300009146,54.95169169991277,54.95169169991277,55.96561520011164,55.96561520011164,55.98424590006471,55.98424590006471,55.98424590006471,55.98424590006471,55.98424590006471,55.98424590006471,55.98424590006471,55.98424590006471,55.98424590006471,55.98424590006471,55.98424590006471,55.98424590006471,55.98424590006471,55.98424590006471,55.98424590006471,58.4919187000487,58.4919187000487,58.4919187000487,58.4919187000487,58.4919187000487,75,47,39,40,47,44,5.0,2.6916380000766367,61.240537100005895,62.84696609992534,,,,,,,152,f,31,2023-04-03_11h15.32.791,RL,2022.2.4,59.99926798938713,
1,1,0,1,0,,,,,,,,,,None,62.84696609992534,62.84696609992534,62.84696609992534,62.84696609992534,62.84696609992534,62.84696609992534,i,0.9939752998761833,63.863219500053674,63.863219500053674,63.863219500053674,63.863219500053674,63.863219500053674,63.863219500053674,64.16025650012307,64.16025650012307,66.1044896999374,66.1044896999374,66.1044896999374,66.1044896999374,66.1044896999374,66.1044896999374,66.1044896999374,66.1044896999374,66.1044896999374,66.1044896999374,66.1044896999374,66.1044896999374,66.1044896999374,66.1044896999374,66.1044896999374,66.1044896999374,66.1044896999374,68.61391120008193,68.61391120008193,68.61391120008193,68.61391120008193,68.61391120008193,80,49,33,37,33,39,4.0,2.242409799946472,70.87463620002382,72.58712900010869,,,,,,,152,f,31,2023-04-03_11h15.32.791,RL,2022.2.4,59.99926798938713,
1,2,0,2,0,,,,,,,,,,None,72.58712900010869,72.58712900010869,72.58712900010869,72.58712900010869,72.58712900010869,72.58712900010869,r,0.5803493000566959,73.18731599999592,73.18731599999592,73.18731599999592,73.18731599999592,73.18731599999592,73.18731599999592,73.48487340006977,73.48487340006977,74.61469580000266,74.61469580000266,74.61469580000266,74.61469580000266,74.61469580000266,74.61469580000266,74.61469580000266,74.61469580000266,74.61469580000266,74.61469580000266,74.61469580000266,74.61469580000266,74.61469580000266,74.61469580000266,74.61469580000266,74.61469580000266,74.61469580000266,77.1237510999199,77.1237510999199,77.1237510999199,77.1237510999199,77.1237510999199,71,43,30,41,71,41,6.0,0.8469413998536766,77.98848669999279,79.81727290013805,,,,,,,152,f,31,2023-04-03_11h15.32.791,RL,2022.2.4,59.99926798938713,
1,3,0,3,0,,,,,,,,,,None,79.81727290013805,79.81727290013805,79.81727290013805,79.81727290013805,79.81727290013805,79.81727290013805,f,0.778936899965629,80.6177109000273,80.6177109000273,80.6177109000273,80.6177109000273,80.6177109000273,80.6177109000273,80.91473859990947,80.91473859990947,82.11124669993296,82.11124669993296,82.12730700010434,82.12730700010434,82.12730700010434,82.12730700010434,82.12730700010434,82.12730700010434,82.12730700010434,82.12730700010434,82.12730700010434,82.12730700010434,82.12730700010434,82.12730700010434,82.12730700010434,82.12730700010434,82.12730700010434,84.63631400000304,84.63631400000304,84.63631400000304,84.63631400000304,84.63631400000304,86,38,25,39,38,39,5.0,0.7310372998472303,85.38445320003666,87.19709019991569,,,,,,,152,f,31,2023-04-03_11h15.32.791,RL,2022.2.4,59.99926798938713,
1,4,0,4,0,,,,,,,,,,None,87.19709019991569,87.19709019991569,87.19709019991569,87.19709019991569,87.19709019991569,87.19709019991569,i,0.5922857001423836,87.81455340003595,87.81455340003595,87.81455340003595,87.81455340003595,87.81455340003595,87.81455340003595,88.11168890004046,88.11168890004046,89.97278989991173,89.97278989991173,89.97278989991173,89.97278989991173,89.97278989991173,89.97278989991173,89.97278989991173,89.97278989991173,89.97278989991173,89.97278989991173,89.97278989991173,89.97278989991173,89.97278989991173,89.97278989991173,89.97278989991173,89.97278989991173,89.97278989991173,92.48209420009516,92.48209420009516,92.48209420009516,92.48209420009516,92.48209420009516,76,43,34,47,34,52,3.0,1.9108848997857422,94.41026860009879,95.97334740008228,,,,,,,152,f,31,2023-04-03_11h15.32.791,RL,2022.2.4,59.99926798938713,
1,5,0,5,0,,,,,,,,,,None,95.97334740008228,95.97334740008228,95.97334740008228,95.97334740008228,95.97334740008228,95.97334740008228,j,0.45870299986563623,96.45799709996209,96.45799709996209,96.45799709996209,96.45799709996209,96.45799709996209,96.45799709996209,96.7547210000921,96.7547210000921,98.74895579996519,98.74895579996519,98.74895579996519,98.74895579996519,98.74895579996519,98.74895579996519,98.74895579996519,98.74895579996519,98.74895579996519,98.74895579996519,98.74895579996519,98.74895579996519,98.74895579996519,98.74895579996519,98.74895579996519,98.74895579996519,98.74895579996519,101.25827080011368,101.25827080011368,101.25827080011368,101.25827080011368,101.25827080011368,82,47,28,42,42,55,3.0,2.7249576998874545,104.00056240009144,105.53005900001153,,,,,,,152,f,31,2023-04-03_11h15.32.791,RL,2022.2.4,59.99926798938713,
1,6,0,6,0,,,,,,,,,,None,105.53005900001153,105.53005900001153,105.53005900001153,105.53005900001153,105.53005900001153,105.53005900001153,r,0.5170489000156522,106.07933490001597,106.07933490001597,106.07933490001597,106.07933490001597,106.07933490001597,106.07933490001597,106.378149199998,106.378149199998,107.59152760007419,107.59152760007419,107.59152760007419,107.59152760007419,107.59152760007419,107.59152760007419,107.59152760007419,107.59152760007419,107.59152760007419,107.59152760007419,107.59152760007419,107.59152760007419,107.59152760007419,107.59152760007419,107.59152760007419,107.59152760007419,107.59152760007419,110.10108519997448,110.10108519997448,110.10108519997448,110.10108519997448,110.10108519997448,73,48,37,49,73,54,6.0,2.177066099829972,112.29478999995627,113.990740200039,,,,,,,152,f,31,2023-04-03_11h15.32.791,RL,2022.2.4,59.99926798938713,
1,7,0,7,0,,,,,,,,,,None,113.990740200039,113.990740200039,113.990740200039,113.990740200039,113.990740200039,113.990740200039,f,0.3486625999212265,114.37318919994868,114.37318919994868,114.37318919994868,114.37318919994868,114.37318919994868,114.37318919994868,114.67250350001268,114.67250350001268,115.73593119997531,115.73593119997531,115.75283080013469,115.75283080013469,115.75283080013469,115.75283080013469,115.75283080013469,115.75283080013469,115.75283080013469,115.75283080013469,115.75283080013469,115.75283080013469,115.75283080013469,115.75283080013469,115.75283080013469,115.75283080013469,115.75283080013469,118.2616828000173,118.2616828000173,118.2616828000173,118.2616828000173,118.2616828000173,74,49,27,46,49,38,6.0,0.9630875000730157,119.24254249990918,120.77216219995171,,,,,,,152,f,31,2023-04-03_11h15.32.791,RL,2022.2.4,59.99926798938713,
1,8,0,8,0,,,,,,,,,,None,120.77216219995171,120.77216219995171,120.77216219995171,120.77216219995171,120.77216219995171,120.77216219995171,r,0.742110300110653,121.54004020011052,121.54004020011052,121.54004020011052,121.54004020011052,121.54004020011052,121.54004020011052,121.83626500004902,121.83626500004902,123.73116070008837,123.73116070008837,123.73116070008837,123.73116070008837,123.73116070008837,123.73116070008837,123.73116070008837,123.73116070008837,123.73116070008837,123.73116070008837,123.73116070008837,123.73116070008837,123.73116070008837,123.73116070008837,123.73116070008837,123.73116070008837,123.73116070008837,126.23985989997163,126.23985989997163,126.23985989997163,126.23985989997163,126.23985989997163,69,47,28,46,69,53,5.0,3.7217818999197334,129.97965060011484,131.89169210009277,,,,,,,152,f,31,2023-04-03_11h15.32.791,RL,2022.2.4,59.99926798938713,
1,9,0,9,0,,,,,,,,,,None,131.89169210009277,131.89169210009277,131.89169210009277,131.89169210009277,131.89169210009277,131.89169210009277,f,0.33160559996031225,132.2418883999344,132.2418883999344,132.2418883999344,132.2418883999344,132.2418883999344,132.2418883999344,132.54037620010786,132.54037620010786,133.90344640007243,133.90344640007243,133.90344640007243,133.90344640007243,133.90344640007243,133.90344640007243,133.90344640007243,133.90344640007243,133.90344640007243,133.90344640007243,133.90344640007243,133.90344640007243,133.90344640007243,133.90344640007243,133.90344640007243,133.90344640007243,133.90344640007243,136.41217719996348,136.41217719996348,136.41217719996348,136.41217719996348,136.41217719996348,69,48,36,57,48,47,4.0,1.7945570000447333,138.22407330013812,139.73737250012346,,,,,,,152,f,31,2023-04-03_11h15.32.791,RL,2022.2.4,59.99926798938713,
1,10,0,10,0,,,,,,,,,,None,139.73737250012346,139.73737250012346,139.73737250012346,139.73737250012346,139.73737250012346,139.73737250012346,i,0.3387909000739455,140.10510460007936,140.10510460007936,140.10510460007936,140.10510460007936,140.10510460007936,140.10510460007936,140.40209440002218,140.40209440002218,141.94837539992295,141.94837539992295,141.94837539992295,141.94837539992295,141.94837539992295,141.94837539992295,141.94837539992295,141.94837539992295,141.94837539992295,141.94837539992295,141.94837539992295,141.94837539992295,141.94837539992295,141.94837539992295,141.94837539992295,141.94837539992295,141.94837539992295,144.45690879994072,144.45690879994072,144.45690879994072,144.45690879994072,144.45690879994072,67,46,34,52,34,44,2.0,0.9798095000442117,145.45440530008636,147.23308699997142,,,,,,,152,f,31,2023-04-03_11h15.32.791,RL,2022.2.4,59.99926798938713,
1,11,0,11,0,,,,,,,,,,None,147.23308699997142,147.23308699997142,147.23308699997142,147.23308699997142,147.23308699997142,147.23308699997142,r,0.33072840003296733,147.58431060006842,147.58431060006842,147.58431060006842,147.58431060006842,147.58431060006842,147.58431060006842,147.88222249993123,147.88222249993123,149.3773235999979,149.3773235999979,149.3938182001002,149.3938182001002,149.3938182001002,149.3938182001002,149.3938182001002,149.3938182001002,149.3938182001002,149.3938182001002,149.3938182001002,149.3938182001002,149.3938182001002,149.3938182001002,149.3938182001002,149.3938182001002,149.3938182001002,151.90327030001208,151.90327030001208,151.90327030001208,151.90327030001208,151.90327030001208,65,51,26,51,65,46,6.0,1.4949528998695314,153.4157595001161,155.31112600001507,,,,,,,152,f,31,2023-04-03_11h15.32.791,RL,2022.2.4,59.99926798938713,
1,12,0,12,0,,,,,,,,,,None,155.31112600001507,155.31112600001507,155.31112600001507,155.31112600001507,155.31112600001507,155.31112600001507,f,0.4257664999458939,155.7638952000998,155.7638952000998,155.7638952000998,155.7638952000998,155.7638952000998,155.7638952000998,156.05931810010225,156.05931810010225,158.07056479994208,158.07056479994208,158.07056479994208,158.07056479994208,158.07056479994208,158.07056479994208,158.07056479994208,158.07056479994208,158.07056479994208,158.07056479994208,158.07056479994208,158.07056479994208,158.07056479994208,158.07056479994208,158.07056479994208,158.07056479994208,158.07056479994208,160.57967559993267,160.57967559993267,160.57967559993267,160.57967559993267,160.57967559993267,66,49,33,49,49,40,5.0,2.326384900137782,162.92320780013688,164.88516209996305,,,,,,,152,f,31,2023-04-03_11h15.32.791,RL,2022.2.4,59.99926798938713,
1,13,0,13,0,,,,,,,,,,None,164.88516209996305,164.88516209996305,164.88516209996305,164.88516209996305,164.88516209996305,164.88516209996305,r,0.3623657999560237,165.27024860004894,165.27024860004894,165.27024860004894,165.27024860004894,165.27024860004894,165.27024860004894,165.5670141999144,165.5670141999144,167.39527780003846,167.39527780003846,167.39527780003846,167.39527780003846,167.39527780003846,167.39527780003846,167.39527780003846,167.39527780003846,167.39527780003846,167.39527780003846,167.39527780003846,167.39527780003846,167.39527780003846,167.39527780003846,167.39527780003846,167.39527780003846,167.39527780003846,169.90417520003393,169.90417520003393,169.90417520003393,169.90417520003393,169.90417520003393,65,46,24,57,65,42,6.0,1.3286133999936283,171.2506516999565,173.0130221999716,,,,,,,152,f,31,2023-04-03_11h15.32.791,RL,2022.2.4,59.99926798938713,
1,14,0,14,0,,,,,,,,,,None,173.0130221999716,173.0130221999716,173.0130221999716,173.0130221999716,173.0130221999716,173.0130221999716,f,0.38222319982014596,173.41362380003557,173.41362380003557,173.41362380003557,173.41362380003557,173.41362380003557,173.41362380003557,173.71136870002374,173.71136870002374,174.5755956999492,174.5755956999492,174.5755956999492,174.5755956999492,174.5755956999492,174.5755956999492,174.5755956999492,174.5755956999492,174.5755956999492,174.5755956999492,174.5755956999492,174.5755956999492,174.5755956999492,174.5755956999492,174.5755956999492,174.5755956999492,174.5755956999492,177.08467269991525,177.08467269991525,177.08467269991525,177.08467269991525,177.08467269991525,54,46,38,57,46,38,5.0,0.9127422999590635,178.0152424001135,179.8611443999689,,,,,,,152,f,31,2023-04-03_11h15.32.791,RL,2022.2.4,59.99926798938713,
1,15,0,15,0,,,,,,,,,,None,179.8611443999689,179.8611443999689,179.8611443999689,179.8611443999689,179.8611443999689,179.8611443999689,r,0.3829289998393506,180.2771628999617,180.2771628999617,180.2771628999617,180.2771628999617,180.2771628999617,180.2771628999617,180.5760467001237,180.5760467001237,182.52040480007418,182.52040480007418,182.52040480007418,182.52040480007418,182.52040480007418,182.52040480007418,182.52040480007418,182.52040480007418,182.52040480007418,182.52040480007418,182.52040480007418,182.52040480007418,182.52040480007418,182.52040480007418,182.52040480007418,182.52040480007418,182.52040480007418,185.02927900012583,185.02927900012583,185.02927900012583,185.02927900012583,185.02927900012583,64,51,38,56,64,39,6.0,1.1296840999275446,186.17648750008084,187.73944259993732,,,,,,,152,f,31,2023-04-03_11h15.32.791,RL,2022.2.4,59.99926798938713,
1,16,0,16,0,,,,,,,,,,None,187.73944259993732,187.73944259993732,187.73944259993732,187.73944259993732,187.73944259993732,187.73944259993732,f,0.3422284999396652,188.10847450001165,188.10847450001165,188.10847450001165,188.10847450001165,188.10847450001165,188.10847450001165,188.40446630003862,188.40446630003862,189.45143619994633,189.45143619994633,189.45143619994633,189.45143619994633,189.45143619994633,189.45143619994633,189.45143619994633,189.45143619994633,189.45143619994633,189.45143619994633,189.45143619994633,189.45143619994633,189.45143619994633,189.45143619994633,189.45143619994633,189.45143619994633,189.45143619994633,191.9605642000679,191.9605642000679,191.9605642000679,191.9605642000679,191.9605642000679,57,45,33,57,45,43,4.0,1.0295948998536915,193.0074088999536,194.5538749000989,,,,,,,152,f,31,2023-04-03_11h15.32.791,RL,2022.2.4,59.99926798938713,
1,17,0,17,0,,,,,,,,,,None,194.5538749000989,194.5538749000989,194.5538749000989,194.5538749000989,194.5538749000989,194.5538749000989,r,0.3270020999480039,194.90575979999267,194.90575979999267,194.90575979999267,194.90575979999267,194.90575979999267,194.90575979999267,195.20266880001873,195.20266880001873,196.08321810001507,196.08321810001507,196.08321810001507,196.08321810001507,196.08321810001507,196.08321810001507,196.08321810001507,196.08321810001507,196.08321810001507,196.08321810001507,196.08321810001507,196.08321810001507,196.08321810001507,196.08321810001507,196.08321810001507,196.08321810001507,196.08321810001507,198.59235180006362,198.59235180006362,198.59235180006362,198.59235180006362,198.59235180006362,59,46,34,55,59,58,4.0,1.7602806000504643,200.37130140000954,202.33257660013624,,,,,,,152,f,31,2023-04-03_11h15.32.791,RL,2022.2.4,59.99926798938713,
1,18,0,18,0,,,,,,,,,,None,202.33257660013624,202.33257660013624,202.33257660013624,202.33257660013624,202.33257660013624,202.33257660013624,f,0.295955799985677,202.65038889995776,202.65038889995776,202.65038889995776,202.65038889995776,202.65038889995776,202.65038889995776,202.9482273000758,202.9482273000758,203.79571150010452,203.79571150010452,203.79571150010452,203.79571150010452,203.79571150010452,203.79571150010452,203.79571150010452,203.79571150010452,203.79571150010452,203.79571150010452,203.79571150010452,203.79571150010452,203.79571150010452,203.79571150010452,203.79571150010452,203.79571150010452,203.79571150010452,206.30474840011448,206.30474840011448,206.30474840011448,206.30474840011448,206.30474840011448,57,42,32,62,42,34,5.0,0.6642501999158412,206.98595160013065,208.98149799997918,,,,,,,152,f,31,2023-04-03_11h15.32.791,RL,2022.2.4,59.99926798938713,
1,19,0,19,0,,,,,,,,,,None,208.98149799997918,208.98149799997918,208.98149799997918,208.98149799997918,208.98149799997918,208.98149799997918,f,0.6896806000731885,209.69872709992342,209.69872709992342,209.69872709992342,209.69872709992342,209.69872709992342,209.69872709992342,209.9952877999749,209.9952877999749,211.9066667999141,211.9066667999141,211.923370399978,211.923370399978,211.923370399978,211.923370399978,211.923370399978,211.923370399978,211.923370399978,211.923370399978,211.923370399978,211.923370399978,211.923370399978,211.923370399978,211.923370399978,211.923370399978,211.923370399978,214.4325419999659,214.4325419999659,214.4325419999659,214.4325419999659,214.4325419999659,60,40,41,56,40,52,2.0,0.9301954000256956,215.38017460005358,217.2422450000886,,,,,,,152,f,31,2023-04-03_11h15.32.791,RL,2022.2.4,59.99926798938713,
1,20,0,20,0,,,,,,,,,,None,217.2422450000886,217.2422450000886,217.2422450000886,217.2422450000886,217.2422450000886,217.2422450000886,j,0.35123350005596876,217.62475290009752,217.62475290009752,217.62475290009752,217.62475290009752,217.62475290009752,217.62475290009752,217.9239368000999,217.9239368000999,219.65264989994466,219.65264989994466,219.65264989994466,219.65264989994466,219.65264989994466,219.65264989994466,219.65264989994466,219.65264989994466,219.65264989994466,219.65264989994466,219.65264989994466,219.65264989994466,219.65264989994466,219.65264989994466,219.65264989994466,219.65264989994466,219.65264989994466,222.1613072999753,222.1613072999753,222.1613072999753,222.1613072999753,222.1613072999753,60,29,44,60,60,43,6.0,1.4616358999628574,223.64098399993964,225.35363829997368,,,,,,,152,f,31,2023-04-03_11h15.32.791,RL,2022.2.4,59.99926798938713,
1,21,0,21,0,,,,,,,,,,None,225.35363829997368,225.35363829997368,225.35363829997368,225.35363829997368,225.35363829997368,225.35363829997368,i,0.9665908000897616,226.35395410005003,226.35395410005003,226.35395410005003,226.35395410005003,226.35395410005003,226.35395410005003,226.6503377999179,226.6503377999179,228.32874920009635,228.32874920009635,228.32874920009635,228.32874920009635,228.32874920009635,228.32874920009635,228.32874920009635,228.32874920009635,228.32874920009635,228.32874920009635,228.32874920009635,228.32874920009635,228.32874920009635,228.32874920009635,228.32874920009635,228.32874920009635,228.32874920009635,230.83747110003605,230.83747110003605,230.83747110003605,230.83747110003605,230.83747110003605,55,35,46,56,46,66,2.0,0.8799048000946641,231.73564040008932,233.48086840007454,,,,,,,152,f,31,2023-04-03_11h15.32.791,RL,2022.2.4,59.99926798938713,
1,22,0,22,0,,,,,,,,,,None,233.48086840007454,233.48086840007454,233.48086840007454,233.48086840007454,233.48086840007454,233.48086840007454,r,0.5473572998307645,234.04950179997832,234.04950179997832,234.04950179997832,234.04950179997832,234.04950179997832,234.04950179997832,234.34582570008934,234.34582570008934,236.20778640010394,236.20778640010394,236.20778640010394,236.20778640010394,236.20778640010394,236.20778640010394,236.20778640010394,236.20778640010394,236.20778640010394,236.20778640010394,236.20778640010394,236.20778640010394,236.20778640010394,236.20778640010394,236.20778640010394,236.20778640010394,236.20778640010394,238.71662289998494,238.71662289998494,238.71662289998494,238.71662289998494,238.71662289998494,65,29,50,59,65,40,6.0,0.8792940001003444,239.6139938000124,241.54272829997353,,,,,,,152,f,31,2023-04-03_11h15.32.791,RL,2022.2.4,59.99926798938713,
1,23,0,23,0,,,,,,,,,,None,241.54272829997353,241.54272829997353,241.54272829997353,241.54272829997353,241.54272829997353,241.54272829997353,f,1.0175193999893963,242.59278200007975,242.59278200007975,242.59278200007975,242.59278200007975,242.59278200007975,242.59278200007975,242.8892670001369,242.8892670001369,243.77003929996863,243.77003929996863,243.78710670000874,243.78710670000874,243.78710670000874,243.78710670000874,243.78710670000874,243.78710670000874,243.78710670000874,243.78710670000874,243.78710670000874,243.78710670000874,243.78710670000874,243.78710670000874,243.78710670000874,243.78710670000874,243.78710670000874,246.2956765999552,246.2956765999552,246.2956765999552,246.2956765999552,246.2956765999552,71,42,46,63,42,55,2.0,4.104179400019348,250.41796070011333,252.34611520008184,,,,,,,152,f,31,2023-04-03_11h15.32.791,RL,2022.2.4,59.99926798938713,
1,24,0,24,0,,,,,,,,,,None,252.34611520008184,252.34611520008184,252.34611520008184,252.34611520008184,252.34611520008184,252.34611520008184,r,0.3594922998454422,252.73179619992152,252.73179619992152,252.73179619992152,252.73179619992152,252.73179619992152,252.73179619992152,253.02862960007042,253.02862960007042,254.87310580001213,254.87310580001213,254.87310580001213,254.87310580001213,254.87310580001213,254.87310580001213,254.87310580001213,254.87310580001213,254.87310580001213,254.87310580001213,254.87310580001213,254.87310580001213,254.87310580001213,254.87310580001213,254.87310580001213,254.87310580001213,254.87310580001213,257.3816734999418,257.3816734999418,257.3816734999418,257.3816734999418,257.3816734999418,62,26,52,65,62,29,6.0,1.8278020999860018,259.2268710001372,261.0722765000537,,,,,,,152,f,31,2023-04-03_11h15.32.791,RL,2022.2.4,59.99926798938713,
1,25,0,25,0,,,,,,,,,,None,261.0722765000537,261.0722765000537,261.0722765000537,261.0722765000537,261.0722765000537,261.0722765000537,j,1.1242942998651415,262.2222869999241,262.2222869999241,262.2222869999241,262.2222869999241,262.2222869999241,262.2222869999241,262.5190544000361,262.5190544000361,263.4159468000289,263.4159468000289,263.4329301000107,263.4329301000107,263.4329301000107,263.4329301000107,263.4329301000107,263.4329301000107,263.4329301000107,263.4329301000107,263.4329301000107,263.4329301000107,263.4329301000107,263.4329301000107,263.4329301000107,263.4329301000107,263.4329301000107,265.94211270008236,265.94211270008236,265.94211270008236,265.94211270008236,265.94211270008236,66,23,47,56,56,59,3.0,0.7626624999102205,266.7234461000189,268.2362289999146,,,,,,,152,f,31,2023-04-03_11h15.32.791,RL,2022.2.4,59.99926798938713,
1,26,0,26,0,,,,,,,,,,None,268.2362289999146,268.2362289999146,268.2362289999146,268.2362289999146,268.2362289999146,268.2362289999146,f,1.0177438000682741,269.286246499978,269.286246499978,269.286246499978,269.286246499978,269.286246499978,269.286246499978,269.5828283999581,269.5828283999581,270.77937479992397,270.77937479992397,270.7964453001041,270.7964453001041,270.7964453001041,270.7964453001041,270.7964453001041,270.7964453001041,270.7964453001041,270.7964453001041,270.7964453001041,270.7964453001041,270.7964453001041,270.7964453001041,270.7964453001041,270.7964453001041,270.7964453001041,273.3049180000089,273.3049180000089,273.3049180000089,273.3049180000089,273.3049180000089,68,34,37,54,34,55,2.0,0.8634651999454945,274.18575219996274,275.84915210003965,,,,,,,152,f,31,2023-04-03_11h15.32.791,RL,2022.2.4,59.99926798938713,
1,27,0,27,0,,,,,,,,,,None,275.84915210003965,275.84915210003965,275.84915210003965,275.84915210003965,275.84915210003965,275.84915210003965,r,0.373325000051409,276.2516091999132,276.2516091999132,276.2516091999132,276.2516091999132,276.2516091999132,276.2516091999132,276.54759410000406,276.54759410000406,278.15955039998516,278.15955039998516,278.15955039998516,278.15955039998516,278.15955039998516,278.15955039998516,278.15955039998516,278.15955039998516,278.15955039998516,278.15955039998516,278.15955039998516,278.15955039998516,278.15955039998516,278.15955039998516,278.15955039998516,278.15955039998516,278.15955039998516,280.6683676999528,280.6683676999528,280.6683676999528,280.6683676999528,280.6683676999528,66,28,43,55,66,62,3.0,0.7463208998087794,281.43339130003005,283.24535729992203,,,,,,,152,f,31,2023-04-03_11h15.32.791,RL,2022.2.4,59.99926798938713,
1,28,0,28,0,,,,,,,,,,None,283.24535729992203,283.24535729992203,283.24535729992203,283.24535729992203,283.24535729992203,283.24535729992203,i,0.3147128000855446,283.5797796000261,283.5797796000261,283.5797796000261,283.5797796000261,283.5797796000261,283.5797796000261,283.87737679993734,283.87737679993734,284.7581563000567,284.7581563000567,284.7581563000567,284.7581563000567,284.7581563000567,284.7581563000567,284.7581563000567,284.7581563000567,284.7581563000567,284.7581563000567,284.7581563000567,284.7581563000567,284.7581563000567,284.7581563000567,284.7581563000567,284.7581563000567,284.7581563000567,287.267368900124,287.267368900124,287.267368900124,287.267368900124,287.267368900124,66,35,48,60,48,35,5.0,1.3950607997830957,288.6802026000805,290.5754114999436,,,,,,,152,f,31,2023-04-03_11h15.32.791,RL,2022.2.4,59.99926798938713,
1,29,0,29,0,,,,,,,,,,None,290.5754114999436,290.5754114999436,290.5754114999436,290.5754114999436,290.5754114999436,290.5754114999436,i,0.32222190010361373,290.9278355001006,290.9278355001006,290.9278355001006,290.9278355001006,290.9278355001006,290.9278355001006,291.2234163999092,291.2234163999092,292.05492720007896,292.05492720007896,292.0716001999099,292.0716001999099,292.0716001999099,292.0716001999099,292.0716001999099,292.0716001999099,292.0716001999099,292.0716001999099,292.0716001999099,292.0716001999099,292.0716001999099,292.0716001999099,292.0716001999099,292.0716001999099,292.0716001999099,294.58057580003515,294.58057580003515,294.58057580003515,294.58057580003515,294.58057580003515,64,37,44,54,44,65,2.0,1.7445097998715937,296.3424354000017,298.1712909999769,,,,,,,152,f,31,2023-04-03_11h15.32.791,RL,2022.2.4,59.99926798938713,
1,30,0,30,0,,,,,,,,,,None,298.1712909999769,298.1712909999769,298.1712909999769,298.1712909999769,298.1712909999769,298.1712909999769,j,1.0737799999769777,299.26985200005583,299.26985200005583,299.26985200005583,299.26985200005583,299.26985200005583,299.26985200005583,299.5680235000327,299.5680235000327,300.5151943999808,300.5151943999808,300.5151943999808,300.5151943999808,300.5151943999808,300.5151943999808,300.5151943999808,300.5151943999808,300.5151943999808,300.5151943999808,300.5151943999808,300.5151943999808,300.5151943999808,300.5151943999808,300.5151943999808,300.5151943999808,300.5151943999808,303.02445979998447,303.02445979998447,303.02445979998447,303.02445979998447,303.02445979998447,60,40,52,62,62,61,4.0,0.863137099891901,303.905193899991,305.45150290010497,,,,,,,152,f,31,2023-04-03_11h15.32.791,RL,2022.2.4,59.99926798938713,
1,31,0,31,0,,,,,,,,,,None,305.45150290010497,305.45150290010497,305.45150290010497,305.45150290010497,305.45150290010497,305.45150290010497,r,0.3427726000081748,305.8197067999281,305.8197067999281,305.8197067999281,305.8197067999281,305.8197067999281,305.8197067999281,306.11622460000217,306.11622460000217,307.54589459998533,307.54589459998533,307.54589459998533,307.54589459998533,307.54589459998533,307.54589459998533,307.54589459998533,307.54589459998533,307.54589459998533,307.54589459998533,307.54589459998533,307.54589459998533,307.54589459998533,307.54589459998533,307.54589459998533,307.54589459998533,307.54589459998533,310.05518379993737,310.05518379993737,310.05518379993737,310.05518379993737,310.05518379993737,64,43,50,51,64,57,5.0,0.6461743998806924,310.7199120000005,312.4825015999377,,,,,,,152,f,31,2023-04-03_11h15.32.791,RL,2022.2.4,59.99926798938713,
1,32,0,32,0,,,,,,,,,,None,312.4825015999377,312.4825015999377,312.4825015999377,312.4825015999377,312.4825015999377,312.4825015999377,j,0.4396925999317318,312.949156699935,312.949156699935,312.949156699935,312.949156699935,312.949156699935,312.949156699935,313.24703900003806,313.24703900003806,314.7761949999258,314.7761949999258,314.7761949999258,314.7761949999258,314.7761949999258,314.7761949999258,314.7761949999258,314.7761949999258,314.7761949999258,314.7761949999258,314.7761949999258,314.7761949999258,314.7761949999258,314.7761949999258,314.7761949999258,314.7761949999258,314.7761949999258,317.28491550008766,317.28491550008766,317.28491550008766,317.28491550008766,317.28491550008766,59,40,61,53,53,45,6.0,1.3612364998552948,318.6649978000205,320.3442776000593,,,,,,,152,f,31,2023-04-03_11h15.32.791,RL,2022.2.4,59.99926798938713,
1,33,0,33,0,,,,,,,,,,None,320.3442776000593,320.3442776000593,320.3442776000593,320.3442776000593,320.3442776000593,320.3442776000593,i,0.24516960000619292,320.61356030008756,320.61356030008756,320.61356030008756,320.61356030008756,320.61356030008756,320.61356030008756,320.90969870006666,320.90969870006666,321.8568027000874,321.8568027000874,321.8568027000874,321.8568027000874,321.8568027000874,321.8568027000874,321.8568027000874,321.8568027000874,321.8568027000874,321.8568027000874,321.8568027000874,321.8568027000874,321.8568027000874,321.8568027000874,321.8568027000874,321.8568027000874,321.8568027000874,324.3657379001379,324.3657379001379,324.3657379001379,324.3657379001379,324.3657379001379,54,37,51,47,51,40,6.0,0.8458871999755502,325.23029060009867,326.9928063999396,,,,,,,152,f,31,2023-04-03_11h15.32.791,RL,2022.2.4,59.99926798938713,
1,34,0,34,0,,,,,,,,,,None,326.9928063999396,326.9928063999396,326.9928063999396,326.9928063999396,326.9928063999396,326.9928063999396,r,0.295875399839133,327.31213320000097,327.31213320000097,327.31213320000097,327.31213320000097,327.31213320000097,327.31213320000097,327.6079849000089,327.6079849000089,328.98710320005193,328.98710320005193,328.98710320005193,328.98710320005193,328.98710320005193,328.98710320005193,328.98710320005193,328.98710320005193,328.98710320005193,328.98710320005193,328.98710320005193,328.98710320005193,328.98710320005193,328.98710320005193,328.98710320005193,328.98710320005193,328.98710320005193,331.4965297000017,331.4965297000017,331.4965297000017,331.4965297000017,331.4965297000017,58,45,54,56,58,62,2.0,0.6472218001727015,332.1614199001342,334.0571238999255,,,,,,,152,f,31,2023-04-03_11h15.32.791,RL,2022.2.4,59.99926798938713,
1,35,0,35,0,,,,,,,,,,None,334.0571238999255,334.0571238999255,334.0571238999255,334.0571238999255,334.0571238999255,334.0571238999255,r,0.5135596001055092,334.5916838000994,334.5916838000994,334.5916838000994,334.5916838000994,334.5916838000994,334.5916838000994,334.88822209998034,334.88822209998034,336.10136749991216,336.10136749991216,336.10136749991216,336.10136749991216,336.10136749991216,336.10136749991216,336.10136749991216,336.10136749991216,336.10136749991216,336.10136749991216,336.10136749991216,336.10136749991216,336.10136749991216,336.10136749991216,336.10136749991216,336.10136749991216,336.10136749991216,338.61062950012274,338.61062950012274,338.61062950012274,338.61062950012274,338.61062950012274,57,44,45,40,57,52,5.0,1.9600957999937236,340.58831300004385,342.3508461001329,,,,,,,152,f,31,2023-04-03_11h15.32.791,RL,2022.2.4,59.99926798938713,
1,36,0,36,0,,,,,,,,,,None,342.3508461001329,342.3508461001329,342.3508461001329,342.3508461001329,342.3508461001329,342.3508461001329,i,0.8972173999063671,343.2683626001235,343.2683626001235,343.2683626001235,343.2683626001235,343.2683626001235,343.2683626001235,343.5646987000946,343.5646987000946,344.9108420999255,344.9108420999255,344.9108420999255,344.9108420999255,344.9108420999255,344.9108420999255,344.9108420999255,344.9108420999255,344.9108420999255,344.9108420999255,344.9108420999255,344.9108420999255,344.9108420999255,344.9108420999255,344.9108420999255,344.9108420999255,344.9108420999255,347.4196625999175,347.4196625999175,347.4196625999175,347.4196625999175,347.4196625999175,49,37,50,52,50,56,3.0,2.093750699888915,349.530732100131,351.3924457000103,,,,,,,152,f,31,2023-04-03_11h15.32.791,RL,2022.2.4,59.99926798938713,
1,37,0,37,0,,,,,,,,,,None,351.3924457000103,351.3924457000103,351.3924457000103,351.3924457000103,351.3924457000103,351.3924457000103,j,0.3364025999326259,351.7591287000105,351.7591287000105,351.7591287000105,351.7591287000105,351.7591287000105,351.7591287000105,352.0579840000719,352.0579840000719,353.45394759997725,353.45394759997725,353.45394759997725,353.45394759997725,353.45394759997725,353.45394759997725,353.45394759997725,353.45394759997725,353.45394759997725,353.45394759997725,353.45394759997725,353.45394759997725,353.45394759997725,353.45394759997725,353.45394759997725,353.45394759997725,353.45394759997725,355.96292620012537,355.96292620012537,355.96292620012537,355.96292620012537,355.96292620012537,54,44,53,64,64,49,6.0,0.9963841999415308,356.9769063000567,358.838846599916,,,,,,,152,f,31,2023-04-03_11h15.32.791,RL,2022.2.4,59.99926798938713,
1,38,0,38,0,,,,,,,,,,None,358.838846599916,358.838846599916,358.838846599916,358.838846599916,358.838846599916,358.838846599916,i,0.42381339985877275,359.2909448000137,359.2909448000137,359.2909448000137,359.2909448000137,359.2909448000137,359.2909448000137,359.58747270004824,359.58747270004824,360.4684629999101,360.4684629999101,360.4684629999101,360.4684629999101,360.4684629999101,360.4684629999101,360.4684629999101,360.4684629999101,360.4684629999101,360.4684629999101,360.4684629999101,360.4684629999101,360.4684629999101,360.4684629999101,360.4684629999101,360.4684629999101,360.4684629999101,362.97702160011977,362.97702160011977,362.97702160011977,362.97702160011977,362.97702160011977,63,49,56,62,56,57,4.0,0.6800905000418425,363.6754974001087,365.62111070007086,,,,,,,152,f,31,2023-04-03_11h15.32.791,RL,2022.2.4,59.99926798938713,
1,39,0,39,0,,,,,,,,,,None,365.62111070007086,365.62111070007086,365.62111070007086,365.62111070007086,365.62111070007086,365.62111070007086,j,0.6392522999085486,366.2877162999939,366.2877162999939,366.2877162999939,366.2877162999939,366.2877162999939,366.2877162999939,366.5850897000637,366.5850897000637,367.39913309994154,367.39913309994154,367.39913309994154,367.39913309994154,367.39913309994154,367.39913309994154,367.39913309994154,367.39913309994154,367.39913309994154,367.39913309994154,367.39913309994154,367.39913309994154,367.39913309994154,367.39913309994154,367.39913309994154,367.39913309994154,367.39913309994154,369.9082649999764,369.9082649999764,369.9082649999764,369.9082649999764,369.9082649999764,53,37,49,64,64,59,6.0,0.8132886001840234,370.73986790003255,372.40175740001723,,,,,,,152,f,31,2023-04-03_11h15.32.791,RL,2022.2.4,59.99926798938713,
1,40,0,40,0,,,,,,,,,,None,372.40175740001723,372.40175740001723,372.40175740001723,372.40175740001723,372.40175740001723,372.40175740001723,i,0.8821666000876576,373.31845910008997,373.31845910008997,373.31845910008997,373.31845910008997,373.31845910008997,373.31845910008997,373.61584069998935,373.61584069998935,375.59317469992675,375.59317469992675,375.59317469992675,375.59317469992675,375.59317469992675,375.59317469992675,375.59317469992675,375.59317469992675,375.59317469992675,375.59317469992675,375.59317469992675,375.59317469992675,375.59317469992675,375.59317469992675,375.59317469992675,375.59317469992675,375.59317469992675,378.10221359995194,378.10221359995194,378.10221359995194,378.10221359995194,378.10221359995194,58,38,53,55,53,54,4.0,0.5481962999328971,378.6680016000755,380.5798001999501,,,,,,,152,f,31,2023-04-03_11h15.32.791,RL,2022.2.4,59.99926798938713,
1,41,0,41,0,,,,,,,,,,None,380.5798001999501,380.5798001999501,380.5798001999501,380.5798001999501,380.5798001999501,380.5798001999501,i,0.38489020010456443,380.9986914000474,380.9986914000474,380.9986914000474,380.9986914000474,380.9986914000474,380.9986914000474,381.29503530007787,381.29503530007787,383.1396320001222,383.1396320001222,383.1396320001222,383.1396320001222,383.1396320001222,383.1396320001222,383.1396320001222,383.1396320001222,383.1396320001222,383.1396320001222,383.1396320001222,383.1396320001222,383.1396320001222,383.1396320001222,383.1396320001222,383.1396320001222,383.1396320001222,385.6484823001083,385.6484823001083,385.6484823001083,385.6484823001083,385.6484823001083,56,44,52,60,52,51,4.0,1.1957806998398155,386.86226640013047,388.82408819999546,,,,,,,152,f,31,2023-04-03_11h15.32.791,RL,2022.2.4,59.99926798938713,
1,42,0,42,0,,,,,,,,,,None,388.82408819999546,388.82408819999546,388.82408819999546,388.82408819999546,388.82408819999546,388.82408819999546,i,0.5576535000000149,389.4069984999951,389.4069984999951,389.4069984999951,389.4069984999951,389.4069984999951,389.4069984999951,389.70528270001523,389.70528270001523,390.83533590007573,390.83533590007573,390.83533590007573,390.83533590007573,390.83533590007573,390.83533590007573,390.83533590007573,390.83533590007573,390.83533590007573,390.83533590007573,390.83533590007573,390.83533590007573,390.83533590007573,390.83533590007573,390.83533590007573,390.83533590007573,390.83533590007573,393.3445743001066,393.3445743001066,393.3445743001066,393.3445743001066,393.3445743001066,67,43,52,60,52,46,5.0,2.7583856999408454,396.12035290012136,398.04874860006385,,,,,,,152,f,31,2023-04-03_11h15.32.791,RL,2022.2.4,59.99926798938713,
1,43,0,43,0,,,,,,,,,,None,398.04874860006385,398.04874860006385,398.04874860006385,398.04874860006385,398.04874860006385,398.04874860006385,f,0.39341500005684793,398.46727479994297,398.46727479994297,398.46727479994297,398.46727479994297,398.46727479994297,398.46727479994297,398.7633211000357,398.7633211000357,400.02666729991324,400.02666729991324,400.02666729991324,400.02666729991324,400.02666729991324,400.02666729991324,400.02666729991324,400.02666729991324,400.02666729991324,400.02666729991324,400.02666729991324,400.02666729991324,400.02666729991324,400.02666729991324,400.02666729991324,400.02666729991324,400.02666729991324,402.536164799938,402.536164799938,402.536164799938,402.536164799938,402.536164799938,49,46,56,62,46,55,3.0,1.6946769999340177,404.24845959991217,405.8272438000422,,,,,,,152,f,31,2023-04-03_11h15.32.791,RL,2022.2.4,59.99926798938713,
1,44,0,44,0,,,,,,,,,,None,405.8272438000422,405.8272438000422,405.8272438000422,405.8272438000422,405.8272438000422,405.8272438000422,r,0.4131396000739187,406.2606158000417,406.2606158000417,406.2606158000417,406.2606158000417,406.2606158000417,406.2606158000417,406.55935529991984,406.55935529991984,407.52316830004565,407.52316830004565,407.52316830004565,407.52316830004565,407.52316830004565,407.52316830004565,407.52316830004565,407.52316830004565,407.52316830004565,407.52316830004565,407.52316830004565,407.52316830004565,407.52316830004565,407.52316830004565,407.52316830004565,407.52316830004565,407.52316830004565,410.0320321000181,410.0320321000181,410.0320321000181,410.0320321000181,410.0320321000181,53,51,56,60,53,30,6.0,2.092451000120491,412.1430039999541,413.9385222001001,,,,,,,152,f,31,2023-04-03_11h15.32.791,RL,2022.2.4,59.99926798938713,
1,45,0,45,0,,,,,,,,,,None,413.9385222001001,413.9385222001001,413.9385222001001,413.9385222001001,413.9385222001001,413.9385222001001,j,0.2980841000098735,414.2582117000129,414.2582117000129,414.2582117000129,414.2582117000129,414.2582117000129,414.2582117000129,414.5540857000742,414.5540857000742,415.6174427000806,415.6174427000806,415.634394899942,415.634394899942,415.634394899942,415.634394899942,415.634394899942,415.634394899942,415.634394899942,415.634394899942,415.634394899942,415.634394899942,415.634394899942,415.634394899942,415.634394899942,415.634394899942,415.634394899942,418.1434480000753,418.1434480000753,418.1434480000753,418.1434480000753,418.1434480000753,46,54,51,63,63,60,5.0,1.4783608000725508,419.6390633000992,421.46846610005014,,,,,,,152,f,31,2023-04-03_11h15.32.791,RL,2022.2.4,59.99926798938713,
1,46,0,46,0,,,,,,,,,,None,421.46846610005014,421.46846610005014,421.46846610005014,421.46846610005014,421.46846610005014,421.46846610005014,i,0.8343647001311183,422.3349385999609,422.3349385999609,422.3349385999609,422.3349385999609,422.3349385999609,422.3349385999609,422.6320504001342,422.6320504001342,424.34391669998877,424.34391669998877,424.34391669998877,424.34391669998877,424.34391669998877,424.34391669998877,424.34391669998877,424.34391669998877,424.34391669998877,424.34391669998877,424.34391669998877,424.34391669998877,424.34391669998877,424.34391669998877,424.34391669998877,424.34391669998877,424.34391669998877,426.8530481001362,426.8530481001362,426.8530481001362,426.8530481001362,426.8530481001362,57,52,45,59,45,49,3.0,1.7942834999412298,428.6647926000878,430.3108377000317,,,,,,,152,f,31,2023-04-03_11h15.32.791,RL,2022.2.4,59.99926798938713,
1,47,0,47,0,,,,,,,,,,None,430.3108377000317,430.3108377000317,430.3108377000317,430.3108377000317,430.3108377000317,430.3108377000317,r,0.6438677001278847,430.97847949992865,430.97847949992865,430.97847949992865,430.97847949992865,430.97847949992865,430.97847949992865,431.2747418000363,431.2747418000363,432.571480399929,432.571480399929,432.588131000055,432.588131000055,432.588131000055,432.588131000055,432.588131000055,432.588131000055,432.588131000055,432.588131000055,432.588131000055,432.588131000055,432.588131000055,432.588131000055,432.588131000055,432.588131000055,432.588131000055,435.0969903001096,435.0969903001096,435.0969903001096,435.0969903001096,435.0969903001096,51,60,41,57,51,48,3.0,1.3785703000612557,436.49338370002806,438.37191230012104,,,,,,,152,f,31,2023-04-03_11h15.32.791,RL,2022.2.4,59.99926798938713,
1,48,0,48,0,,,,,,,,,,None,438.37191230012104,438.37191230012104,438.37191230012104,438.37191230012104,438.37191230012104,438.37191230012104,j,0.8406754999887198,439.2393068000674,439.2393068000674,439.2393068000674,439.2393068000674,439.2393068000674,439.2393068000674,439.5361003000289,439.5361003000289,440.38350270013325,440.38350270013325,440.38350270013325,440.38350270013325,440.38350270013325,440.38350270013325,440.38350270013325,440.38350270013325,440.38350270013325,440.38350270013325,440.38350270013325,440.38350270013325,440.38350270013325,440.38350270013325,440.38350270013325,440.38350270013325,440.38350270013325,442.892526099924,442.892526099924,442.892526099924,442.892526099924,442.892526099924,60,58,45,61,61,33,6.0,0.9787743999622762,443.8897571999114,445.8516279000323,,,,,,,152,f,31,2023-04-03_11h15.32.791,RL,2022.2.4,59.99926798938713,
1,49,0,49,0,,,,,,,,,,None,445.8516279000323,445.8516279000323,445.8516279000323,445.8516279000323,445.8516279000323,445.8516279000323,f,0.5329054999165237,446.41751609998755,446.41751609998755,446.41751609998755,446.41751609998755,446.41751609998755,446.41751609998755,446.7164306999184,446.7164306999184,448.0958281001076,448.0958281001076,448.1124508001376,448.1124508001376,448.1124508001376,448.1124508001376,448.1124508001376,448.1124508001376,448.1124508001376,448.1124508001376,448.1124508001376,448.1124508001376,448.1124508001376,448.1124508001376,448.1124508001376,448.1124508001376,448.1124508001376,450.621730200015,450.621730200015,450.621730200015,450.621730200015,450.621730200015,56,53,51,62,53,38,6.0,0.46382650011219084,451.103543800069,452.7494431999512,,,,,,,152,f,31,2023-04-03_11h15.32.791,RL,2022.2.4,59.99926798938713,
1,50,0,50,0,,,,,,,,,,None,452.7494431999512,452.7494431999512,452.7494431999512,452.7494431999512,452.7494431999512,452.7494431999512,j,0.33810919988900423,453.11711749993265,453.11711749993265,453.11711749993265,453.11711749993265,453.11711749993265,453.11711749993265,453.41496740002185,453.41496740002185,454.5286217001267,454.5286217001267,454.5286217001267,454.5286217001267,454.5286217001267,454.5286217001267,454.5286217001267,454.5286217001267,454.5286217001267,454.5286217001267,454.5286217001267,454.5286217001267,454.5286217001267,454.5286217001267,454.5286217001267,454.5286217001267,454.5286217001267,457.03761480003595,457.03761480003595,457.03761480003595,457.03761480003595,457.03761480003595,53,53,47,62,62,71,2.0,1.6604794999584556,458.71601850003935,460.6279241000302,,,,,,,152,f,31,2023-04-03_11h15.32.791,RL,2022.2.4,59.99926798938713,
1,51,0,51,0,,,,,,,,,,None,460.6279241000302,460.6279241000302,460.6279241000302,460.6279241000302,460.6279241000302,460.6279241000302,j,0.3125652000308037,460.9618154000491,460.9618154000491,460.9618154000491,460.9618154000491,460.9618154000491,460.9618154000491,461.2599015000742,461.2599015000742,462.82213800004683,462.82213800004683,462.82213800004683,462.82213800004683,462.82213800004683,462.82213800004683,462.82213800004683,462.82213800004683,462.82213800004683,462.82213800004683,462.82213800004683,462.82213800004683,462.82213800004683,462.82213800004683,462.82213800004683,462.82213800004683,462.82213800004683,465.3311550000217,465.3311550000217,465.3311550000217,465.3311550000217,465.3311550000217,46,51,39,59,59,56,4.0,0.5799114000983536,465.9297758000903,467.80853860010393,,,,,,,152,f,31,2023-04-03_11h15.32.791,RL,2022.2.4,59.99926798938713,
1,52,0,52,0,,,,,,,,,,None,467.80853860010393,467.80853860010393,467.80853860010393,467.80853860010393,467.80853860010393,467.80853860010393,i,0.6198205000255257,468.4596092000138,468.4596092000138,468.4596092000138,468.4596092000138,468.4596092000138,468.4596092000138,468.75629730010405,468.75629730010405,470.3184728999622,470.3184728999622,470.3352026999928,470.3352026999928,470.3352026999928,470.3352026999928,470.3352026999928,470.3352026999928,470.3352026999928,470.3352026999928,470.3352026999928,470.3352026999928,470.3352026999928,470.3352026999928,470.3352026999928,470.3352026999928,470.3352026999928,472.8442822000943,472.8442822000943,472.8442822000943,472.8442822000943,472.8442822000943,63,44,47,58,47,62,3.0,0.7308767000213265,473.5921869999729,475.2548970999196,,,,,,,152,f,31,2023-04-03_11h15.32.791,RL,2022.2.4,59.99926798938713,
1,53,0,53,0,,,,,,,,,,None,475.2548970999196,475.2548970999196,475.2548970999196,475.2548970999196,475.2548970999196,475.2548970999196,r,0.5614181999117136,475.8392700001132,475.8392700001132,475.8392700001132,475.8392700001132,475.8392700001132,475.8392700001132,476.13606250006706,476.13606250006706,477.6984212999232,477.6984212999232,477.6984212999232,477.6984212999232,477.6984212999232,477.6984212999232,477.6984212999232,477.6984212999232,477.6984212999232,477.6984212999232,477.6984212999232,477.6984212999232,477.6984212999232,477.6984212999232,477.6984212999232,477.6984212999232,477.6984212999232,480.20707429992035,480.20707429992035,480.20707429992035,480.20707429992035,480.20707429992035,57,53,47,47,57,39,5.0,0.9960381998680532,481.2209767999593,483.1998656000942,,,,,,,152,f,31,2023-04-03_11h15.32.791,RL,2022.2.4,59.99926798938713,
1,54,0,54,0,,,,,,,,,,None,483.1998656000942,483.1998656000942,483.1998656000942,483.1998656000942,483.1998656000942,483.1998656000942,j,1.1937839998863637,484.4158081000205,484.4158081000205,484.4158081000205,484.4158081000205,484.4158081000205,484.4158081000205,484.71268020011485,484.71268020011485,486.5575963000301,486.5575963000301,486.5575963000301,486.5575963000301,486.5575963000301,486.5575963000301,486.5575963000301,486.5575963000301,486.5575963000301,486.5575963000301,486.5575963000301,486.5575963000301,486.5575963000301,486.5575963000301,486.5575963000301,486.5575963000301,486.5575963000301,489.06661910004914,489.06661910004914,489.06661910004914,489.06661910004914,489.06661910004914,60,38,48,53,53,44,5.0,0.6969814000185579,489.780989699997,491.2944084999617,,,,,,,152,f,31,2023-04-03_11h15.32.791,RL,2022.2.4,59.99926798938713,
1,55,0,55,0,,,,,,,,,,None,491.2944084999617,491.2944084999617,491.2944084999617,491.2944084999617,491.2944084999617,491.2944084999617,r,0.2621307000517845,491.57883269991726,491.57883269991726,491.57883269991726,491.57883269991726,491.57883269991726,491.57883269991726,491.8765841999557,491.8765841999557,492.74072790006176,492.74072790006176,492.74072790006176,492.74072790006176,492.74072790006176,492.74072790006176,492.74072790006176,492.74072790006176,492.74072790006176,492.74072790006176,492.74072790006176,492.74072790006176,492.74072790006176,492.74072790006176,492.74072790006176,492.74072790006176,492.74072790006176,495.24975510011427,495.24975510011427,495.24975510011427,495.24975510011427,495.24975510011427,58,49,46,45,58,54,4.0,0.5972299000713974,495.86493519996293,497.39456919999793,,,,,,,152,f,31,2023-04-03_11h15.32.791,RL,2022.2.4,59.99926798938713,
1,56,0,56,0,,,,,,,,,,None,497.39456919999793,497.39456919999793,497.39456919999793,497.39456919999793,497.39456919999793,497.39456919999793,j,0.5260213001165539,497.9451973999385,497.9451973999385,497.9451973999385,497.9451973999385,497.9451973999385,497.9451973999385,498.2429202001076,498.2429202001076,499.63853570003994,499.63853570003994,499.63853570003994,499.63853570003994,499.63853570003994,499.63853570003994,499.63853570003994,499.63853570003994,499.63853570003994,499.63853570003994,499.63853570003994,499.63853570003994,499.63853570003994,499.63853570003994,499.63853570003994,499.63853570003994,499.63853570003994,502.147390200058,502.147390200058,502.147390200058,502.147390200058,502.147390200058,50,57,45,56,56,51,3.0,0.929002600023523,503.0949484000448,505.02361820009537,,,,,,,152,f,31,2023-04-03_11h15.32.791,RL,2022.2.4,59.99926798938713,
1,57,0,57,0,,,,,,,,,,None,505.02361820009537,505.02361820009537,505.02361820009537,505.02361820009537,505.02361820009537,505.02361820009537,r,0.5133537000510842,505.5582437000703,505.5582437000703,505.5582437000703,505.5582437000703,505.5582437000703,505.5582437000703,505.8550770999864,505.8550770999864,507.1014342000708,507.1014342000708,507.1014342000708,507.1014342000708,507.1014342000708,507.1014342000708,507.1014342000708,507.1014342000708,507.1014342000708,507.1014342000708,507.1014342000708,507.1014342000708,507.1014342000708,507.1014342000708,507.1014342000708,507.1014342000708,507.1014342000708,509.6104645000305,509.6104645000305,509.6104645000305,509.6104645000305,509.6104645000305,48,57,45,54,48,57,5.0,1.8429125000257045,511.47159070009366,513.400755800074,,,,,,,152,f,31,2023-04-03_11h15.32.791,RL,2022.2.4,59.99926798938713,
1,58,0,58,0,,,,,,,,,,None,513.400755800074,513.400755800074,513.400755800074,513.400755800074,513.400755800074,513.400755800074,i,0.3779220001306385,513.8026008000597,513.8026008000597,513.8026008000597,513.8026008000597,513.8026008000597,513.8026008000597,514.0988431000151,514.0988431000151,515.8274612999521,515.8274612999521,515.8443682000507,515.8443682000507,515.8443682000507,515.8443682000507,515.8443682000507,515.8443682000507,515.8443682000507,515.8443682000507,515.8443682000507,515.8443682000507,515.8443682000507,515.8443682000507,515.8443682000507,515.8443682000507,515.8443682000507,518.353287700098,518.353287700098,518.353287700098,518.353287700098,518.353287700098,46,65,48,52,48,66,2.0,1.2126259000506252,519.5832607001066,521.329031100031,,,,,,,152,f,31,2023-04-03_11h15.32.791,RL,2022.2.4,59.99926798938713,
1,59,0,59,0,,,,,,,,,,None,521.329031100031,521.329031100031,521.329031100031,521.329031100031,521.329031100031,521.329031100031,f,0.6466110001783818,521.9960495999549,521.9960495999549,521.9960495999549,521.9960495999549,521.9960495999549,521.9960495999549,522.2934411999304,522.2934411999304,523.3738353999797,523.3738353999797,523.3738353999797,523.3738353999797,523.3738353999797,523.3738353999797,523.3738353999797,523.3738353999797,523.3738353999797,523.3738353999797,523.3738353999797,523.3738353999797,523.3738353999797,523.3738353999797,523.3738353999797,523.3738353999797,523.3738353999797,525.8825745999347,525.8825745999347,525.8825745999347,525.8825745999347,525.8825745999347,50,68,37,54,68,63,4.0,0.5144489998929203,526.4145963999908,528.2770682000555,,,,,,,152,f,31,2023-04-03_11h15.32.791,RL,2022.2.4,59.99926798938713,
1,60,0,60,0,,,,,,,,,,None,528.2770682000555,528.2770682000555,528.2770682000555,528.2770682000555,528.2770682000555,528.2770682000555,r,0.3227413999848068,528.6283831000328,528.6283831000328,528.6283831000328,528.6283831000328,528.6283831000328,528.6283831000328,528.9253003001213,528.9253003001213,530.8033632999286,530.8033632999286,530.8033632999286,530.8033632999286,530.8033632999286,530.8033632999286,530.8033632999286,530.8033632999286,530.8033632999286,530.8033632999286,530.8033632999286,530.8033632999286,530.8033632999286,530.8033632999286,530.8033632999286,530.8033632999286,530.8033632999286,533.3125696000643,533.3125696000643,533.3125696000643,533.3125696000643,533.3125696000643,43,58,41,50,43,62,2.0,0.614100500009954,533.9439372001216,535.65675500012,,,,,,,152,f,31,2023-04-03_11h15.32.791,RL,2022.2.4,59.99926798938713,
1,61,0,61,0,,,,,,,,,,None,535.65675500012,535.65675500012,535.65675500012,535.65675500012,535.65675500012,535.65675500012,j,0.510336099890992,536.1907901000232,536.1907901000232,536.1907901000232,536.1907901000232,536.1907901000232,536.1907901000232,536.487914999947,536.487914999947,537.4021834000014,537.4021834000014,537.4021834000014,537.4021834000014,537.4021834000014,537.4021834000014,537.4021834000014,537.4021834000014,537.4021834000014,537.4021834000014,537.4021834000014,537.4021834000014,537.4021834000014,537.4021834000014,537.4021834000014,537.4021834000014,537.4021834000014,539.9112484999932,539.9112484999932,539.9112484999932,539.9112484999932,539.9112484999932,42,59,38,54,54,65,2.0,0.6805852998513728,540.6091879000887,542.1888618001249,,,,,,,152,f,31,2023-04-03_11h15.32.791,RL,2022.2.4,59.99926798938713,
1,62,0,62,0,,,,,,,,,,None,542.1888618001249,542.1888618001249,542.1888618001249,542.1888618001249,542.1888618001249,542.1888618001249,i,0.2927847998216748,542.5079866000451,542.5079866000451,542.5079866000451,542.5079866000451,542.5079866000451,542.5079866000451,542.8042312001344,542.8042312001344,543.9174836999737,543.9174836999737,543.9174836999737,543.9174836999737,543.9174836999737,543.9174836999737,543.9174836999737,543.9174836999737,543.9174836999737,543.9174836999737,543.9174836999737,543.9174836999737,543.9174836999737,543.9174836999737,543.9174836999737,543.9174836999737,543.9174836999737,546.4266467001289,546.4266467001289,546.4266467001289,546.4266467001289,546.4266467001289,38,62,44,50,44,41,4.0,0.879935999866575,547.3242518999614,549.0034972000867,,,,,,,152,f,31,2023-04-03_11h15.32.791,RL,2022.2.4,59.99926798938713,
1,63,0,63,0,,,,,,,,,,None,549.0034972000867,549.0034972000867,549.0034972000867,549.0034972000867,549.0034972000867,549.0034972000867,i,0.22603000001981854,549.2564395000227,549.2564395000227,549.2564395000227,549.2564395000227,549.2564395000227,549.2564395000227,549.5528820999898,549.5528820999898,550.7490334000904,550.7490334000904,550.7490334000904,550.7490334000904,550.7490334000904,550.7490334000904,550.7490334000904,550.7490334000904,550.7490334000904,550.7490334000904,550.7490334000904,550.7490334000904,550.7490334000904,550.7490334000904,550.7490334000904,550.7490334000904,550.7490334000904,553.2579198000021,553.2579198000021,553.2579198000021,553.2579198000021,553.2579198000021,45,58,39,54,39,68,2.0,0.9955015000887215,554.2717667000834,555.8016999999527,,,,,,,152,f,31,2023-04-03_11h15.32.791,RL,2022.2.4,59.99926798938713,
1,64,0,64,0,,,,,,,,,,None,555.8016999999527,555.8016999999527,555.8016999999527,555.8016999999527,555.8016999999527,555.8016999999527,i,0.6656581000424922,556.5002840999514,556.5002840999514,556.5002840999514,556.5002840999514,556.5002840999514,556.5002840999514,556.7993244999088,556.7993244999088,557.7463694000617,557.7463694000617,557.7463694000617,557.7463694000617,557.7463694000617,557.7463694000617,557.7463694000617,557.7463694000617,557.7463694000617,557.7463694000617,557.7463694000617,557.7463694000617,557.7463694000617,557.7463694000617,557.7463694000617,557.7463694000617,557.7463694000617,560.2555809000041,560.2555809000041,560.2555809000041,560.2555809000041,560.2555809000041,37,68,50,57,50,44,4.0,2.176226499956101,562.4498312000651,564.3949460000731,,,,,,,152,f,31,2023-04-03_11h15.32.791,RL,2022.2.4,59.99926798938713,
1,65,0,65,0,,,,,,,,,,None,564.3949460000731,564.3949460000731,564.3949460000731,564.3949460000731,564.3949460000731,564.3949460000731,i,0.3137306999415159,564.7303470999468,564.7303470999468,564.7303470999468,564.7303470999468,564.7303470999468,564.7303470999468,565.0263597001322,565.0263597001322,566.9383434001356,566.9383434001356,566.9383434001356,566.9383434001356,566.9383434001356,566.9383434001356,566.9383434001356,566.9383434001356,566.9383434001356,566.9383434001356,566.9383434001356,566.9383434001356,566.9383434001356,566.9383434001356,566.9383434001356,566.9383434001356,566.9383434001356,569.4472539001144,569.4472539001144,569.4472539001144,569.4472539001144,569.4472539001144,41,57,40,55,40,63,1.0,1.844034600071609,571.3086850999389,572.8551417000126,,,,,,,152,f,31,2023-04-03_11h15.32.791,RL,2022.2.4,59.99926798938713,
1,66,0,66,0,,,,,,,,,,None,572.8551417000126,572.8551417000126,572.8551417000126,572.8551417000126,572.8551417000126,572.8551417000126,r,0.3147690000478178,573.1886215000413,573.1886215000413,573.1886215000413,573.1886215000413,573.1886215000413,573.1886215000413,573.486742899986,573.486742899986,574.4676173999906,574.4676173999906,574.4676173999906,574.4676173999906,574.4676173999906,574.4676173999906,574.4676173999906,574.4676173999906,574.4676173999906,574.4676173999906,574.4676173999906,574.4676173999906,574.4676173999906,574.4676173999906,574.4676173999906,574.4676173999906,574.4676173999906,576.9763680999167,576.9763680999167,576.9763680999167,576.9763680999167,576.9763680999167,35,63,45,52,35,61,1.0,0.38189440011046827,577.3756069999654,579.3710272000171,,,,,,,152,f,31,2023-04-03_11h15.32.791,RL,2022.2.4,59.99926798938713,
1,67,0,67,0,,,,,,,,,,None,579.3710272000171,579.3710272000171,579.3710272000171,579.3710272000171,579.3710272000171,579.3710272000171,f,0.3674539001658559,579.7710426000413,579.7710426000413,579.7710426000413,579.7710426000413,579.7710426000413,579.7710426000413,580.0691122000571,580.0691122000571,581.581390599953,581.581390599953,581.581390599953,581.581390599953,581.581390599953,581.581390599953,581.581390599953,581.581390599953,581.581390599953,581.581390599953,581.581390599953,581.581390599953,581.581390599953,581.581390599953,581.581390599953,581.581390599953,581.581390599953,584.0905754000414,584.0905754000414,584.0905754000414,584.0905754000414,584.0905754000414,32,58,53,52,58,68,2.0,2.127100700046867,586.2350618999917,588.1134389000945,,,,,,,152,f,31,2023-04-03_11h15.32.791,RL,2022.2.4,59.99926798938713,
1,68,0,68,0,,,,,,,,,,None,588.1134389000945,588.1134389000945,588.1134389000945,588.1134389000945,588.1134389000945,588.1134389000945,i,0.21227270015515387,588.3479518000968,588.3479518000968,588.3479518000968,588.3479518000968,588.3479518000968,588.3479518000968,588.6453970000148,588.6453970000148,590.2743029999547,590.2743029999547,590.2743029999547,590.2743029999547,590.2743029999547,590.2743029999547,590.2743029999547,590.2743029999547,590.2743029999547,590.2743029999547,590.2743029999547,590.2743029999547,590.2743029999547,590.2743029999547,590.2743029999547,590.2743029999547,590.2743029999547,592.7831929000095,592.7831929000095,592.7831929000095,592.7831929000095,592.7831929000095,29,67,42,53,42,37,5.0,1.0793938001152128,593.8807012001052,595.8424933000933,,,,,,,152,f,31,2023-04-03_11h15.32.791,RL,2022.2.4,59.99926798938713,
1,69,0,69,0,,,,,,,,,,None,595.8424933000933,595.8424933000933,595.8424933000933,595.8424933000933,595.8424933000933,595.8424933000933,j,0.06050709984265268,595.9261855999939,595.9261855999939,595.9261855999939,595.9261855999939,595.9261855999939,595.9261855999939,596.2250693999231,596.2250693999231,597.9206994001288,597.9206994001288,597.9206994001288,597.9206994001288,597.9206994001288,597.9206994001288,597.9206994001288,597.9206994001288,597.9206994001288,597.9206994001288,597.9206994001288,597.9206994001288,597.9206994001288,597.9206994001288,597.9206994001288,597.9206994001288,597.9206994001288,600.429556200048,600.429556200048,600.429556200048,600.429556200048,600.429556200048,36,58,44,58,58,53,5.0,0.4146708999760449,600.8614543001167,602.5575463001151,,,,,,,152,f,31,2023-04-03_11h15.32.791,RL,2022.2.4,59.99926798938713,
1,70,0,70,0,,,,,,,,,,None,602.5575463001151,602.5575463001151,602.5575463001151,602.5575463001151,602.5575463001151,602.5575463001151,j,0.46401580004021525,603.0413739001378,603.0413739001378,603.0413739001378,603.0413739001378,603.0413739001378,603.0413739001378,603.3387442000676,603.3387442000676,604.1865823999979,604.1865823999979,604.2032580000814,604.2032580000814,604.2032580000814,604.2032580000814,604.2032580000814,604.2032580000814,604.2032580000814,604.2032580000814,604.2032580000814,604.2032580000814,604.2032580000814,604.2032580000814,604.2032580000814,604.2032580000814,604.2032580000814,606.7120495000854,606.7120495000854,606.7120495000854,606.7120495000854,606.7120495000854,30,58,41,47,47,64,6.0,1.8270248998887837,608.557141700061,610.3528529000469,,,,,,,152,f,31,2023-04-03_11h15.32.791,RL,2022.2.4,59.99926798938713,
1,71,0,71,0,,,,,,,,,,None,610.3528529000469,610.3528529000469,610.3528529000469,610.3528529000469,610.3528529000469,610.3528529000469,i,0.3053921000100672,610.688539700117,610.688539700117,610.688539700117,610.688539700117,610.688539700117,610.688539700117,610.9846749000717,610.9846749000717,612.1313581999857,612.1313581999857,612.1483120000921,612.1483120000921,612.1483120000921,612.1483120000921,612.1483120000921,612.1483120000921,612.1483120000921,612.1483120000921,612.1483120000921,612.1483120000921,612.1483120000921,612.1483120000921,612.1483120000921,612.1483120000921,612.1483120000921,614.6573455999605,614.6573455999605,614.6573455999605,614.6573455999605,614.6573455999605,33,59,42,61,42,54,3.0,1.079163599992171,615.7541875999887,617.2840895999689,,,,,,,152,f,31,2023-04-03_11h15.32.791,RL,2022.2.4,59.99926798938713,
1,72,0,72,0,,,,,,,,,,None,617.2840895999689,617.2840895999689,617.2840895999689,617.2840895999689,617.2840895999689,617.2840895999689,i,0.33716150000691414,617.6528827999718,617.6528827999718,617.6528827999718,617.6528827999718,617.6528827999718,617.6528827999718,617.949084199965,617.949084199965,619.3616782000754,619.3616782000754,619.3616782000754,619.3616782000754,619.3616782000754,619.3616782000754,619.3616782000754,619.3616782000754,619.3616782000754,619.3616782000754,619.3616782000754,619.3616782000754,619.3616782000754,619.3616782000754,619.3616782000754,619.3616782000754,619.3616782000754,621.8708975999616,621.8708975999616,621.8708975999616,621.8708975999616,621.8708975999616,30,63,42,52,42,63,2.0,0.9628417999483645,622.8512458999176,624.6472050999291,,,,,,,152,f,31,2023-04-03_11h15.32.791,RL,2022.2.4,59.99926798938713,
1,73,0,73,0,,,,,,,,,,None,624.6472050999291,624.6472050999291,624.6472050999291,624.6472050999291,624.6472050999291,624.6472050999291,i,0.5572134000249207,625.2298769999761,625.2298769999761,625.2298769999761,625.2298769999761,625.2298769999761,625.2298769999761,625.5285001001321,625.5285001001321,626.7583499001339,626.7583499001339,626.7583499001339,626.7583499001339,626.7583499001339,626.7583499001339,626.7583499001339,626.7583499001339,626.7583499001339,626.7583499001339,626.7583499001339,626.7583499001339,626.7583499001339,626.7583499001339,626.7583499001339,626.7583499001339,626.7583499001339,629.2673245000187,629.2673245000187,629.2673245000187,629.2673245000187,629.2673245000187,25,54,39,55,39,63,1.0,1.7443511998280883,631.0293014999479,632.6420251000673,,,,,,,152,f,31,2023-04-03_11h15.32.791,RL,2022.2.4,59.99926798938713,
1,74,0,74,0,,,,,,,,,,None,632.6420251000673,632.6420251000673,632.6420251000673,632.6420251000673,632.6420251000673,632.6420251000673,j,0.27440969995222986,632.9427018000279,632.9427018000279,632.9427018000279,632.9427018000279,632.9427018000279,632.9427018000279,633.2407259000465,633.2407259000465,634.5701627000235,634.5701627000235,634.5867642001249,634.5867642001249,634.5867642001249,634.5867642001249,634.5867642001249,634.5867642001249,634.5867642001249,634.5867642001249,634.5867642001249,634.5867642001249,634.5867642001249,634.5867642001249,634.5867642001249,634.5867642001249,634.5867642001249,637.0959352999926,637.0959352999926,637.0959352999926,637.0959352999926,637.0959352999926,25,66,42,53,53,74,1.0,0.9291859001386911,638.0432837000117,639.6227595000528,,,,,,,152,f,31,2023-04-03_11h15.32.791,RL,2022.2.4,59.99926798938713,
1,75,0,75,0,,,,,,,,,,q,695.6365064000711,695.6365064000711,695.6365064000711,695.6365064000711,695.6365064000711,695.6365064000711,r,0.6908346000127494,696.354378500022,696.354378500022,696.354378500022,696.354378500022,696.354378500022,696.354378500022,696.651066099992,696.651066099992,698.163291899953,698.163291899953,698.163291899953,698.163291899953,698.163291899953,698.163291899953,698.163291899953,698.163291899953,698.163291899953,698.163291899953,698.163291899953,698.163291899953,698.163291899953,698.163291899953,698.163291899953,698.163291899953,698.163291899953,700.6724432001356,700.6724432001356,700.6724432001356,700.6724432001356,700.6724432001356,34,61,41,52,34,56,3.0,1.246320600155741,701.9355763001367,703.5151331000961,639.6227595000528,639.6227595000528,55.98522750008851,,,,152,f,31,2023-04-03_11h15.32.791,RL,2022.2.4,59.99926798938713,
1,76,0,76,0,,,,,,,,,,None,703.5151331000961,703.5151331000961,703.5151331000961,703.5151331000961,703.5151331000961,703.5151331000961,i,0.6742380000650883,704.2172153999563,704.2172153999563,704.2172153999563,704.2172153999563,704.2172153999563,704.2172153999563,704.5128790999297,704.5128790999297,705.6097581000067,705.6097581000067,705.6097581000067,705.6097581000067,705.6097581000067,705.6097581000067,705.6097581000067,705.6097581000067,705.6097581000067,705.6097581000067,705.6097581000067,705.6097581000067,705.6097581000067,705.6097581000067,705.6097581000067,705.6097581000067,705.6097581000067,708.1183601999655,708.1183601999655,708.1183601999655,708.1183601999655,708.1183601999655,35,63,35,47,35,59,1.0,1.2791715001221746,709.4151254999451,711.2607317999937,,,,,,,152,f,31,2023-04-03_11h15.32.791,RL,2022.2.4,59.99926798938713,
1,77,0,77,0,,,,,,,,,,None,711.2607317999937,711.2607317999937,711.2607317999937,711.2607317999937,711.2607317999937,711.2607317999937,j,0.3216049000620842,711.6112768999301,711.6112768999301,711.6112768999301,711.6112768999301,711.6112768999301,711.6112768999301,711.9093343999702,711.9093343999702,713.7040806000587,713.7040806000587,713.720535099972,713.720535099972,713.720535099972,713.720535099972,713.720535099972,713.720535099972,713.720535099972,713.720535099972,713.720535099972,713.720535099972,713.720535099972,713.720535099972,713.720535099972,713.720535099972,713.720535099972,716.2300303000957,716.2300303000957,716.2300303000957,716.2300303000957,716.2300303000957,38,62,48,51,51,55,2.0,1.46231250022538,717.709462299943,719.5549262999557,,,,,,,152,f,31,2023-04-03_11h15.32.791,RL,2022.2.4,59.99926798938713,
1,78,0,78,0,,,,,,,,,,None,719.5549262999557,719.5549262999557,719.5549262999557,719.5549262999557,719.5549262999557,719.5549262999557,f,0.34533950011245906,719.9219017000869,719.9219017000869,719.9219017000869,719.9219017000869,719.9219017000869,719.9219017000869,720.21982330014,720.21982330014,721.8486911000218,721.8486911000218,721.8486911000218,721.8486911000218,721.8486911000218,721.8486911000218,721.8486911000218,721.8486911000218,721.8486911000218,721.8486911000218,721.8486911000218,721.8486911000218,721.8486911000218,721.8486911000218,721.8486911000218,721.8486911000218,721.8486911000218,724.3576994999312,724.3576994999312,724.3576994999312,724.3576994999312,724.3576994999312,44,59,49,51,59,67,1.0,0.5148566998541355,724.8898448001128,726.6188209999818,,,,,,,152,f,31,2023-04-03_11h15.32.791,RL,2022.2.4,59.99926798938713,
1,79,0,79,0,,,,,,,,,,None,726.6188209999818,726.6188209999818,726.6188209999818,726.6188209999818,726.6188209999818,726.6188209999818,i,0.29386640014126897,726.9367245999165,726.9367245999165,726.9367245999165,726.9367245999165,726.9367245999165,726.9367245999165,727.234230699949,727.234230699949,729.2121011000127,729.2121011000127,729.2121011000127,729.2121011000127,729.2121011000127,729.2121011000127,729.2121011000127,729.2121011000127,729.2121011000127,729.2121011000127,729.2121011000127,729.2121011000127,729.2121011000127,729.2121011000127,729.2121011000127,729.2121011000127,729.2121011000127,731.7211406999268,731.7211406999268,731.7211406999268,731.7211406999268,731.7211406999268,30,63,37,54,37,65,1.0,1.5114446999505162,733.2499857000075,734.7965905999299,,,,,,,152,f,31,2023-04-03_11h15.32.791,RL,2022.2.4,59.99926798938713,
1,80,0,80,0,,,,,,,,,,None,734.7965905999299,734.7965905999299,734.7965905999299,734.7965905999299,734.7965905999299,734.7965905999299,r,0.746294500073418,735.5631178000476,735.5631178000476,735.5631178000476,735.5631178000476,735.5631178000476,735.5631178000476,735.8610195000656,735.8610195000656,736.7412640999537,736.7412640999537,736.7580462999176,736.7580462999176,736.7580462999176,736.7580462999176,736.7580462999176,736.7580462999176,736.7580462999176,736.7580462999176,736.7580462999176,736.7580462999176,736.7580462999176,736.7580462999176,736.7580462999176,736.7580462999176,736.7580462999176,739.2669049999677,739.2669049999677,739.2669049999677,739.2669049999677,739.2669049999677,32,56,55,47,32,60,1.0,2.4580710001755506,741.7436681999825,743.5725052999333,,,,,,,152,f,31,2023-04-03_11h15.32.791,RL,2022.2.4,59.99926798938713,
1,81,0,81,0,,,,,,,,,,None,743.5725052999333,743.5725052999333,743.5725052999333,743.5725052999333,743.5725052999333,743.5725052999333,j,0.3175784000195563,743.9239521001,743.9239521001,743.9239521001,743.9239521001,743.9239521001,743.9239521001,744.2213409000542,744.2213409000542,746.0826614999678,746.0826614999678,746.0826614999678,746.0826614999678,746.0826614999678,746.0826614999678,746.0826614999678,746.0826614999678,746.0826614999678,746.0826614999678,746.0826614999678,746.0826614999678,746.0826614999678,746.0826614999678,746.0826614999678,746.0826614999678,746.0826614999678,748.5918103000149,748.5918103000149,748.5918103000149,748.5918103000149,748.5918103000149,37,55,47,47,47,64,1.0,0.6307756002061069,749.2399480999447,751.101996100042,,,,,,,152,f,31,2023-04-03_11h15.32.791,RL,2022.2.4,59.99926798938713,
1,82,0,82,0,,,,,,,,,,None,751.101996100042,751.101996100042,751.101996100042,751.101996100042,751.101996100042,751.101996100042,f,0.3302374999038875,751.4547236999497,751.4547236999497,751.4547236999497,751.4547236999497,751.4547236999497,751.4547236999497,751.7506583000068,751.7506583000068,753.1964825999457,753.1964825999457,753.1964825999457,753.1964825999457,753.1964825999457,753.1964825999457,753.1964825999457,753.1964825999457,753.1964825999457,753.1964825999457,753.1964825999457,753.1964825999457,753.1964825999457,753.1964825999457,753.1964825999457,753.1964825999457,753.1964825999457,755.7055719001219,755.7055719001219,755.7055719001219,755.7055719001219,755.7055719001219,32,58,51,61,58,44,6.0,1.129489100072533,756.8523377999663,758.6980813001283,,,,,,,152,f,31,2023-04-03_11h15.32.791,RL,2022.2.4,59.99926798938713,
1,83,0,83,0,,,,,,,,,,None,758.6980813001283,758.6980813001283,758.6980813001283,758.6980813001283,758.6980813001283,758.6980813001283,f,0.251011700136587,758.9830583001021,758.9830583001021,758.9830583001021,758.9830583001021,758.9830583001021,758.9830583001021,759.2800010999199,759.2800010999199,760.1109798001125,760.1109798001125,760.1109798001125,760.1109798001125,760.1109798001125,760.1109798001125,760.1109798001125,760.1109798001125,760.1109798001125,760.1109798001125,760.1109798001125,760.1109798001125,760.1109798001125,760.1109798001125,760.1109798001125,760.1109798001125,760.1109798001125,762.6196451000869,762.6196451000869,762.6196451000869,762.6196451000869,762.6196451000869,30,51,50,49,51,47,6.0,0.44835419999435544,763.0852240000386,765.0804417000618,,,,,,,152,f,31,2023-04-03_11h15.32.791,RL,2022.2.4,59.99926798938713,
1,84,0,84,0,,,,,,,,,,None,765.0804417000618,765.0804417000618,765.0804417000618,765.0804417000618,765.0804417000618,765.0804417000618,f,0.3322379000019282,765.4475271000993,765.4475271000993,765.4475271000993,765.4475271000993,765.4475271000993,765.4475271000993,765.7456227999646,765.7456227999646,767.3909461000003,767.3909461000003,767.3909461000003,767.3909461000003,767.3909461000003,767.3909461000003,767.3909461000003,767.3909461000003,767.3909461000003,767.3909461000003,767.3909461000003,767.3909461000003,767.3909461000003,767.3909461000003,767.3909461000003,767.3909461000003,767.3909461000003,769.9000091000926,769.9000091000926,769.9000091000926,769.9000091000926,769.9000091000926,32,55,62,44,55,63,3.0,1.079769799951464,770.9968715000432,772.7593922000378,,,,,,,152,f,31,2023-04-03_11h15.32.791,RL,2022.2.4,59.99926798938713,
1,85,0,85,0,,,,,,,,,,None,772.7593922000378,772.7593922000378,772.7593922000378,772.7593922000378,772.7593922000378,772.7593922000378,r,0.2608831999823451,773.0456473000813,773.0456473000813,773.0456473000813,773.0456473000813,773.0456473000813,773.0456473000813,773.3418612999376,773.3418612999376,774.6712951001246,774.6712951001246,774.6712951001246,774.6712951001246,774.6712951001246,774.6712951001246,774.6712951001246,774.6712951001246,774.6712951001246,774.6712951001246,774.6712951001246,774.6712951001246,774.6712951001246,774.6712951001246,774.6712951001246,774.6712951001246,774.6712951001246,777.1802465000656,777.1802465000656,777.1802465000656,777.1802465000656,777.1802465000656,26,55,55,61,26,53,1.0,1.8610229999758303,779.0584325001109,780.8542558001354,,,,,,,152,f,31,2023-04-03_11h15.32.791,RL,2022.2.4,59.99926798938713,
1,86,0,86,0,,,,,,,,,,None,780.8542558001354,780.8542558001354,780.8542558001354,780.8542558001354,780.8542558001354,780.8542558001354,i,0.27801690017804503,781.1550736001227,781.1550736001227,781.1550736001227,781.1550736001227,781.1550736001227,781.1550736001227,781.4528586999513,781.4528586999513,783.4470514000859,783.4470514000859,783.4470514000859,783.4470514000859,783.4470514000859,783.4470514000859,783.4470514000859,783.4470514000859,783.4470514000859,783.4470514000859,783.4470514000859,783.4470514000859,783.4470514000859,783.4470514000859,783.4470514000859,783.4470514000859,783.4470514000859,785.9560140999965,785.9560140999965,785.9560140999965,785.9560140999965,785.9560140999965,18,52,54,57,54,55,3.0,2.774805699940771,788.7486837001052,790.561114900047,,,,,,,152,f,31,2023-04-03_11h15.32.791,RL,2022.2.4,59.99926798938713,
1,87,0,87,0,,,,,,,,,,None,790.561114900047,790.561114900047,790.561114900047,790.561114900047,790.561114900047,790.561114900047,f,0.5611430001445115,791.1453239000402,791.1453239000402,791.1453239000402,791.1453239000402,791.1453239000402,791.1453239000402,791.4421095999423,791.4421095999423,792.539182000095,792.539182000095,792.539182000095,792.539182000095,792.539182000095,792.539182000095,792.539182000095,792.539182000095,792.539182000095,792.539182000095,792.539182000095,792.539182000095,792.539182000095,792.539182000095,792.539182000095,792.539182000095,792.539182000095,795.0482050001156,795.0482050001156,795.0482050001156,795.0482050001156,795.0482050001156,21,62,56,67,62,56,5.0,2.5414988999255,797.6080827999394,799.6028841000516,,,,,,,152,f,31,2023-04-03_11h15.32.791,RL,2022.2.4,59.99926798938713,
1,88,0,88,0,,,,,,,,,,None,799.6028841000516,799.6028841000516,799.6028841000516,799.6028841000516,799.6028841000516,799.6028841000516,j,0.5953448999207467,800.2211438999511,800.2211438999511,800.2211438999511,800.2211438999511,800.2211438999511,800.2211438999511,800.517504000105,800.517504000105,801.41478500003,801.41478500003,801.41478500003,801.41478500003,801.41478500003,801.41478500003,801.41478500003,801.41478500003,801.41478500003,801.41478500003,801.41478500003,801.41478500003,801.41478500003,801.41478500003,801.41478500003,801.41478500003,801.41478500003,803.9239342000801,803.9239342000801,803.9239342000801,803.9239342000801,803.9239342000801,27,53,50,60,60,62,4.0,2.160167299909517,806.1013571999501,807.780797699932,,,,,,,152,f,31,2023-04-03_11h15.32.791,RL,2022.2.4,59.99926798938713,
1,89,0,89,0,,,,,,,,,,None,807.780797699932,807.780797699932,807.780797699932,807.780797699932,807.780797699932,807.780797699932,i,0.3834738000296056,808.1997839000542,808.1997839000542,808.1997839000542,808.1997839000542,808.1997839000542,808.1997839000542,808.4954790999182,808.4954790999182,809.8587714999449,809.8587714999449,809.8587714999449,809.8587714999449,809.8587714999449,809.8587714999449,809.8587714999449,809.8587714999449,809.8587714999449,809.8587714999449,809.8587714999449,809.8587714999449,809.8587714999449,809.8587714999449,809.8587714999449,809.8587714999449,809.8587714999449,812.3678327000234,812.3678327000234,812.3678327000234,812.3678327000234,812.3678327000234,32,58,51,59,51,69,2.0,1.1455711999442428,813.5314654000103,815.3268591000233,,,,,,,152,f,31,2023-04-03_11h15.32.791,RL,2022.2.4,59.99926798938713,
1,90,0,90,0,,,,,,,,,,None,815.3268591000233,815.3268591000233,815.3268591000233,815.3268591000233,815.3268591000233,815.3268591000233,r,0.3694715001620352,815.7264241001103,815.7264241001103,815.7264241001103,815.7264241001103,815.7264241001103,815.7264241001103,816.0251418999396,816.0251418999396,817.6870234999806,817.6870234999806,817.6870234999806,817.6870234999806,817.6870234999806,817.6870234999806,817.6870234999806,817.6870234999806,817.6870234999806,817.6870234999806,817.6870234999806,817.6870234999806,817.6870234999806,817.6870234999806,817.6870234999806,817.6870234999806,817.6870234999806,820.1960464001168,820.1960464001168,820.1960464001168,820.1960464001168,820.1960464001168,21,61,57,54,21,54,1.0,1.7609051000326872,821.9745191999245,823.7039189999923,,,,,,,152,f,31,2023-04-03_11h15.32.791,RL,2022.2.4,59.99926798938713,
1,91,0,91,0,,,,,,,,,,None,823.7039189999923,823.7039189999923,823.7039189999923,823.7039189999923,823.7039189999923,823.7039189999923,i,0.47387879993766546,824.2028826000169,824.2028826000169,824.2028826000169,824.2028826000169,824.2028826000169,824.2028826000169,824.5021349999588,824.5021349999588,825.8151374999434,825.8151374999434,825.8151374999434,825.8151374999434,825.8151374999434,825.8151374999434,825.8151374999434,825.8151374999434,825.8151374999434,825.8151374999434,825.8151374999434,825.8151374999434,825.8151374999434,825.8151374999434,825.8151374999434,825.8151374999434,825.8151374999434,828.3237115000375,828.3237115000375,828.3237115000375,828.3237115000375,828.3237115000375,26,55,57,59,57,66,3.0,1.8442444000393152,830.1856893000659,831.9649992000777,,,,,,,152,f,31,2023-04-03_11h15.32.791,RL,2022.2.4,59.99926798938713,
1,92,0,92,0,,,,,,,,,,None,831.9649992000777,831.9649992000777,831.9649992000777,831.9649992000777,831.9649992000777,831.9649992000777,f,0.28346780012361705,832.2835407000966,832.2835407000966,832.2835407000966,832.2835407000966,832.2835407000966,832.2835407000966,832.580020399997,832.580020399997,833.8926472999156,833.8926472999156,833.8926472999156,833.8926472999156,833.8926472999156,833.8926472999156,833.8926472999156,833.8926472999156,833.8926472999156,833.8926472999156,833.8926472999156,833.8926472999156,833.8926472999156,833.8926472999156,833.8926472999156,833.8926472999156,833.8926472999156,836.4018638001289,836.4018638001289,836.4018638001289,836.4018638001289,836.4018638001289,24,61,43,51,61,69,1.0,0.6471990998834372,837.0669907000847,838.8295134000946,,,,,,,152,f,31,2023-04-03_11h15.32.791,RL,2022.2.4,59.99926798938713,
1,93,0,93,0,,,,,,,,,,None,838.8295134000946,838.8295134000946,838.8295134000946,838.8295134000946,838.8295134000946,838.8295134000946,i,0.3422880999278277,839.1980979000218,839.1980979000218,839.1980979000218,839.1980979000218,839.1980979000218,839.1980979000218,839.4945716999937,839.4945716999937,840.9405521999579,840.9405521999579,840.9405521999579,840.9405521999579,840.9405521999579,840.9405521999579,840.9405521999579,840.9405521999579,840.9405521999579,840.9405521999579,840.9405521999579,840.9405521999579,840.9405521999579,840.9405521999579,840.9405521999579,840.9405521999579,840.9405521999579,843.4492190999445,843.4492190999445,843.4492190999445,843.4492190999445,843.4492190999445,22,58,53,43,53,50,5.0,1.1286248001269996,844.5962910999078,846.558557700133,,,,,,,152,f,31,2023-04-03_11h15.32.791,RL,2022.2.4,59.99926798938713,
1,94,0,94,0,,,,,,,,,,None,846.558557700133,846.558557700133,846.558557700133,846.558557700133,846.558557700133,846.558557700133,i,0.20557720004580915,846.7917691001203,846.7917691001203,846.7917691001203,846.7917691001203,846.7917691001203,846.7917691001203,847.090162999928,847.090162999928,849.0844930000603,849.0844930000603,849.0844930000603,849.0844930000603,849.0844930000603,849.0844930000603,849.0844930000603,849.0844930000603,849.0844930000603,849.0844930000603,849.0844930000603,849.0844930000603,849.0844930000603,849.0844930000603,849.0844930000603,849.0844930000603,849.0844930000603,851.593782500131,851.593782500131,851.593782500131,851.593782500131,851.593782500131,26,53,48,39,48,59,3.0,0.8632870998699218,852.4748249999247,854.2872272001114,,,,,,,152,f,31,2023-04-03_11h15.32.791,RL,2022.2.4,59.99926798938713,
1,95,0,95,0,,,,,,,,,,None,854.2872272001114,854.2872272001114,854.2872272001114,854.2872272001114,854.2872272001114,854.2872272001114,f,0.25813400000333786,854.5717458999716,854.5717458999716,854.5717458999716,854.5717458999716,854.5717458999716,854.5717458999716,854.8691479999106,854.8691479999106,856.5479397000745,856.5479397000745,856.5479397000745,856.5479397000745,856.5479397000745,856.5479397000745,856.5479397000745,856.5479397000745,856.5479397000745,856.5479397000745,856.5479397000745,856.5479397000745,856.5479397000745,856.5479397000745,856.5479397000745,856.5479397000745,856.5479397000745,859.0571815001313,859.0571815001313,859.0571815001313,859.0571815001313,859.0571815001313,25,57,52,47,57,43,6.0,0.5311611001379788,859.604908999987,861.2681072999258,,,,,,,152,f,31,2023-04-03_11h15.32.791,RL,2022.2.4,59.99926798938713,
1,96,0,96,0,,,,,,,,,,None,861.2681072999258,861.2681072999258,861.2681072999258,861.2681072999258,861.2681072999258,861.2681072999258,r,0.2901854000519961,861.5843233000487,861.5843233000487,861.5843233000487,861.5843233000487,861.5843233000487,861.5843233000487,861.8829995999113,861.8829995999113,863.8609080000315,863.8609080000315,863.8609080000315,863.8609080000315,863.8609080000315,863.8609080000315,863.8609080000315,863.8609080000315,863.8609080000315,863.8609080000315,863.8609080000315,863.8609080000315,863.8609080000315,863.8609080000315,863.8609080000315,863.8609080000315,863.8609080000315,866.3703706001397,866.3703706001397,866.3703706001397,866.3703706001397,866.3703706001397,25,54,56,45,25,40,2.0,0.9123569000512362,867.3010023999959,869.0470771999098,,,,,,,152,f,31,2023-04-03_11h15.32.791,RL,2022.2.4,59.99926798938713,
1,97,0,97,0,,,,,,,,,,None,869.0470771999098,869.0470771999098,869.0470771999098,869.0470771999098,869.0470771999098,869.0470771999098,i,0.3628638000227511,869.4315164000727,869.4315164000727,869.4315164000727,869.4315164000727,869.4315164000727,869.4315164000727,869.7286853999831,869.7286853999831,870.7258216999471,870.7258216999471,870.7258216999471,870.7258216999471,870.7258216999471,870.7258216999471,870.7258216999471,870.7258216999471,870.7258216999471,870.7258216999471,870.7258216999471,870.7258216999471,870.7258216999471,870.7258216999471,870.7258216999471,870.7258216999471,870.7258216999471,873.2346022001002,873.2346022001002,873.2346022001002,873.2346022001002,873.2346022001002,30,62,52,43,52,46,5.0,0.7800241999793798,874.0327979000285,875.6953728999943,,,,,,,152,f,31,2023-04-03_11h15.32.791,RL,2022.2.4,59.99926798938713,
1,98,0,98,0,,,,,,,,,,None,875.6953728999943,875.6953728999943,875.6953728999943,875.6953728999943,875.6953728999943,875.6953728999943,i,0.27311749989166856,875.9975376999937,875.9975376999937,875.9975376999937,875.9975376999937,875.9975376999937,875.9975376999937,876.2941705000121,876.2941705000121,878.2718478001188,878.2718478001188,878.2718478001188,878.2718478001188,878.2718478001188,878.2718478001188,878.2718478001188,878.2718478001188,878.2718478001188,878.2718478001188,878.2718478001188,878.2718478001188,878.2718478001188,878.2718478001188,878.2718478001188,878.2718478001188,878.2718478001188,880.7811455000192,880.7811455000192,880.7811455000192,880.7811455000192,880.7811455000192,30,62,52,49,52,55,3.0,1.3118036000523716,882.1106217999477,884.0557498000562,,,,,,,152,f,31,2023-04-03_11h15.32.791,RL,2022.2.4,59.99926798938713,
1,99,0,99,0,,,,,,,,,,None,884.0557498000562,884.0557498000562,884.0557498000562,884.0557498000562,884.0557498000562,884.0557498000562,j,0.2943588001653552,884.3734621000476,884.3734621000476,884.3734621000476,884.3734621000476,884.3734621000476,884.3734621000476,884.6711164000444,884.6711164000444,886.0177327001002,886.0177327001002,886.0177327001002,886.0177327001002,886.0177327001002,886.0177327001002,886.0177327001002,886.0177327001002,886.0177327001002,886.0177327001002,886.0177327001002,886.0177327001002,886.0177327001002,886.0177327001002,886.0177327001002,886.0177327001002,886.0177327001002,888.5264349000063,888.5264349000063,888.5264349000063,888.5264349000063,888.5264349000063,30,56,48,51,51,59,3.0,2.50797970010899,891.0529070999473,892.9317538000178,,,,,,,152,f,31,2023-04-03_11h15.32.791,RL,2022.2.4,59.99926798938713,
1,100,0,100,0,,,,,,,,,,None,892.9317538000178,892.9317538000178,892.9317538000178,892.9317538000178,892.9317538000178,892.9317538000178,r,0.34975970000959933,893.3166720001027,893.3166720001027,893.3166720001027,893.3166720001027,893.3166720001027,893.3166720001027,893.6134713999927,893.6134713999927,895.558126399992,895.558126399992,895.558126399992,895.558126399992,895.558126399992,895.558126399992,895.558126399992,895.558126399992,895.558126399992,895.558126399992,895.558126399992,895.558126399992,895.558126399992,895.558126399992,895.558126399992,895.558126399992,895.558126399992,898.067085799994,898.067085799994,898.067085799994,898.067085799994,898.067085799994,33,56,47,39,33,58,3.0,2.3927468999754637,900.4772262000479,902.023412700044,,,,,,,152,f,31,2023-04-03_11h15.32.791,RL,2022.2.4,59.99926798938713,
1,101,0,101,0,,,,,,,,,,None,902.023412700044,902.023412700044,902.023412700044,902.023412700044,902.023412700044,902.023412700044,j,0.3340920000337064,902.3899660001043,902.3899660001043,902.3899660001043,902.3899660001043,902.3899660001043,902.3899660001043,902.6885438000318,902.6885438000318,904.6834227000363,904.6834227000363,904.6834227000363,904.6834227000363,904.6834227000363,904.6834227000363,904.6834227000363,904.6834227000363,904.6834227000363,904.6834227000363,904.6834227000363,904.6834227000363,904.6834227000363,904.6834227000363,904.6834227000363,904.6834227000363,904.6834227000363,907.1921411999501,907.1921411999501,907.1921411999501,907.1921411999501,907.1921411999501,24,69,45,39,39,63,1.0,0.6475816001184285,907.8568484999705,909.7525798999704,,,,,,,152,f,31,2023-04-03_11h15.32.791,RL,2022.2.4,59.99926798938713,
1,102,0,102,0,,,,,,,,,,None,909.7525798999704,909.7525798999704,909.7525798999704,909.7525798999704,909.7525798999704,909.7525798999704,r,0.3074784001801163,910.0861462999601,910.0861462999601,910.0861462999601,910.0861462999601,910.0861462999601,910.0861462999601,910.3843545001,910.3843545001,911.5476796999574,911.5476796999574,911.5476796999574,911.5476796999574,911.5476796999574,911.5476796999574,911.5476796999574,911.5476796999574,911.5476796999574,911.5476796999574,911.5476796999574,911.5476796999574,911.5476796999574,911.5476796999574,911.5476796999574,911.5476796999574,911.5476796999574,914.0567920000758,914.0567920000758,914.0567920000758,914.0567920000758,914.0567920000758,24,57,41,38,24,53,1.0,0.3314636000432074,914.4058902000543,916.2016276000068,,,,,,,152,f,31,2023-04-03_11h15.32.791,RL,2022.2.4,59.99926798938713,
1,103,0,103,0,,,,,,,,,,None,916.2016276000068,916.2016276000068,916.2016276000068,916.2016276000068,916.2016276000068,916.2016276000068,f,0.03213619999587536,916.2546123999637,916.2546123999637,916.2546123999637,916.2546123999637,916.2546123999637,916.2546123999637,916.5511102001183,916.5511102001183,918.4957358001266,918.4957358001266,918.5120600000955,918.5120600000955,918.5120600000955,918.5120600000955,918.5120600000955,918.5120600000955,918.5120600000955,918.5120600000955,918.5120600000955,918.5120600000955,918.5120600000955,918.5120600000955,918.5120600000955,918.5120600000955,918.5120600000955,921.0210792999715,921.0210792999715,921.0210792999715,921.0210792999715,921.0210792999715,22,53,51,37,53,57,3.0,0.8797347000800073,921.9185898001306,923.6812658999115,,,,,,,152,f,31,2023-04-03_11h15.32.791,RL,2022.2.4,59.99926798938713,
1,104,0,104,0,,,,,,,,,,None,923.6812658999115,923.6812658999115,923.6812658999115,923.6812658999115,923.6812658999115,923.6812658999115,f,0.34069970017299056,924.0482701000292,924.0482701000292,924.0482701000292,924.0482701000292,924.0482701000292,924.0482701000292,924.3465319001116,924.3465319001116,925.692111399956,925.692111399956,925.692111399956,925.692111399956,925.692111399956,925.692111399956,925.692111399956,925.692111399956,925.692111399956,925.692111399956,925.692111399956,925.692111399956,925.692111399956,925.692111399956,925.692111399956,925.692111399956,925.692111399956,928.2018224000931,928.2018224000931,928.2018224000931,928.2018224000931,928.2018224000931,23,71,45,45,71,59,4.0,3.821675500134006,932.0410364000127,933.836616900051,,,,,,,152,f,31,2023-04-03_11h15.32.791,RL,2022.2.4,59.99926798938713,
1,105,0,105,0,,,,,,,,,,None,933.836616900051,933.836616900051,933.836616900051,933.836616900051,933.836616900051,933.836616900051,r,0.21657119994051754,934.0877920000348,934.0877920000348,934.0877920000348,934.0877920000348,934.0877920000348,934.0877920000348,934.3855985000264,934.3855985000264,936.2137537000235,936.2137537000235,936.2302208999172,936.2302208999172,936.2302208999172,936.2302208999172,936.2302208999172,936.2302208999172,936.2302208999172,936.2302208999172,936.2302208999172,936.2302208999172,936.2302208999172,936.2302208999172,936.2302208999172,936.2302208999172,936.2302208999172,938.7393217000645,938.7393217000645,938.7393217000645,938.7393217000645,938.7393217000645,29,64,47,41,29,62,1.0,0.4810758999083191,939.2381700999103,941.0170947001316,,,,,,,152,f,31,2023-04-03_11h15.32.791,RL,2022.2.4,59.99926798938713,
1,106,0,106,0,,,,,,,,,,None,941.0170947001316,941.0170947001316,941.0170947001316,941.0170947001316,941.0170947001316,941.0170947001316,i,0.35169659997336566,941.4004015000537,941.4004015000537,941.4004015000537,941.4004015000537,941.4004015000537,941.4004015000537,941.6989114999305,941.6989114999305,942.6293148999102,942.6293148999102,942.6293148999102,942.6293148999102,942.6293148999102,942.6293148999102,942.6293148999102,942.6293148999102,942.6293148999102,942.6293148999102,942.6293148999102,942.6293148999102,942.6293148999102,942.6293148999102,942.6293148999102,942.6293148999102,942.6293148999102,945.1387130001094,945.1387130001094,945.1387130001094,945.1387130001094,945.1387130001094,25,60,49,43,49,53,3.0,1.7610162000637501,946.9171857999172,948.480076600099,,,,,,,152,f,31,2023-04-03_11h15.32.791,RL,2022.2.4,59.99926798938713,
1,107,0,107,0,,,,,,,,,,None,948.480076600099,948.480076600099,948.480076600099,948.480076600099,948.480076600099,948.480076600099,j,0.2958386999089271,948.7969373001251,948.7969373001251,948.7969373001251,948.7969373001251,948.7969373001251,948.7969373001251,949.0953001999296,949.0953001999296,950.0425402000546,950.0425402000546,950.0425402000546,950.0425402000546,950.0425402000546,950.0425402000546,950.0425402000546,950.0425402000546,950.0425402000546,950.0425402000546,950.0425402000546,950.0425402000546,950.0425402000546,950.0425402000546,950.0425402000546,950.0425402000546,950.0425402000546,952.5518285001162,952.5518285001162,952.5518285001162,952.5518285001162,952.5518285001162,24,66,50,28,28,55,1.0,0.5150937999133021,953.0837703000288,955.0624448999297,,,,,,,152,f,31,2023-04-03_11h15.32.791,RL,2022.2.4,59.99926798938713,
1,108,0,108,0,,,,,,,,,,None,955.0624448999297,955.0624448999297,955.0624448999297,955.0624448999297,955.0624448999297,955.0624448999297,f,0.32168489997275174,955.4127913999837,955.4127913999837,955.4127913999837,955.4127913999837,955.4127913999837,955.4127913999837,955.7105880000163,955.7105880000163,957.6720277999993,957.6720277999993,957.6720277999993,957.6720277999993,957.6720277999993,957.6720277999993,957.6720277999993,957.6720277999993,957.6720277999993,957.6720277999993,957.6720277999993,957.6720277999993,957.6720277999993,957.6720277999993,957.6720277999993,957.6720277999993,957.6720277999993,960.1808482999913,960.1808482999913,960.1808482999913,960.1808482999913,960.1808482999913,20,60,51,33,60,63,4.0,0.9628080001566559,961.1617350999732,962.7912423000671,,,,,,,152,f,31,2023-04-03_11h15.32.791,RL,2022.2.4,59.99926798938713,
1,109,0,109,0,,,,,,,,,,None,962.7912423000671,962.7912423000671,962.7912423000671,962.7912423000671,962.7912423000671,962.7912423000671,j,0.47485000011511147,963.293186099967,963.293186099967,963.293186099967,963.293186099967,963.293186099967,963.293186099967,963.5892097000033,963.5892097000033,964.4700545999222,964.4700545999222,964.4700545999222,964.4700545999222,964.4700545999222,964.4700545999222,964.4700545999222,964.4700545999222,964.4700545999222,964.4700545999222,964.4700545999222,964.4700545999222,964.4700545999222,964.4700545999222,964.4700545999222,964.4700545999222,964.4700545999222,966.9790906000417,966.9790906000417,966.9790906000417,966.9790906000417,966.9790906000417,21,60,49,41,41,48,4.0,0.3644436001777649,967.3610126001295,969.2897598000709,,,,,,,152,f,31,2023-04-03_11h15.32.791,RL,2022.2.4,59.99926798938713,
1,110,0,110,0,,,,,,,,,,None,969.2897598000709,969.2897598000709,969.2897598000709,969.2897598000709,969.2897598000709,969.2897598000709,j,0.27970279986038804,969.5918735000305,969.5918735000305,969.5918735000305,969.5918735000305,969.5918735000305,969.5918735000305,969.8884018000681,969.8884018000681,971.2017832999118,971.2017832999118,971.2017832999118,971.2017832999118,971.2017832999118,971.2017832999118,971.2017832999118,971.2017832999118,971.2017832999118,971.2017832999118,971.2017832999118,971.2017832999118,971.2017832999118,971.2017832999118,971.2017832999118,971.2017832999118,971.2017832999118,973.7108972999267,973.7108972999267,973.7108972999267,973.7108972999267,973.7108972999267,17,54,57,44,44,60,2.0,0.6642964999191463,974.3921423999127,975.9053045001347,,,,,,,152,f,31,2023-04-03_11h15.32.791,RL,2022.2.4,59.99926798938713,
1,111,0,111,0,,,,,,,,,,None,975.9053045001347,975.9053045001347,975.9053045001347,975.9053045001347,975.9053045001347,975.9053045001347,i,0.35745379980653524,976.2901954001281,976.2901954001281,976.2901954001281,976.2901954001281,976.2901954001281,976.2901954001281,976.5869831999298,976.5869831999298,977.8002568001393,977.8002568001393,977.8002568001393,977.8002568001393,977.8002568001393,977.8002568001393,977.8002568001393,977.8002568001393,977.8002568001393,977.8002568001393,977.8002568001393,977.8002568001393,977.8002568001393,977.8002568001393,977.8002568001393,977.8002568001393,977.8002568001393,980.3095154999755,980.3095154999755,980.3095154999755,980.3095154999755,980.3095154999755,17,62,52,43,52,63,2.0,1.7273816999513656,982.0544972000644,983.9666975999717,,,,,,,152,f,31,2023-04-03_11h15.32.791,RL,2022.2.4,59.99926798938713,
1,112,0,112,0,,,,,,,,,,None,983.9666975999717,983.9666975999717,983.9666975999717,983.9666975999717,983.9666975999717,983.9666975999717,r,0.27791579999029636,984.2693163999356,984.2693163999356,984.2693163999356,984.2693163999356,984.2693163999356,984.2693163999356,984.5649306001142,984.5649306001142,985.8618596000597,985.8618596000597,985.8618596000597,985.8618596000597,985.8618596000597,985.8618596000597,985.8618596000597,985.8618596000597,985.8618596000597,985.8618596000597,985.8618596000597,985.8618596000597,985.8618596000597,985.8618596000597,985.8618596000597,985.8618596000597,985.8618596000597,988.3707147000823,988.3707147000823,988.3707147000823,988.3707147000823,988.3707147000823,9,61,63,36,9,49,1.0,0.6808253999333829,989.0686812999193,991.0641981000081,,,,,,,152,f,31,2023-04-03_11h15.32.791,RL,2022.2.4,59.99926798938713,
1,113,0,113,0,,,,,,,,,,None,991.0641981000081,991.0641981000081,991.0641981000081,991.0641981000081,991.0641981000081,991.0641981000081,f,0.2975043999031186,991.3828477000352,991.3828477000352,991.3828477000352,991.3828477000352,991.3828477000352,991.3828477000352,991.6791286000516,991.6791286000516,992.6764624000061,992.6764624000061,992.6764624000061,992.6764624000061,992.6764624000061,992.6764624000061,992.6764624000061,992.6764624000061,992.6764624000061,992.6764624000061,992.6764624000061,992.6764624000061,992.6764624000061,992.6764624000061,992.6764624000061,992.6764624000061,992.6764624000061,995.1853720999788,995.1853720999788,995.1853720999788,995.1853720999788,995.1853720999788,19,61,67,38,61,61,5.0,0.7469913000240922,995.9498735999223,997.8787358000409,,,,,,,152,f,31,2023-04-03_11h15.32.791,RL,2022.2.4,59.99926798938713,
1,114,0,114,0,,,,,,,,,,None,997.8787358000409,997.8787358000409,997.8787358000409,997.8787358000409,997.8787358000409,997.8787358000409,j,0.33064100006595254,998.2308779000305,998.2308779000305,998.2308779000305,998.2308779000305,998.2308779000305,998.2308779000305,998.5272214999422,998.5272214999422,1000.2723457999527,1000.2723457999527,1000.2723457999527,1000.2723457999527,1000.2723457999527,1000.2723457999527,1000.2723457999527,1000.2723457999527,1000.2723457999527,1000.2723457999527,1000.2723457999527,1000.2723457999527,1000.2723457999527,1000.2723457999527,1000.2723457999527,1000.2723457999527,1000.2723457999527,1002.7810013999697,1002.7810013999697,1002.7810013999697,1002.7810013999697,1002.7810013999697,27,60,52,34,34,44,3.0,0.7637585999909788,1003.5626127000432,1005.5577519000508,,,,,,,152,f,31,2023-04-03_11h15.32.791,RL,2022.2.4,59.99926798938713,
