bandit,trials.thisRepN,trials.thisTrialN,trials.thisN,trials.thisIndex,instru_img1.started,instru_resp.started,instru_resp.keys,instru_resp.rt,instru_img2.started,instru_resp2.started,instru_resp2.keys,instru_resp2.rt,fixbefore_2.started,rest_response.keys,red.started,green.started,yellow.started,blue.started,choose_bandit.started,Fixation.started,choose_bandit.keys,choose_bandit.rt,black.started,red_2.started,green_2.started,yellow_2.started,blue_2.started,fixation_2.started,docs.started,image_2.started,docs.stopped,image_2.stopped,black.stopped,red_2.stopped,green_2.stopped,yellow_2.stopped,blue_2.stopped,fixation_2.stopped,black_com.started,reward_sub.started,palyerb.started,reward__sub.started,compare.started,red_compare.started,green_com.started,yellow_com.started,blue_com.started,image_3.started,slider.started,text.started,image_4.started,image_5.started,rewardyellow,rewardred,rewardblue,rewardgreen,subchoose,playerb,slider.response,slider.rt,intertrialfix.started,intertrialfix.stopped,rest_image.started,rest_response.started,rest_response.rt,image.started,key_resp.started,key_resp.keys,participant,Gender,Age,date,expName,psychopyVersion,frameRate,
,,,,,28.8380798290018,28.8380798290018,space,2.0184891180033446,,,,,,,,,,,,,,,,,,,,,,,,,,,,,,,,,,,,,,,,,,,,,,,,,,,,,,,,,,,,,153,m,19,2023-04-03_13h35.57.045,RL,2022.2.4,60.041306979322705,
,,,,,,,,,30.90187789999618,30.90187789999618,y,19.42930704599712,,,,,,,,,,,,,,,,,,,,,,,,,,,,,,,,,,,,,,,,,,,,,,,,,,,,,,,,,153,m,19,2023-04-03_13h35.57.045,RL,2022.2.4,60.041306979322705,
1,0,0,0,0,,,,,,,,,50.375870538002346,None,51.39383786200051,51.39383786200051,51.39383786200051,51.39383786200051,51.39383786200051,51.39383786200051,j,0.4562916020004195,51.90685536599631,51.90685536599631,51.90685536599631,51.90685536599631,51.90685536599631,51.90685536599631,52.15648893100297,52.15648893100297,53.64219703600247,53.64219703600247,53.70144532500126,53.70144532500126,53.70144532500126,53.70144532500126,53.70144532500126,53.70144532500126,53.70144532500126,53.70144532500126,53.70144532500126,53.70144532500126,53.70144532500126,53.70144532500126,53.70144532500126,53.70144532500126,53.70144532500126,56.20124963299895,56.20124963299895,56.20124963299895,56.20124963299895,56.20124963299895,73,50,63,34,34,40,3.0,2.903199626998685,59.12193652900169,60.919517224996525,,,,,,,153,m,19,2023-04-03_13h35.57.045,RL,2022.2.4,60.041306979322705,
1,1,0,1,0,,,,,,,,,,None,60.919517224996525,60.919517224996525,60.919517224996525,60.919517224996525,60.919517224996525,60.919517224996525,r,0.8620098450046498,61.83084392199817,61.83084392199817,61.83084392199817,61.83084392199817,61.83084392199817,61.83084392199817,62.10273295400111,62.10273295400111,63.796416193996265,63.796416193996265,63.83952012399823,63.83952012399823,63.83952012399823,63.83952012399823,63.83952012399823,63.83952012399823,63.83952012399823,63.83952012399823,63.83952012399823,63.83952012399823,63.83952012399823,63.83952012399823,63.83952012399823,63.83952012399823,63.83952012399823,66.33314393900218,66.33314393900218,66.33314393900218,66.33314393900218,66.33314393900218,78,45,49,26,78,39,6.0,2.5484722039982444,68.89540346000285,70.69077337299677,,,,,,,153,m,19,2023-04-03_13h35.57.045,RL,2022.2.4,60.041306979322705,
1,2,0,2,0,,,,,,,,,,None,70.69077337299677,70.69077337299677,70.69077337299677,70.69077337299677,70.69077337299677,70.69077337299677,f,1.1028174650055007,71.84708808099822,71.84708808099822,71.84708808099822,71.84708808099822,71.84708808099822,71.84708808099822,72.11484147099691,72.11484147099691,73.85864409899659,73.85864409899659,73.90133200000128,73.90133200000128,73.90133200000128,73.90133200000128,73.90133200000128,73.90133200000128,73.90133200000128,73.90133200000128,73.90133200000128,73.90133200000128,73.90133200000128,73.90133200000128,73.90133200000128,73.90133200000128,73.90133200000128,76.40170242900058,76.40170242900058,76.40170242900058,76.40170242900058,76.40170242900058,71,33,45,34,33,53,3.0,2.4341763370030094,78.84988670799794,80.86228459099948,,,,,,,153,m,19,2023-04-03_13h35.57.045,RL,2022.2.4,60.041306979322705,
1,3,0,3,0,,,,,,,,,,None,80.86228459099948,80.86228459099948,80.86228459099948,80.86228459099948,80.86228459099948,80.86228459099948,j,1.0261508080002386,81.93493598500208,81.93493598500208,81.93493598500208,81.93493598500208,81.93493598500208,81.93493598500208,82.20248362699931,82.20248362699931,84.04073985799914,84.04073985799914,84.08304825999949,84.08304825999949,84.08304825999949,84.08304825999949,84.08304825999949,84.08304825999949,84.08304825999949,84.08304825999949,84.08304825999949,84.08304825999949,84.08304825999949,84.08304825999949,84.08304825999949,84.08304825999949,84.08304825999949,86.5793953609973,86.5793953609973,86.5793953609973,86.5793953609973,86.5793953609973,69,31,52,30,30,60,2.0,0.8817197239986854,87.4745226820014,89.29834081399895,,,,,,,153,m,19,2023-04-03_13h35.57.045,RL,2022.2.4,60.041306979322705,
1,4,0,4,0,,,,,,,,,,None,89.29834081399895,89.29834081399895,89.29834081399895,89.29834081399895,89.29834081399895,89.29834081399895,f,0.7285057850021985,90.0720690770031,90.0720690770031,90.0720690770031,90.0720690770031,90.0720690770031,90.0720690770031,90.33897780299594,90.33897780299594,91.95568139800162,91.95568139800162,91.99919819799834,91.99919819799834,91.99919819799834,91.99919819799834,91.99919819799834,91.99919819799834,91.99919819799834,91.99919819799834,91.99919819799834,91.99919819799834,91.99919819799834,91.99919819799834,91.99919819799834,91.99919819799834,91.99919819799834,94.49522523400083,94.49522523400083,94.49522523400083,94.49522523400083,94.49522523400083,71,40,55,28,40,59,3.0,1.7165195720008342,96.22521032599616,97.73661936199642,,,,,,,153,m,19,2023-04-03_13h35.57.045,RL,2022.2.4,60.041306979322705,
1,5,0,5,0,,,,,,,,,,None,97.73661936199642,97.73661936199642,97.73661936199642,97.73661936199642,97.73661936199642,97.73661936199642,i,0.6227216940023936,98.40987861400208,98.40987861400208,98.40987861400208,98.40987861400208,98.40987861400208,98.40987861400208,98.6790960319995,98.6790960319995,100.40337484899646,100.40337484899646,100.44268494100106,100.44268494100106,100.44268494100106,100.44268494100106,100.44268494100106,100.44268494100106,100.44268494100106,100.44268494100106,100.44268494100106,100.44268494100106,100.44268494100106,100.44268494100106,100.44268494100106,100.44268494100106,100.44268494100106,102.94609748999937,102.94609748999937,102.94609748999937,102.94609748999937,102.94609748999937,77,41,47,36,47,39,3.0,2.184124299994437,105.14394400099991,106.6907316450015,,,,,,,153,m,19,2023-04-03_13h35.57.045,RL,2022.2.4,60.041306979322705,
1,6,0,6,0,,,,,,,,,,None,106.6907316450015,106.6907316450015,106.6907316450015,106.6907316450015,106.6907316450015,106.6907316450015,f,0.7580561189970467,107.49800409399904,107.49800409399904,107.49800409399904,107.49800409399904,107.49800409399904,107.49800409399904,107.76264182399609,107.76264182399609,109.27011034799943,109.27011034799943,109.30886435999855,109.30886435999855,109.30886435999855,109.30886435999855,109.30886435999855,109.30886435999855,109.30886435999855,109.30886435999855,109.30886435999855,109.30886435999855,109.30886435999855,109.30886435999855,109.30886435999855,109.30886435999855,109.30886435999855,111.81694763000269,111.81694763000269,111.81694763000269,111.81694763000269,111.81694763000269,68,49,58,29,49,65,3.0,2.1682659090001835,113.99903119199735,115.79609789000096,,,,,,,153,m,19,2023-04-03_13h35.57.045,RL,2022.2.4,60.041306979322705,
1,7,0,7,0,,,,,,,,,,None,115.79609789000096,115.79609789000096,115.79609789000096,115.79609789000096,115.79609789000096,115.79609789000096,i,0.9401365960002295,116.78413930899842,116.78413930899842,116.78413930899842,116.78413930899842,116.78413930899842,116.78413930899842,117.05364560100134,117.05364560100134,118.38658643900271,118.38658643900271,118.43036207400291,118.43036207400291,118.43036207400291,118.43036207400291,118.43036207400291,118.43036207400291,118.43036207400291,118.43036207400291,118.43036207400291,118.43036207400291,118.43036207400291,118.43036207400291,118.43036207400291,118.43036207400291,118.43036207400291,120.93471992600098,120.93471992600098,120.93471992600098,120.93471992600098,120.93471992600098,81,49,56,27,56,60,4.0,0.6369117369977175,121.58467670199752,123.4821124020018,,,,,,,153,m,19,2023-04-03_13h35.57.045,RL,2022.2.4,60.041306979322705,
1,8,0,8,0,,,,,,,,,,None,123.4821124020018,123.4821124020018,123.4821124020018,123.4821124020018,123.4821124020018,123.4821124020018,r,0.5770998640000471,124.10345931100164,124.10345931100164,124.10345931100164,124.10345931100164,124.10345931100164,124.10345931100164,124.37133959100174,124.37133959100174,125.6915247720026,125.6915247720026,125.71499238799879,125.71499238799879,125.71499238799879,125.71499238799879,125.71499238799879,125.71499238799879,125.71499238799879,125.71499238799879,125.71499238799879,125.71499238799879,125.71499238799879,125.71499238799879,125.71499238799879,125.71499238799879,125.71499238799879,128.21739154100214,128.21739154100214,128.21739154100214,128.21739154100214,128.21739154100214,87,49,51,36,87,30,6.0,0.8330588480021106,129.06325869399734,130.6681717379979,,,,,,,153,m,19,2023-04-03_13h35.57.045,RL,2022.2.4,60.041306979322705,
1,9,0,9,0,,,,,,,,,,None,130.6681717379979,130.6681717379979,130.6681717379979,130.6681717379979,130.6681717379979,130.6681717379979,i,0.601948089999496,131.3255694010004,131.3255694010004,131.3255694010004,131.3255694010004,131.3255694010004,131.3255694010004,131.59554283799662,131.59554283799662,132.82062384000164,132.82062384000164,132.86368342799688,132.86368342799688,132.86368342799688,132.86368342799688,132.86368342799688,132.86368342799688,132.86368342799688,132.86368342799688,132.86368342799688,132.86368342799688,132.86368342799688,132.86368342799688,132.86368342799688,132.86368342799688,132.86368342799688,135.36369042199658,135.36369042199658,135.36369042199658,135.36369042199658,135.36369042199658,87,48,52,34,52,63,3.0,1.500302788001136,136.87708693800232,138.62256183499994,,,,,,,153,m,19,2023-04-03_13h35.57.045,RL,2022.2.4,60.041306979322705,
1,10,0,10,0,,,,,,,,,,None,138.62256183499994,138.62256183499994,138.62256183499994,138.62256183499994,138.62256183499994,138.62256183499994,j,0.470989446999738,139.14426531700155,139.14426531700155,139.14426531700155,139.14426531700155,139.14426531700155,139.14426531700155,139.41264413500176,139.41264413500176,140.71676134599693,140.71676134599693,140.7581145160002,140.7581145160002,140.7581145160002,140.7581145160002,140.7581145160002,140.7581145160002,140.7581145160002,140.7581145160002,140.7581145160002,140.7581145160002,140.7581145160002,140.7581145160002,140.7581145160002,140.7581145160002,140.7581145160002,143.26291704399773,143.26291704399773,143.26291704399773,143.26291704399773,143.26291704399773,73,42,50,26,26,68,1.0,0.8374608779995469,144.11432874300226,145.7923222669997,,,,,,,153,m,19,2023-04-03_13h35.57.045,RL,2022.2.4,60.041306979322705,
1,11,0,11,0,,,,,,,,,,None,145.7923222669997,145.7923222669997,145.7923222669997,145.7923222669997,145.7923222669997,145.7923222669997,f,0.5556913030013675,146.40210415200272,146.40210415200272,146.40210415200272,146.40210415200272,146.40210415200272,146.40210415200272,146.68219587599742,146.68219587599742,148.55994812100107,148.55994812100107,148.58172718199785,148.58172718199785,148.58172718199785,148.58172718199785,148.58172718199785,148.58172718199785,148.58172718199785,148.58172718199785,148.58172718199785,148.58172718199785,148.58172718199785,148.58172718199785,148.58172718199785,148.58172718199785,148.58172718199785,151.0860481619966,151.0860481619966,151.0860481619966,151.0860481619966,151.0860481619966,84,48,49,30,48,55,3.0,1.1215749549955945,152.22342666699842,154.1137896040018,,,,,,,153,m,19,2023-04-03_13h35.57.045,RL,2022.2.4,60.041306979322705,
1,12,0,12,0,,,,,,,,,,None,154.1137896040018,154.1137896040018,154.1137896040018,154.1137896040018,154.1137896040018,154.1137896040018,i,0.8071371330006514,154.9689580359991,154.9689580359991,154.9689580359991,154.9689580359991,154.9689580359991,154.9689580359991,155.237499982999,155.237499982999,157.0506195449998,157.0506195449998,157.07696900500014,157.07696900500014,157.07696900500014,157.07696900500014,157.07696900500014,157.07696900500014,157.07696900500014,157.07696900500014,157.07696900500014,157.07696900500014,157.07696900500014,157.07696900500014,157.07696900500014,157.07696900500014,157.07696900500014,159.58175587999722,159.58175587999722,159.58175587999722,159.58175587999722,159.58175587999722,75,36,47,34,47,51,3.0,0.5469452300021658,160.1403107169972,161.81668250499933,,,,,,,153,m,19,2023-04-03_13h35.57.045,RL,2022.2.4,60.041306979322705,
1,13,0,13,0,,,,,,,,,,None,161.81668250499933,161.81668250499933,161.81668250499933,161.81668250499933,161.81668250499933,161.81668250499933,f,0.4404775610018987,162.304962178001,162.304962178001,162.304962178001,162.304962178001,162.304962178001,162.304962178001,162.57427966900286,162.57427966900286,164.34281313000247,164.34281313000247,164.38399790699623,164.38399790699623,164.38399790699623,164.38399790699623,164.38399790699623,164.38399790699623,164.38399790699623,164.38399790699623,164.38399790699623,164.38399790699623,164.38399790699623,164.38399790699623,164.38399790699623,164.38399790699623,164.38399790699623,166.88437695599714,166.88437695599714,166.88437695599714,166.88437695599714,166.88437695599714,75,39,38,30,39,48,2.0,0.8135471670029801,167.71192463299667,169.27052061499853,,,,,,,153,m,19,2023-04-03_13h35.57.045,RL,2022.2.4,60.041306979322705,
1,14,0,14,0,,,,,,,,,,None,169.27052061499853,169.27052061499853,169.27052061499853,169.27052061499853,169.27052061499853,169.27052061499853,i,0.5595075480014202,169.87601247299608,169.87601247299608,169.87601247299608,169.87601247299608,169.87601247299608,169.87601247299608,170.14512428799935,170.14512428799935,171.928405491999,171.928405491999,171.97029641099653,171.97029641099653,171.97029641099653,171.97029641099653,171.97029641099653,171.97029641099653,171.97029641099653,171.97029641099653,171.97029641099653,171.97029641099653,171.97029641099653,171.97029641099653,171.97029641099653,171.97029641099653,171.97029641099653,174.4667250650018,174.4667250650018,174.4667250650018,174.4667250650018,174.4667250650018,74,38,40,28,40,39,3.0,0.7866744239945547,175.2684812860025,177.0748307219983,,,,,,,153,m,19,2023-04-03_13h35.57.045,RL,2022.2.4,60.041306979322705,
1,15,0,15,0,,,,,,,,,,None,177.0748307219983,177.0748307219983,177.0748307219983,177.0748307219983,177.0748307219983,177.0748307219983,j,0.44027361099870177,177.56670749800105,177.56670749800105,177.56670749800105,177.56670749800105,177.56670749800105,177.56670749800105,177.8370110620017,177.8370110620017,178.68150459200115,178.68150459200115,178.70630108499608,178.70630108499608,178.70630108499608,178.70630108499608,178.70630108499608,178.70630108499608,178.70630108499608,178.70630108499608,178.70630108499608,178.70630108499608,178.70630108499608,178.70630108499608,178.70630108499608,178.70630108499608,178.70630108499608,181.2112199539988,181.2112199539988,181.2112199539988,181.2112199539988,181.2112199539988,75,41,35,32,32,40,2.0,0.6427060810019611,181.86837150700012,183.72678662399994,,,,,,,153,m,19,2023-04-03_13h35.57.045,RL,2022.2.4,60.041306979322705,
1,16,0,16,0,,,,,,,,,,None,183.72678662399994,183.72678662399994,183.72678662399994,183.72678662399994,183.72678662399994,183.72678662399994,f,0.5372026660043048,184.31563125099638,184.31563125099638,184.31563125099638,184.31563125099638,184.31563125099638,184.31563125099638,184.58373766799923,184.58373766799923,186.15571283100144,186.15571283100144,186.18022227299662,186.18022227299662,186.18022227299662,186.18022227299662,186.18022227299662,186.18022227299662,186.18022227299662,186.18022227299662,186.18022227299662,186.18022227299662,186.18022227299662,186.18022227299662,186.18022227299662,186.18022227299662,186.18022227299662,188.6781435640005,188.6781435640005,188.6781435640005,188.6781435640005,188.6781435640005,73,43,36,31,43,41,3.0,1.8627607279995573,190.55559887999698,192.53157351299888,,,,,,,153,m,19,2023-04-03_13h35.57.045,RL,2022.2.4,60.041306979322705,
1,17,0,17,0,,,,,,,,,,None,192.53157351299888,192.53157351299888,192.53157351299888,192.53157351299888,192.53157351299888,192.53157351299888,i,0.6301969370033476,193.20036451800115,193.20036451800115,193.20036451800115,193.20036451800115,193.20036451800115,193.20036451800115,193.47348598999815,193.47348598999815,195.23641779000172,195.23641779000172,195.26111491399934,195.26111491399934,195.26111491399934,195.26111491399934,195.26111491399934,195.26111491399934,195.26111491399934,195.26111491399934,195.26111491399934,195.26111491399934,195.26111491399934,195.26111491399934,195.26111491399934,195.26111491399934,195.26111491399934,197.76755201900232,197.76755201900232,197.76755201900232,197.76755201900232,197.76755201900232,70,31,27,21,27,40,1.0,0.559934210999927,198.34043671499967,200.0690644589995,,,,,,,153,m,19,2023-04-03_13h35.57.045,RL,2022.2.4,60.041306979322705,
1,18,0,18,0,,,,,,,,,,None,200.0690644589995,200.0690644589995,200.0690644589995,200.0690644589995,200.0690644589995,200.0690644589995,f,0.3752473650019965,200.48977726700105,200.48977726700105,200.48977726700105,200.48977726700105,200.48977726700105,200.48977726700105,200.75905578699894,200.75905578699894,202.11095976499928,202.11095976499928,202.15137774599862,202.15137774599862,202.15137774599862,202.15137774599862,202.15137774599862,202.15137774599862,202.15137774599862,202.15137774599862,202.15137774599862,202.15137774599862,202.15137774599862,202.15137774599862,202.15137774599862,202.15137774599862,202.15137774599862,204.6640750029983,204.6640750029983,204.6640750029983,204.6640750029983,204.6640750029983,66,39,39,27,39,27,3.0,3.5491302470036317,208.23049102699588,209.90620961999957,,,,,,,153,m,19,2023-04-03_13h35.57.045,RL,2022.2.4,60.041306979322705,
1,19,0,19,0,,,,,,,,,,None,209.90620961999957,209.90620961999957,209.90620961999957,209.90620961999957,209.90620961999957,209.90620961999957,r,0.5947517649983638,210.54047400000127,210.54047400000127,210.54047400000127,210.54047400000127,210.54047400000127,210.54047400000127,210.81292974299868,210.81292974299868,212.33462450200022,212.33462450200022,212.37598103500204,212.37598103500204,212.37598103500204,212.37598103500204,212.37598103500204,212.37598103500204,212.37598103500204,212.37598103500204,212.37598103500204,212.37598103500204,212.37598103500204,212.37598103500204,212.37598103500204,212.37598103500204,212.37598103500204,214.88481398700242,214.88481398700242,214.88481398700242,214.88481398700242,214.88481398700242,71,32,31,32,71,52,6.0,1.0197097569980542,215.91979891400115,217.6915453679976,,,,,,,153,m,19,2023-04-03_13h35.57.045,RL,2022.2.4,60.041306979322705,
1,20,0,20,0,,,,,,,,,,None,217.6915453679976,217.6915453679976,217.6915453679976,217.6915453679976,217.6915453679976,217.6915453679976,j,0.49203392100025667,218.23218718200224,218.23218718200224,218.23218718200224,218.23218718200224,218.23218718200224,218.23218718200224,218.50329532899923,218.50329532899923,219.8860690329966,219.8860690329966,219.9276974250024,219.9276974250024,219.9276974250024,219.9276974250024,219.9276974250024,219.9276974250024,219.9276974250024,219.9276974250024,219.9276974250024,219.9276974250024,219.9276974250024,219.9276974250024,219.9276974250024,219.9276974250024,219.9276974250024,222.43790165500104,222.43790165500104,222.43790165500104,222.43790165500104,222.43790165500104,77,39,23,28,28,65,1.0,1.838210842004628,224.2907294089964,225.81443202299852,,,,,,,153,m,19,2023-04-03_13h35.57.045,RL,2022.2.4,60.041306979322705,
1,21,0,21,0,,,,,,,,,,None,225.81443202299852,225.81443202299852,225.81443202299852,225.81443202299852,225.81443202299852,225.81443202299852,f,0.38201548300276045,226.25248189699778,226.25248189699778,226.25248189699778,226.25248189699778,226.25248189699778,226.25248189699778,226.52136604800035,226.52136604800035,227.53841719699994,227.53841719699994,227.577966963996,227.577966963996,227.577966963996,227.577966963996,227.577966963996,227.577966963996,227.577966963996,227.577966963996,227.577966963996,227.577966963996,227.577966963996,227.577966963996,227.577966963996,227.577966963996,227.577966963996,230.09124914099812,230.09124914099812,230.09124914099812,230.09124914099812,230.09124914099812,68,43,29,36,43,63,3.0,2.9026266560031218,233.00788482899952,234.9842197839971,,,,,,,153,m,19,2023-04-03_13h35.57.045,RL,2022.2.4,60.041306979322705,
1,22,0,22,0,,,,,,,,,,None,234.9842197839971,234.9842197839971,234.9842197839971,234.9842197839971,234.9842197839971,234.9842197839971,r,0.5764116749996901,235.6071829759967,235.6071829759967,235.6071829759967,235.6071829759967,235.6071829759967,235.6071829759967,235.8794359079984,235.8794359079984,237.3249786180022,237.3249786180022,237.36743965099595,237.36743965099595,237.36743965099595,237.36743965099595,237.36743965099595,237.36743965099595,237.36743965099595,237.36743965099595,237.36743965099595,237.36743965099595,237.36743965099595,237.36743965099595,237.36743965099595,237.36743965099595,237.36743965099595,239.87538492000022,239.87538492000022,239.87538492000022,239.87538492000022,239.87538492000022,77,48,32,40,77,43,7.0,1.0049436539993621,240.89285252500122,242.77261771499616,,,,,,,153,m,19,2023-04-03_13h35.57.045,RL,2022.2.4,60.041306979322705,
1,23,0,23,0,,,,,,,,,,None,242.77261771499616,242.77261771499616,242.77261771499616,242.77261771499616,242.77261771499616,242.77261771499616,f,0.5802959339998779,243.3954950999978,243.3954950999978,243.3954950999978,243.3954950999978,243.3954950999978,243.3954950999978,243.66051219499786,243.66051219499786,245.58263534399885,245.58263534399885,245.623108339998,245.623108339998,245.623108339998,245.623108339998,245.623108339998,245.623108339998,245.623108339998,245.623108339998,245.623108339998,245.623108339998,245.623108339998,245.623108339998,245.623108339998,245.623108339998,245.623108339998,248.1346706780023,248.1346706780023,248.1346706780023,248.1346706780023,248.1346706780023,56,43,32,32,43,68,3.0,0.6980155970013584,248.84772524399887,250.6593638609993,,,,,,,153,m,19,2023-04-03_13h35.57.045,RL,2022.2.4,60.041306979322705,
1,24,0,24,0,,,,,,,,,,None,250.6593638609993,250.6593638609993,250.6593638609993,250.6593638609993,250.6593638609993,250.6593638609993,i,0.37668155199935427,251.08761380500073,251.08761380500073,251.08761380500073,251.08761380500073,251.08761380500073,251.08761380500073,251.36025165799947,251.36025165799947,253.00365343799785,253.00365343799785,253.04431443400244,253.04431443400244,253.04431443400244,253.04431443400244,253.04431443400244,253.04431443400244,253.04431443400244,253.04431443400244,253.04431443400244,253.04431443400244,253.04431443400244,253.04431443400244,253.04431443400244,253.04431443400244,253.04431443400244,255.54795876100252,255.54795876100252,255.54795876100252,255.54795876100252,255.54795876100252,68,43,28,28,28,27,2.0,0.6912671639947803,256.251004892998,257.7962110410008,,,,,,,153,m,19,2023-04-03_13h35.57.045,RL,2022.2.4,60.041306979322705,
1,25,0,25,0,,,,,,,,,,None,257.7962110410008,257.7962110410008,257.7962110410008,257.7962110410008,257.7962110410008,257.7962110410008,f,0.3678507709992118,258.2156337330016,258.2156337330016,258.2156337330016,258.2156337330016,258.2156337330016,258.2156337330016,258.487909190997,258.487909190997,260.4389831160006,260.4389831160006,260.4789746999959,260.4789746999959,260.4789746999959,260.4789746999959,260.4789746999959,260.4789746999959,260.4789746999959,260.4789746999959,260.4789746999959,260.4789746999959,260.4789746999959,260.4789746999959,260.4789746999959,260.4789746999959,260.4789746999959,262.97924956300267,262.97924956300267,262.97924956300267,262.97924956300267,262.97924956300267,58,39,21,31,39,29,3.0,0.8271824010007549,263.8204244200024,265.6164880590004,,,,,,,153,m,19,2023-04-03_13h35.57.045,RL,2022.2.4,60.041306979322705,
1,26,0,26,0,,,,,,,,,,None,265.6164880590004,265.6164880590004,265.6164880590004,265.6164880590004,265.6164880590004,265.6164880590004,i,0.5736216000004788,266.24241199099924,266.24241199099924,266.24241199099924,266.24241199099924,266.24241199099924,266.24241199099924,266.51365489100135,266.51365489100135,268.26719385400065,268.26719385400065,268.28895575799834,268.28895575799834,268.28895575799834,268.28895575799834,268.28895575799834,268.28895575799834,268.28895575799834,268.28895575799834,268.28895575799834,268.28895575799834,268.28895575799834,268.28895575799834,268.28895575799834,268.28895575799834,268.28895575799834,270.7970932820026,270.7970932820026,270.7970932820026,270.7970932820026,270.7970932820026,70,45,30,33,30,41,2.0,0.7825120389970834,271.59414763699897,273.31923446199653,,,,,,,153,m,19,2023-04-03_13h35.57.045,RL,2022.2.4,60.041306979322705,
1,27,0,27,0,,,,,,,,,,None,273.31923446199653,273.31923446199653,273.31923446199653,273.31923446199653,273.31923446199653,273.31923446199653,f,0.2747163630046998,273.64764489499794,273.64764489499794,273.64764489499794,273.64764489499794,273.64764489499794,273.64764489499794,273.9232837419986,273.9232837419986,275.3560116200024,275.3560116200024,275.3771362719999,275.3771362719999,275.3771362719999,275.3771362719999,275.3771362719999,275.3771362719999,275.3771362719999,275.3771362719999,275.3771362719999,275.3771362719999,275.3771362719999,275.3771362719999,275.3771362719999,275.3771362719999,275.3771362719999,277.8841010390024,277.8841010390024,277.8841010390024,277.8841010390024,277.8841010390024,66,37,28,32,37,70,1.0,0.6021910330018727,278.501436008999,280.0565018319976,,,,,,,153,m,19,2023-04-03_13h35.57.045,RL,2022.2.4,60.041306979322705,
1,28,0,28,0,,,,,,,,,,None,280.0565018319976,280.0565018319976,280.0565018319976,280.0565018319976,280.0565018319976,280.0565018319976,i,0.4613668979945942,280.55912947999605,280.55912947999605,280.55912947999605,280.55912947999605,280.55912947999605,280.55912947999605,280.83124129899807,280.83124129899807,282.7184922649976,282.7184922649976,282.75959860799776,282.75959860799776,282.75959860799776,282.75959860799776,282.75959860799776,282.75959860799776,282.75959860799776,282.75959860799776,282.75959860799776,282.75959860799776,282.75959860799776,282.75959860799776,282.75959860799776,282.75959860799776,282.75959860799776,285.2586710399992,285.2586710399992,285.2586710399992,285.2586710399992,285.2586710399992,69,48,35,40,35,66,1.0,0.4956476619991008,285.7663548479977,287.7103569969986,,,,,,,153,m,19,2023-04-03_13h35.57.045,RL,2022.2.4,60.041306979322705,
1,29,0,29,0,,,,,,,,,,None,287.7103569969986,287.7103569969986,287.7103569969986,287.7103569969986,287.7103569969986,287.7103569969986,r,0.31322216000262415,288.06599209999695,288.06599209999695,288.06599209999695,288.06599209999695,288.06599209999695,288.06599209999695,288.3330996980003,288.3330996980003,289.4703633169993,289.4703633169993,289.5114833940024,289.5114833940024,289.5114833940024,289.5114833940024,289.5114833940024,289.5114833940024,289.5114833940024,289.5114833940024,289.5114833940024,289.5114833940024,289.5114833940024,289.5114833940024,289.5114833940024,289.5114833940024,289.5114833940024,292.01789969299716,292.01789969299716,292.01789969299716,292.01789969299716,292.01789969299716,63,44,23,33,63,69,4.0,0.8196080029956647,292.8513784320021,294.4290124409963,,,,,,,153,m,19,2023-04-03_13h35.57.045,RL,2022.2.4,60.041306979322705,
1,30,0,30,0,,,,,,,,,,None,294.4290124409963,294.4290124409963,294.4290124409963,294.4290124409963,294.4290124409963,294.4290124409963,j,0.33623112799978117,294.81628915700276,294.81628915700276,294.81628915700276,294.81628915700276,294.81628915700276,294.81628915700276,295.08629010099685,295.08629010099685,296.5021208399994,296.5021208399994,296.54335962000187,296.54335962000187,296.54335962000187,296.54335962000187,296.54335962000187,296.54335962000187,296.54335962000187,296.54335962000187,296.54335962000187,296.54335962000187,296.54335962000187,296.54335962000187,296.54335962000187,296.54335962000187,296.54335962000187,299.04449710300105,299.04449710300105,299.04449710300105,299.04449710300105,299.04449710300105,60,47,35,38,38,79,1.0,0.5506662709958619,299.60878689699894,301.3331644630016,,,,,,,153,m,19,2023-04-03_13h35.57.045,RL,2022.2.4,60.041306979322705,
1,31,0,31,0,,,,,,,,,,None,301.3331644630016,301.3331644630016,301.3331644630016,301.3331644630016,301.3331644630016,301.3331644630016,i,0.4596672839979874,301.83760036400054,301.83760036400054,301.83760036400054,301.83760036400054,301.83760036400054,301.83760036400054,302.11004809600126,302.11004809600126,303.8973090189975,303.8973090189975,303.935725835996,303.935725835996,303.935725835996,303.935725835996,303.935725835996,303.935725835996,303.935725835996,303.935725835996,303.935725835996,303.935725835996,303.935725835996,303.935725835996,303.935725835996,303.935725835996,303.935725835996,306.4510689969975,306.4510689969975,306.4510689969975,306.4510689969975,306.4510689969975,60,39,26,32,26,68,1.0,0.46317405000445433,306.92685173000064,308.88618765999854,,,,,,,153,m,19,2023-04-03_13h35.57.045,RL,2022.2.4,60.041306979322705,
1,32,0,32,0,,,,,,,,,,None,308.88618765999854,308.88618765999854,308.88618765999854,308.88618765999854,308.88618765999854,308.88618765999854,f,0.3185246940047364,309.2555817679968,309.2555817679968,309.2555817679968,309.2555817679968,309.2555817679968,309.2555817679968,309.5257020459976,309.5257020459976,310.7326589029981,310.7326589029981,310.77325213899894,310.77325213899894,310.77325213899894,310.77325213899894,310.77325213899894,310.77325213899894,310.77325213899894,310.77325213899894,310.77325213899894,310.77325213899894,310.77325213899894,310.77325213899894,310.77325213899894,310.77325213899894,310.77325213899894,313.27638003000175,313.27638003000175,313.27638003000175,313.27638003000175,313.27638003000175,63,50,25,42,50,49,4.0,0.6224267290017451,313.9101978569961,315.70575867700245,,,,,,,153,m,19,2023-04-03_13h35.57.045,RL,2022.2.4,60.041306979322705,
1,33,0,33,0,,,,,,,,,,None,315.70575867700245,315.70575867700245,315.70575867700245,315.70575867700245,315.70575867700245,315.70575867700245,f,0.8947980199955055,316.6438512809982,316.6438512809982,316.6438512809982,316.6438512809982,316.6438512809982,316.6438512809982,316.91373005999776,316.91373005999776,318.46156973199686,318.46156973199686,318.48619757399865,318.48619757399865,318.48619757399865,318.48619757399865,318.48619757399865,318.48619757399865,318.48619757399865,318.48619757399865,318.48619757399865,318.48619757399865,318.48619757399865,318.48619757399865,318.48619757399865,318.48619757399865,318.48619757399865,321.00663987400185,321.00663987400185,321.00663987400185,321.00663987400185,321.00663987400185,57,49,31,35,49,67,3.0,1.4649246050030342,322.4833118489987,324.461228457003,,,,,,,153,m,19,2023-04-03_13h35.57.045,RL,2022.2.4,60.041306979322705,
1,34,0,34,0,,,,,,,,,,None,324.461228457003,324.461228457003,324.461228457003,324.461228457003,324.461228457003,324.461228457003,f,0.2809080189981614,324.78538814200147,324.78538814200147,324.78538814200147,324.78538814200147,324.78538814200147,324.78538814200147,325.0513837920007,325.0513837920007,326.69004056799895,326.69004056799895,326.71551157599606,326.71551157599606,326.71551157599606,326.71551157599606,326.71551157599606,326.71551157599606,326.71551157599606,326.71551157599606,326.71551157599606,326.71551157599606,326.71551157599606,326.71551157599606,326.71551157599606,326.71551157599606,326.71551157599606,329.2243204589977,329.2243204589977,329.2243204589977,329.2243204589977,329.2243204589977,57,49,34,41,49,62,2.0,1.2731421270000283,330.51243452999915,332.39842941799725,,,,,,,153,m,19,2023-04-03_13h35.57.045,RL,2022.2.4,60.041306979322705,
1,35,0,35,0,,,,,,,,,,None,332.39842941799725,332.39842941799725,332.39842941799725,332.39842941799725,332.39842941799725,332.39842941799725,i,0.471770658994501,332.92711998800223,332.92711998800223,332.92711998800223,332.92711998800223,332.92711998800223,332.92711998800223,333.1985083230029,333.1985083230029,334.39815340899804,334.39815340899804,334.4374430579992,334.4374430579992,334.4374430579992,334.4374430579992,334.4374430579992,334.4374430579992,334.4374430579992,334.4374430579992,334.4374430579992,334.4374430579992,334.4374430579992,334.4374430579992,334.4374430579992,334.4374430579992,334.4374430579992,336.9451595290011,336.9451595290011,336.9451595290011,336.9451595290011,336.9451595290011,68,48,26,33,26,49,1.0,1.1006163409983856,338.06083491999743,339.8185840369988,,,,,,,153,m,19,2023-04-03_13h35.57.045,RL,2022.2.4,60.041306979322705,
1,36,0,36,0,,,,,,,,,,None,339.8185840369988,339.8185840369988,339.8185840369988,339.8185840369988,339.8185840369988,339.8185840369988,f,0.5903733820014168,340.4630161210007,340.4630161210007,340.4630161210007,340.4630161210007,340.4630161210007,340.4630161210007,340.7292878329972,340.7292878329972,342.2149969969978,342.2149969969978,342.25353961999645,342.25353961999645,342.25353961999645,342.25353961999645,342.25353961999645,342.25353961999645,342.25353961999645,342.25353961999645,342.25353961999645,342.25353961999645,342.25353961999645,342.25353961999645,342.25353961999645,342.25353961999645,342.25353961999645,344.7644205149991,344.7644205149991,344.7644205149991,344.7644205149991,344.7644205149991,70,49,32,33,49,60,2.0,1.301321248000022,346.08102482899994,348.0889675349972,,,,,,,153,m,19,2023-04-03_13h35.57.045,RL,2022.2.4,60.041306979322705,
1,37,0,37,0,,,,,,,,,,None,348.0889675349972,348.0889675349972,348.0889675349972,348.0889675349972,348.0889675349972,348.0889675349972,i,0.5217787450019387,348.6649747219999,348.6649747219999,348.6649747219999,348.6649747219999,348.6649747219999,348.6649747219999,348.94079172400234,348.94079172400234,349.981357855002,349.981357855002,350.0064054859977,350.0064054859977,350.0064054859977,350.0064054859977,350.0064054859977,350.0064054859977,350.0064054859977,350.0064054859977,350.0064054859977,350.0064054859977,350.0064054859977,350.0064054859977,350.0064054859977,350.0064054859977,350.0064054859977,352.51590730700264,352.51590730700264,352.51590730700264,352.51590730700264,352.51590730700264,64,47,23,38,23,61,1.0,0.6381955070028198,353.16892254399863,355.0250685130013,,,,,,,153,m,19,2023-04-03_13h35.57.045,RL,2022.2.4,60.041306979322705,
1,38,0,38,0,,,,,,,,,,None,355.0250685130013,355.0250685130013,355.0250685130013,355.0250685130013,355.0250685130013,355.0250685130013,f,0.3382643730001291,355.40829961599957,355.40829961599957,355.40829961599957,355.40829961599957,355.40829961599957,355.40829961599957,355.6824954249969,355.6824954249969,357.1427040490016,357.1427040490016,357.16765298099926,357.16765298099926,357.16765298099926,357.16765298099926,357.16765298099926,357.16765298099926,357.16765298099926,357.16765298099926,357.16765298099926,357.16765298099926,357.16765298099926,357.16765298099926,357.16765298099926,357.16765298099926,357.16765298099926,359.66877654699783,359.66877654699783,359.66877654699783,359.66877654699783,359.66877654699783,70,50,30,31,50,52,4.0,0.6365519540049718,360.31939795499784,362.26270804100204,,,,,,,153,m,19,2023-04-03_13h35.57.045,RL,2022.2.4,60.041306979322705,
1,39,0,39,0,,,,,,,,,,None,362.26270804100204,362.26270804100204,362.26270804100204,362.26270804100204,362.26270804100204,362.26270804100204,i,0.35769220799556933,362.6645486729976,362.6645486729976,362.6645486729976,362.6645486729976,362.6645486729976,362.6645486729976,362.93765788900055,362.93765788900055,364.265734765002,364.265734765002,364.28995170899725,364.28995170899725,364.28995170899725,364.28995170899725,364.28995170899725,364.28995170899725,364.28995170899725,364.28995170899725,364.28995170899725,364.28995170899725,364.28995170899725,364.28995170899725,364.28995170899725,364.28995170899725,364.28995170899725,366.80129030399985,366.80129030399985,366.80129030399985,366.80129030399985,366.80129030399985,69,46,28,20,28,60,1.0,1.0228767279986641,367.8346330170025,369.7621997899987,,,,,,,153,m,19,2023-04-03_13h35.57.045,RL,2022.2.4,60.041306979322705,
1,40,0,40,0,,,,,,,,,,None,369.7621997899987,369.7621997899987,369.7621997899987,369.7621997899987,369.7621997899987,369.7621997899987,f,0.31220465800288366,370.1295704410004,370.1295704410004,370.1295704410004,370.1295704410004,370.1295704410004,370.1295704410004,370.38771606299997,370.38771606299997,372.0859092460014,372.0859092460014,372.12757620999764,372.12757620999764,372.12757620999764,372.12757620999764,372.12757620999764,372.12757620999764,372.12757620999764,372.12757620999764,372.12757620999764,372.12757620999764,372.12757620999764,372.12757620999764,372.12757620999764,372.12757620999764,372.12757620999764,374.625944899999,374.625944899999,374.625944899999,374.625944899999,374.625944899999,64,54,44,36,54,20,5.0,1.0380942289993982,375.67907962699974,377.2030502540001,,,,,,,153,m,19,2023-04-03_13h35.57.045,RL,2022.2.4,60.041306979322705,
1,41,0,41,0,,,,,,,,,,None,377.2030502540001,377.2030502540001,377.2030502540001,377.2030502540001,377.2030502540001,377.2030502540001,j,0.32384090599953197,377.58121235600265,377.58121235600265,377.58121235600265,377.58121235600265,377.58121235600265,377.58121235600265,377.8589060450031,377.8589060450031,379.8450935389992,379.8450935389992,379.86666989199875,379.86666989199875,379.86666989199875,379.86666989199875,379.86666989199875,379.86666989199875,379.86666989199875,379.86666989199875,379.86666989199875,379.86666989199875,379.86666989199875,379.86666989199875,379.86666989199875,379.86666989199875,379.86666989199875,382.3709466709988,382.3709466709988,382.3709466709988,382.3709466709988,382.3709466709988,67,39,26,28,28,63,1.0,0.545165198003815,382.92964162200224,384.9056822010025,,,,,,,153,m,19,2023-04-03_13h35.57.045,RL,2022.2.4,60.041306979322705,
1,42,0,42,0,,,,,,,,,,None,384.9056822010025,384.9056822010025,384.9056822010025,384.9056822010025,384.9056822010025,384.9056822010025,f,0.2933916159963701,385.2419589900019,385.2419589900019,385.2419589900019,385.2419589900019,385.2419589900019,385.2419589900019,385.5123966940009,385.5123966940009,387.2224679799983,387.2224679799983,387.2633806579979,387.2633806579979,387.2633806579979,387.2633806579979,387.2633806579979,387.2633806579979,387.2633806579979,387.2633806579979,387.2633806579979,387.2633806579979,387.2633806579979,387.2633806579979,387.2633806579979,387.2633806579979,387.2633806579979,389.76973929000087,389.76973929000087,389.76973929000087,389.76973929000087,389.76973929000087,69,48,35,36,48,70,2.0,1.515934681003273,391.2993211110006,393.2281057910004,,,,,,,153,m,19,2023-04-03_13h35.57.045,RL,2022.2.4,60.041306979322705,
1,43,0,43,0,,,,,,,,,,None,393.2281057910004,393.2281057910004,393.2281057910004,393.2281057910004,393.2281057910004,393.2281057910004,j,0.31014013400272233,393.58675008499995,393.58675008499995,393.58675008499995,393.58675008499995,393.58675008499995,393.58675008499995,393.8532097619973,393.8532097619973,394.76148837099754,394.76148837099754,394.8024913150002,394.8024913150002,394.8024913150002,394.8024913150002,394.8024913150002,394.8024913150002,394.8024913150002,394.8024913150002,394.8024913150002,394.8024913150002,394.8024913150002,394.8024913150002,394.8024913150002,394.8024913150002,394.8024913150002,397.3030201559959,397.3030201559959,397.3030201559959,397.3030201559959,397.3030201559959,74,49,38,35,35,65,2.0,0.5880811240058392,397.9075177049963,399.6461576540023,,,,,,,153,m,19,2023-04-03_13h35.57.045,RL,2022.2.4,60.041306979322705,
1,44,0,44,0,,,,,,,,,,None,399.6461576540023,399.6461576540023,399.6461576540023,399.6461576540023,399.6461576540023,399.6461576540023,f,0.3030218819985748,400.00347491700086,400.00347491700086,400.00347491700086,400.00347491700086,400.00347491700086,400.00347491700086,400.2692590959996,400.2692590959996,402.2469057760027,402.2469057760027,402.28631690199836,402.28631690199836,402.28631690199836,402.28631690199836,402.28631690199836,402.28631690199836,402.28631690199836,402.28631690199836,402.28631690199836,402.28631690199836,402.28631690199836,402.28631690199836,402.28631690199836,402.28631690199836,402.28631690199836,404.7930991530011,404.7930991530011,404.7930991530011,404.7930991530011,404.7930991530011,72,49,41,37,49,70,3.0,0.48551734299689997,405.29215478600236,407.05007326100167,,,,,,,153,m,19,2023-04-03_13h35.57.045,RL,2022.2.4,60.041306979322705,
1,45,0,45,0,,,,,,,,,,None,407.05007326100167,407.05007326100167,407.05007326100167,407.05007326100167,407.05007326100167,407.05007326100167,i,0.3373951239991584,407.44424374299706,407.44424374299706,407.44424374299706,407.44424374299706,407.44424374299706,407.44424374299706,407.7177756719975,407.7177756719975,409.64222310199693,409.64222310199693,409.68502350799827,409.68502350799827,409.68502350799827,409.68502350799827,409.68502350799827,409.68502350799827,409.68502350799827,409.68502350799827,409.68502350799827,409.68502350799827,409.68502350799827,409.68502350799827,409.68502350799827,409.68502350799827,409.68502350799827,412.180698203003,412.180698203003,412.180698203003,412.180698203003,412.180698203003,70,54,41,34,41,59,3.0,2.8639576179994037,415.0599650599979,416.6550027880003,,,,,,,153,m,19,2023-04-03_13h35.57.045,RL,2022.2.4,60.041306979322705,
1,46,0,46,0,,,,,,,,,,None,416.6550027880003,416.6550027880003,416.6550027880003,416.6550027880003,416.6550027880003,416.6550027880003,r,0.3298724900014349,417.0257238619961,417.0257238619961,417.0257238619961,417.0257238619961,417.0257238619961,417.0257238619961,417.294175103998,417.294175103998,418.4457896640015,418.4457896640015,418.48382122199837,418.48382122199837,418.48382122199837,418.48382122199837,418.48382122199837,418.48382122199837,418.48382122199837,418.48382122199837,418.48382122199837,418.48382122199837,418.48382122199837,418.48382122199837,418.48382122199837,418.48382122199837,418.48382122199837,420.99774103300297,420.99774103300297,420.99774103300297,420.99774103300297,420.99774103300297,66,55,38,26,66,54,5.0,1.1024176380014978,422.114161573998,423.7425480160018,,,,,,,153,m,19,2023-04-03_13h35.57.045,RL,2022.2.4,60.041306979322705,
1,47,0,47,0,,,,,,,,,,None,423.7425480160018,423.7425480160018,423.7425480160018,423.7425480160018,423.7425480160018,423.7425480160018,i,0.31660245599778136,424.10912888599705,424.10912888599705,424.10912888599705,424.10912888599705,424.10912888599705,424.10912888599705,424.37948149199656,424.37948149199656,425.7495364839997,425.7495364839997,425.79367526499846,425.79367526499846,425.79367526499846,425.79367526499846,425.79367526499846,425.79367526499846,425.79367526499846,425.79367526499846,425.79367526499846,425.79367526499846,425.79367526499846,425.79367526499846,425.79367526499846,425.79367526499846,425.79367526499846,428.29154548200313,428.29154548200313,428.29154548200313,428.29154548200313,428.29154548200313,76,45,34,26,34,20,3.0,0.6307356990000699,428.93384991499624,430.678042198997,,,,,,,153,m,19,2023-04-03_13h35.57.045,RL,2022.2.4,60.041306979322705,
1,48,0,48,0,,,,,,,,,,None,430.678042198997,430.678042198997,430.678042198997,430.678042198997,430.678042198997,430.678042198997,j,0.3044412919989554,431.03290192499844,431.03290192499844,431.03290192499844,431.03290192499844,431.03290192499844,431.03290192499844,431.3009359849966,431.3009359849966,432.74122587199963,432.74122587199963,432.7811693010008,432.7811693010008,432.7811693010008,432.7811693010008,432.7811693010008,432.7811693010008,432.7811693010008,432.7811693010008,432.7811693010008,432.7811693010008,432.7811693010008,432.7811693010008,432.7811693010008,432.7811693010008,432.7811693010008,435.28779061899695,435.28779061899695,435.28779061899695,435.28779061899695,435.28779061899695,72,50,43,33,33,53,2.0,0.817497636002372,436.12011599999823,437.78055955799937,,,,,,,153,m,19,2023-04-03_13h35.57.045,RL,2022.2.4,60.041306979322705,
1,49,0,49,0,,,,,,,,,,None,437.78055955799937,437.78055955799937,437.78055955799937,437.78055955799937,437.78055955799937,437.78055955799937,f,0.3481738699993002,438.1689144289994,438.1689144289994,438.1689144289994,438.1689144289994,438.1689144289994,438.1689144289994,438.43823671899736,438.43823671899736,440.2030866799978,440.2030866799978,440.24421610999707,440.24421610999707,440.24421610999707,440.24421610999707,440.24421610999707,440.24421610999707,440.24421610999707,440.24421610999707,440.24421610999707,440.24421610999707,440.24421610999707,440.24421610999707,440.24421610999707,440.24421610999707,440.24421610999707,442.7410935680018,442.7410935680018,442.7410935680018,442.7410935680018,442.7410935680018,72,49,43,42,49,45,3.0,0.5064026149993879,443.2618047959986,444.8512637379972,,,,,,,153,m,19,2023-04-03_13h35.57.045,RL,2022.2.4,60.041306979322705,
1,50,0,50,0,,,,,,,,,,None,444.8512637379972,444.8512637379972,444.8512637379972,444.8512637379972,444.8512637379972,444.8512637379972,r,0.3394583449990023,445.2388501719979,445.2388501719979,445.2388501719979,445.2388501719979,445.2388501719979,445.2388501719979,445.5076844579962,445.5076844579962,446.6118974159981,446.6118974159981,446.6521534040003,446.6521534040003,446.6521534040003,446.6521534040003,446.6521534040003,446.6521534040003,446.6521534040003,446.6521534040003,446.6521534040003,446.6521534040003,446.6521534040003,446.6521534040003,446.6521534040003,446.6521534040003,446.6521534040003,449.1593033870013,449.1593033870013,449.1593033870013,449.1593033870013,449.1593033870013,83,52,43,32,83,63,6.0,0.6228074379978352,449.79342781099695,451.67166851799993,,,,,,,153,m,19,2023-04-03_13h35.57.045,RL,2022.2.4,60.041306979322705,
1,51,0,51,0,,,,,,,,,,None,451.67166851799993,451.67166851799993,451.67166851799993,451.67166851799993,451.67166851799993,451.67166851799993,f,0.303400379998493,452.0148897420004,452.0148897420004,452.0148897420004,452.0148897420004,452.0148897420004,452.0148897420004,452.28316084299877,452.28316084299877,453.6983170099993,453.6983170099993,453.73911138199765,453.73911138199765,453.73911138199765,453.73911138199765,453.73911138199765,453.73911138199765,453.73911138199765,453.73911138199765,453.73911138199765,453.73911138199765,453.73911138199765,453.73911138199765,453.73911138199765,453.73911138199765,453.73911138199765,456.23862579400156,456.23862579400156,456.23862579400156,456.23862579400156,456.23862579400156,78,52,44,40,52,65,3.0,0.9650960959988879,457.21792829199694,459.2072758419963,,,,,,,153,m,19,2023-04-03_13h35.57.045,RL,2022.2.4,60.041306979322705,
1,52,0,52,0,,,,,,,,,,None,459.2072758419963,459.2072758419963,459.2072758419963,459.2072758419963,459.2072758419963,459.2072758419963,i,0.28745830400293926,459.5473309430017,459.5473309430017,459.5473309430017,459.5473309430017,459.5473309430017,459.5473309430017,459.8150231050022,459.8150231050022,461.1205186399966,461.1205186399966,461.1590433750025,461.1590433750025,461.1590433750025,461.1590433750025,461.1590433750025,461.1590433750025,461.1590433750025,461.1590433750025,461.1590433750025,461.1590433750025,461.1590433750025,461.1590433750025,461.1590433750025,461.1590433750025,461.1590433750025,463.6725618199998,463.6725618199998,463.6725618199998,463.6725618199998,463.6725618199998,76,52,43,41,43,55,3.0,2.5637709790025838,466.2505294930015,468.2460045650005,,,,,,,153,m,19,2023-04-03_13h35.57.045,RL,2022.2.4,60.041306979322705,
1,53,0,53,0,,,,,,,,,,None,468.2460045650005,468.2460045650005,468.2460045650005,468.2460045650005,468.2460045650005,468.2460045650005,f,0.3778365570033202,468.67168744099763,468.67168744099763,468.67168744099763,468.67168744099763,468.67168744099763,468.67168744099763,468.9365135229964,468.9365135229964,470.2719249360016,470.2719249360016,470.30987769200146,470.30987769200146,470.30987769200146,470.30987769200146,470.30987769200146,470.30987769200146,470.30987769200146,470.30987769200146,470.30987769200146,470.30987769200146,470.30987769200146,470.30987769200146,470.30987769200146,470.30987769200146,470.30987769200146,472.81667096500314,472.81667096500314,472.81667096500314,472.81667096500314,472.81667096500314,73,50,43,49,50,47,4.0,1.3435250190013903,474.1757138690009,476.1321715489976,,,,,,,153,m,19,2023-04-03_13h35.57.045,RL,2022.2.4,60.041306979322705,
1,54,0,54,0,,,,,,,,,,None,476.1321715489976,476.1321715489976,476.1321715489976,476.1321715489976,476.1321715489976,476.1321715489976,j,0.30586207099986495,476.4879371010029,476.4879371010029,476.4879371010029,476.4879371010029,476.4879371010029,476.4879371010029,476.7592654589971,476.7592654589971,477.6562619690012,477.6562619690012,477.6982213309966,477.6982213309966,477.6982213309966,477.6982213309966,477.6982213309966,477.6982213309966,477.6982213309966,477.6982213309966,477.6982213309966,477.6982213309966,477.6982213309966,477.6982213309966,477.6982213309966,477.6982213309966,477.6982213309966,480.19961181099643,480.19961181099643,480.19961181099643,480.19961181099643,480.19961181099643,66,49,40,44,44,51,3.0,1.832722309998644,482.0438051039964,483.75313485499646,,,,,,,153,m,19,2023-04-03_13h35.57.045,RL,2022.2.4,60.041306979322705,
1,55,0,55,0,,,,,,,,,,None,483.75313485499646,483.75313485499646,483.75313485499646,483.75313485499646,483.75313485499646,483.75313485499646,f,0.29874908599595074,484.1086237249983,484.1086237249983,484.1086237249983,484.1086237249983,484.1086237249983,484.1086237249983,484.3761579290003,484.3761579290003,486.2975728599995,486.2975728599995,486.3387334040017,486.3387334040017,486.3387334040017,486.3387334040017,486.3387334040017,486.3387334040017,486.3387334040017,486.3387334040017,486.3387334040017,486.3387334040017,486.3387334040017,486.3387334040017,486.3387334040017,486.3387334040017,486.3387334040017,488.8494613669973,488.8494613669973,488.8494613669973,488.8494613669973,488.8494613669973,70,43,46,46,43,64,3.0,4.624867209997319,493.494787040996,495.22491924899805,,,,,,,153,m,19,2023-04-03_13h35.57.045,RL,2022.2.4,60.041306979322705,
1,56,0,56,0,,,,,,,,,,None,495.22491924899805,495.22491924899805,495.22491924899805,495.22491924899805,495.22491924899805,495.22491924899805,f,0.3686380430008285,495.6330689910028,495.6330689910028,495.6330689910028,495.6330689910028,495.6330689910028,495.6330689910028,495.89867258299637,495.89867258299637,497.2658402859961,497.2658402859961,497.3077589530003,497.3077589530003,497.3077589530003,497.3077589530003,497.3077589530003,497.3077589530003,497.3077589530003,497.3077589530003,497.3077589530003,497.3077589530003,497.3077589530003,497.3077589530003,497.3077589530003,497.3077589530003,497.3077589530003,499.81922422500065,499.81922422500065,499.81922422500065,499.81922422500065,499.81922422500065,68,48,43,50,48,42,4.0,0.6024357140049688,500.43546445899847,502.4283141010019,,,,,,,153,m,19,2023-04-03_13h35.57.045,RL,2022.2.4,60.041306979322705,
1,57,0,57,0,,,,,,,,,,None,502.4283141010019,502.4283141010019,502.4283141010019,502.4283141010019,502.4283141010019,502.4283141010019,r,0.38446918399858987,502.86320922899904,502.86320922899904,502.86320922899904,502.86320922899904,502.86320922899904,502.86320922899904,503.1345845169999,503.1345845169999,505.0393886919992,505.0393886919992,505.0805648250025,505.0805648250025,505.0805648250025,505.0805648250025,505.0805648250025,505.0805648250025,505.0805648250025,505.0805648250025,505.0805648250025,505.0805648250025,505.0805648250025,505.0805648250025,505.0805648250025,505.0805648250025,505.0805648250025,507.5891623810021,507.5891623810021,507.5891623810021,507.5891623810021,507.5891623810021,68,44,41,50,68,51,5.0,2.521616473000904,510.1253251829985,511.6835289209994,,,,,,,153,m,19,2023-04-03_13h35.57.045,RL,2022.2.4,60.041306979322705,
1,58,0,58,0,,,,,,,,,,None,511.6835289209994,511.6835289209994,511.6835289209994,511.6835289209994,511.6835289209994,511.6835289209994,j,0.4193804519964033,512.1566537109975,512.1566537109975,512.1566537109975,512.1566537109975,512.1566537109975,512.1566537109975,512.4262363119997,512.4262363119997,513.9577319270029,513.9577319270029,513.9820924320011,513.9820924320011,513.9820924320011,513.9820924320011,513.9820924320011,513.9820924320011,513.9820924320011,513.9820924320011,513.9820924320011,513.9820924320011,513.9820924320011,513.9820924320011,513.9820924320011,513.9820924320011,513.9820924320011,516.4828690540016,516.4828690540016,516.4828690540016,516.4828690540016,516.4828690540016,65,55,44,56,56,64,4.0,2.6323615690052975,519.1260513079978,520.770466791997,,,,,,,153,m,19,2023-04-03_13h35.57.045,RL,2022.2.4,60.041306979322705,
1,59,0,59,0,,,,,,,,,,None,520.770466791997,520.770466791997,520.770466791997,520.770466791997,520.770466791997,520.770466791997,f,0.6643131270029698,521.4820110009969,521.4820110009969,521.4820110009969,521.4820110009969,521.4820110009969,521.4820110009969,521.7498948540015,521.7498948540015,523.4107364669981,523.4107364669981,523.4529880970003,523.4529880970003,523.4529880970003,523.4529880970003,523.4529880970003,523.4529880970003,523.4529880970003,523.4529880970003,523.4529880970003,523.4529880970003,523.4529880970003,523.4529880970003,523.4529880970003,523.4529880970003,523.4529880970003,525.9595681639985,525.9595681639985,525.9595681639985,525.9595681639985,525.9595681639985,57,49,35,51,49,66,3.0,0.5487203939992469,526.5212967679981,528.1234509729984,,,,,,,153,m,19,2023-04-03_13h35.57.045,RL,2022.2.4,60.041306979322705,
1,60,0,60,0,,,,,,,,,,None,528.1234509729984,528.1234509729984,528.1234509729984,528.1234509729984,528.1234509729984,528.1234509729984,r,0.3354294130040216,528.5066952999987,528.5066952999987,528.5066952999987,528.5066952999987,528.5066952999987,528.5066952999987,528.7801512950027,528.7801512950027,529.7524559480007,529.7524559480007,529.7773535770029,529.7773535770029,529.7773535770029,529.7773535770029,529.7773535770029,529.7773535770029,529.7773535770029,529.7773535770029,529.7773535770029,529.7773535770029,529.7773535770029,529.7773535770029,529.7773535770029,529.7773535770029,529.7773535770029,532.2874648049983,532.2874648049983,532.2874648049983,532.2874648049983,532.2874648049983,56,54,48,52,56,26,4.0,1.114656907004246,533.4159108940003,535.043203164998,,,,,,,153,m,19,2023-04-03_13h35.57.045,RL,2022.2.4,60.041306979322705,
1,61,0,61,0,,,,,,,,,,None,535.043203164998,535.043203164998,535.043203164998,535.043203164998,535.043203164998,535.043203164998,j,0.36325440700602485,535.4487040620006,535.4487040620006,535.4487040620006,535.4487040620006,535.4487040620006,535.4487040620006,535.7181448519987,535.7181448519987,537.0364904390008,537.0364904390008,537.0772780429979,537.0772780429979,537.0772780429979,537.0772780429979,537.0772780429979,537.0772780429979,537.0772780429979,537.0772780429979,537.0772780429979,537.0772780429979,537.0772780429979,537.0772780429979,537.0772780429979,537.0772780429979,537.0772780429979,539.5751451370015,539.5751451370015,539.5751451370015,539.5751451370015,539.5751451370015,71,57,38,48,48,54,4.0,2.1282337340016966,541.7178113749978,543.579982563002,,,,,,,153,m,19,2023-04-03_13h35.57.045,RL,2022.2.4,60.041306979322705,
1,62,0,62,0,,,,,,,,,,None,543.579982563002,543.579982563002,543.579982563002,543.579982563002,543.579982563002,543.579982563002,j,0.41320473000087077,544.0344956059998,544.0344956059998,544.0344956059998,544.0344956059998,544.0344956059998,544.0344956059998,544.3045308779983,544.3045308779983,546.1590718009975,546.1590718009975,546.1996651529989,546.1996651529989,546.1996651529989,546.1996651529989,546.1996651529989,546.1996651529989,546.1996651529989,546.1996651529989,546.1996651529989,546.1996651529989,546.1996651529989,546.1996651529989,546.1996651529989,546.1996651529989,546.1996651529989,548.6952704540017,548.6952704540017,548.6952704540017,548.6952704540017,548.6952704540017,60,55,33,43,43,55,3.0,1.017614146003325,549.7273214209999,551.3855797249998,,,,,,,153,m,19,2023-04-03_13h35.57.045,RL,2022.2.4,60.041306979322705,
1,63,0,63,0,,,,,,,,,,None,551.3855797249998,551.3855797249998,551.3855797249998,551.3855797249998,551.3855797249998,551.3855797249998,f,0.34493758300232,551.7788054049961,551.7788054049961,551.7788054049961,551.7788054049961,551.7788054049961,551.7788054049961,552.0437886229993,552.0437886229993,552.9977147210011,552.9977147210011,553.038370121998,553.038370121998,553.038370121998,553.038370121998,553.038370121998,553.038370121998,553.038370121998,553.038370121998,553.038370121998,553.038370121998,553.038370121998,553.038370121998,553.038370121998,553.038370121998,553.038370121998,555.5421451459988,555.5421451459988,555.5421451459988,555.5421451459988,555.5421451459988,71,53,46,57,53,59,4.0,1.0722352559969295,556.630715239,558.252915971003,,,,,,,153,m,19,2023-04-03_13h35.57.045,RL,2022.2.4,60.041306979322705,
1,64,0,64,0,,,,,,,,,,None,558.252915971003,558.252915971003,558.252915971003,558.252915971003,558.252915971003,558.252915971003,j,1.154599542998767,559.4499443419991,559.4499443419991,559.4499443419991,559.4499443419991,559.4499443419991,559.4499443419991,559.7202713809966,559.7202713809966,560.9884862600011,560.9884862600011,561.0097353879974,561.0097353879974,561.0097353879974,561.0097353879974,561.0097353879974,561.0097353879974,561.0097353879974,561.0097353879974,561.0097353879974,561.0097353879974,561.0097353879974,561.0097353879974,561.0097353879974,561.0097353879974,561.0097353879974,563.5106949760011,563.5106949760011,563.5106949760011,563.5106949760011,563.5106949760011,63,56,39,49,49,41,5.0,0.5915926629968453,564.1139079819986,565.8069095550018,,,,,,,153,m,19,2023-04-03_13h35.57.045,RL,2022.2.4,60.041306979322705,
1,65,0,65,0,,,,,,,,,,None,565.8069095550018,565.8069095550018,565.8069095550018,565.8069095550018,565.8069095550018,565.8069095550018,r,0.5610879229934653,566.411374932999,566.411374932999,566.411374932999,566.411374932999,566.411374932999,566.411374932999,566.6837486570003,566.6837486570003,567.9813429470014,567.9813429470014,568.0052152540011,568.0052152540011,568.0052152540011,568.0052152540011,568.0052152540011,568.0052152540011,568.0052152540011,568.0052152540011,568.0052152540011,568.0052152540011,568.0052152540011,568.0052152540011,568.0052152540011,568.0052152540011,568.0052152540011,570.5113745810013,570.5113745810013,570.5113745810013,570.5113745810013,570.5113745810013,62,53,43,47,62,44,5.0,1.7939100980001967,572.319384536997,573.9627893459983,,,,,,,153,m,19,2023-04-03_13h35.57.045,RL,2022.2.4,60.041306979322705,
1,66,0,66,0,,,,,,,,,,None,573.9627893459983,573.9627893459983,573.9627893459983,573.9627893459983,573.9627893459983,573.9627893459983,j,0.6446711729950039,574.648154014998,574.648154014998,574.648154014998,574.648154014998,574.648154014998,574.648154014998,574.919287595003,574.919287595003,576.6053089440029,576.6053089440029,576.6480184719985,576.6480184719985,576.6480184719985,576.6480184719985,576.6480184719985,576.6480184719985,576.6480184719985,576.6480184719985,576.6480184719985,576.6480184719985,576.6480184719985,576.6480184719985,576.6480184719985,576.6480184719985,576.6480184719985,579.1456891760026,579.1456891760026,579.1456891760026,579.1456891760026,579.1456891760026,69,55,39,56,56,55,4.0,2.5161988719992223,581.6742869070004,583.6660987560026,,,,,,,153,m,19,2023-04-03_13h35.57.045,RL,2022.2.4,60.041306979322705,
1,67,0,67,0,,,,,,,,,,None,583.6660987560026,583.6660987560026,583.6660987560026,583.6660987560026,583.6660987560026,583.6660987560026,i,0.304899075999856,584.022376627996,584.022376627996,584.022376627996,584.022376627996,584.022376627996,584.022376627996,584.2906210180008,584.2906210180008,585.7632261089966,585.7632261089966,585.8022930049992,585.8022930049992,585.8022930049992,585.8022930049992,585.8022930049992,585.8022930049992,585.8022930049992,585.8022930049992,585.8022930049992,585.8022930049992,585.8022930049992,585.8022930049992,585.8022930049992,585.8022930049992,585.8022930049992,588.3055592410019,588.3055592410019,588.3055592410019,588.3055592410019,588.3055592410019,67,56,48,54,48,39,4.0,1.1600387940052315,589.4782228330005,591.1866629810029,,,,,,,153,m,19,2023-04-03_13h35.57.045,RL,2022.2.4,60.041306979322705,
1,68,0,68,0,,,,,,,,,,None,591.1866629810029,591.1866629810029,591.1866629810029,591.1866629810029,591.1866629810029,591.1866629810029,f,0.35172082200006116,591.5782020229963,591.5782020229963,591.5782020229963,591.5782020229963,591.5782020229963,591.5782020229963,591.843974716001,591.843974716001,593.0388665130013,593.0388665130013,593.0776742309972,593.0776742309972,593.0776742309972,593.0776742309972,593.0776742309972,593.0776742309972,593.0776742309972,593.0776742309972,593.0776742309972,593.0776742309972,593.0776742309972,593.0776742309972,593.0776742309972,593.0776742309972,593.0776742309972,595.5725730080012,595.5725730080012,595.5725730080012,595.5725730080012,595.5725730080012,72,64,42,52,64,60,5.0,0.8623338179968414,596.451082501997,597.9737686469962,,,,,,,153,m,19,2023-04-03_13h35.57.045,RL,2022.2.4,60.041306979322705,
1,69,0,69,0,,,,,,,,,,None,597.9737686469962,597.9737686469962,597.9737686469962,597.9737686469962,597.9737686469962,597.9737686469962,j,0.32884324900078354,598.342171106,598.342171106,598.342171106,598.342171106,598.342171106,598.342171106,598.6133342300018,598.6133342300018,599.8037058170012,599.8037058170012,599.8436085040012,599.8436085040012,599.8436085040012,599.8436085040012,599.8436085040012,599.8436085040012,599.8436085040012,599.8436085040012,599.8436085040012,599.8436085040012,599.8436085040012,599.8436085040012,599.8436085040012,599.8436085040012,599.8436085040012,602.3464966780011,602.3464966780011,602.3464966780011,602.3464966780011,602.3464966780011,74,52,47,47,47,56,3.0,1.0456418489993666,603.4088018280017,605.4104881460007,,,,,,,153,m,19,2023-04-03_13h35.57.045,RL,2022.2.4,60.041306979322705,
1,70,0,70,0,,,,,,,,,,None,605.4104881460007,605.4104881460007,605.4104881460007,605.4104881460007,605.4104881460007,605.4104881460007,f,0.3108508279983653,605.771808655998,605.771808655998,605.771808655998,605.771808655998,605.771808655998,605.771808655998,606.0347119849976,606.0347119849976,606.8708243599976,606.8708243599976,606.9109359259965,606.9109359259965,606.9109359259965,606.9109359259965,606.9109359259965,606.9109359259965,606.9109359259965,606.9109359259965,606.9109359259965,606.9109359259965,606.9109359259965,606.9109359259965,606.9109359259965,606.9109359259965,606.9109359259965,609.4205072330005,609.4205072330005,609.4205072330005,609.4205072330005,609.4205072330005,61,58,43,51,58,39,5.0,0.8345954129981692,610.2717024680023,612.1969971439976,,,,,,,153,m,19,2023-04-03_13h35.57.045,RL,2022.2.4,60.041306979322705,
1,71,0,71,0,,,,,,,,,,None,612.1969971439976,612.1969971439976,612.1969971439976,612.1969971439976,612.1969971439976,612.1969971439976,i,0.4927258800016716,612.7363311629961,612.7363311629961,612.7363311629961,612.7363311629961,612.7363311629961,612.7363311629961,613.0044793350025,613.0044793350025,614.092956497996,614.092956497996,614.1169076189981,614.1169076189981,614.1169076189981,614.1169076189981,614.1169076189981,614.1169076189981,614.1169076189981,614.1169076189981,614.1169076189981,614.1169076189981,614.1169076189981,614.1169076189981,614.1169076189981,614.1169076189981,614.1169076189981,616.616041430003,616.616041430003,616.616041430003,616.616041430003,616.616041430003,72,56,43,56,43,54,3.0,1.3480575069988845,617.9818889960006,619.9348712360006,,,,,,,153,m,19,2023-04-03_13h35.57.045,RL,2022.2.4,60.041306979322705,
1,72,0,72,0,,,,,,,,,,None,619.9348712360006,619.9348712360006,619.9348712360006,619.9348712360006,619.9348712360006,619.9348712360006,r,0.3856470380051178,620.360719616001,620.360719616001,620.360719616001,620.360719616001,620.360719616001,620.360719616001,620.6260819469971,620.6260819469971,621.4639536370014,621.4639536370014,621.5022623059995,621.5022623059995,621.5022623059995,621.5022623059995,621.5022623059995,621.5022623059995,621.5022623059995,621.5022623059995,621.5022623059995,621.5022623059995,621.5022623059995,621.5022623059995,621.5022623059995,621.5022623059995,621.5022623059995,624.0134562469975,624.0134562469975,624.0134562469975,624.0134562469975,624.0134562469975,65,53,44,63,65,41,5.0,0.6026947160062264,624.6295801520027,626.5704125510019,,,,,,,153,m,19,2023-04-03_13h35.57.045,RL,2022.2.4,60.041306979322705,
1,73,0,73,0,,,,,,,,,,None,626.5704125510019,626.5704125510019,626.5704125510019,626.5704125510019,626.5704125510019,626.5704125510019,f,0.294847410004877,626.9138431640022,626.9138431640022,626.9138431640022,626.9138431640022,626.9138431640022,626.9138431640022,627.1826915479978,627.1826915479978,628.5717565570012,628.5717565570012,628.5928706869963,628.5928706869963,628.5928706869963,628.5928706869963,628.5928706869963,628.5928706869963,628.5928706869963,628.5928706869963,628.5928706869963,628.5928706869963,628.5928706869963,628.5928706869963,628.5928706869963,628.5928706869963,628.5928706869963,631.0937748829965,631.0937748829965,631.0937748829965,631.0937748829965,631.0937748829965,67,49,46,51,49,56,3.0,3.5810167219970026,634.6894522160001,636.5417838119974,,,,,,,153,m,19,2023-04-03_13h35.57.045,RL,2022.2.4,60.041306979322705,
1,74,0,74,0,,,,,,,,,,None,636.5417838119974,636.5417838119974,636.5417838119974,636.5417838119974,636.5417838119974,636.5417838119974,i,0.43789834899507696,637.0374218439974,637.0374218439974,637.0374218439974,637.0374218439974,637.0374218439974,637.0374218439974,637.3111620100026,637.3111620100026,638.6244052830007,638.6244052830007,638.6456892249989,638.6456892249989,638.6456892249989,638.6456892249989,638.6456892249989,638.6456892249989,638.6456892249989,638.6456892249989,638.6456892249989,638.6456892249989,638.6456892249989,638.6456892249989,638.6456892249989,638.6456892249989,638.6456892249989,641.1436265209995,641.1436265209995,641.1436265209995,641.1436265209995,641.1436265209995,68,51,46,52,46,52,4.0,1.7123674460017355,642.8705854860018,644.7941001049985,,,,,,,153,m,19,2023-04-03_13h35.57.045,RL,2022.2.4,60.041306979322705,
1,75,0,75,0,,,,,,,,,,q,688.8876632559986,688.8876632559986,688.8876632559986,688.8876632559986,688.8876632559986,688.8876632559986,j,0.9866952329975902,689.9210337729965,689.9210337729965,689.9210337729965,689.9210337729965,689.9210337729965,689.9210337729965,690.1897224130007,690.1897224130007,691.3432778089991,691.3432778089991,691.384766506002,691.384766506002,691.384766506002,691.384766506002,691.384766506002,691.384766506002,691.384766506002,691.384766506002,691.384766506002,691.384766506002,691.384766506002,691.384766506002,691.384766506002,691.384766506002,691.384766506002,693.8838244159997,693.8838244159997,693.8838244159997,693.8838244159997,693.8838244159997,72,62,47,52,52,41,5.0,1.7051349410030525,695.6026282890016,697.3038490600011,644.7941001049985,644.7941001049985,44.063339821004774,,,,153,m,19,2023-04-03_13h35.57.045,RL,2022.2.4,60.041306979322705,
1,76,0,76,0,,,,,,,,,,None,697.3038490600011,697.3038490600011,697.3038490600011,697.3038490600011,697.3038490600011,697.3038490600011,r,0.45040154999878723,697.795848075999,697.795848075999,697.795848075999,697.795848075999,697.795848075999,697.795848075999,698.0610867880023,698.0610867880023,698.9537565700011,698.9537565700011,698.990500449996,698.990500449996,698.990500449996,698.990500449996,698.990500449996,698.990500449996,698.990500449996,698.990500449996,698.990500449996,698.990500449996,698.990500449996,698.990500449996,698.990500449996,698.990500449996,698.990500449996,701.4961977350031,701.4961977350031,701.4961977350031,701.4961977350031,701.4961977350031,74,50,45,53,74,49,6.0,0.8177633239974966,702.3287122909969,704.3223447260025,,,,,,,153,m,19,2023-04-03_13h35.57.045,RL,2022.2.4,60.041306979322705,
1,77,0,77,0,,,,,,,,,,None,704.3223447260025,704.3223447260025,704.3223447260025,704.3223447260025,704.3223447260025,704.3223447260025,i,0.36714291599491844,704.7264194620002,704.7264194620002,704.7264194620002,704.7264194620002,704.7264194620002,704.7264194620002,704.9975334589981,704.9975334589981,705.8738056470029,705.8738056470029,705.8949764869976,705.8949764869976,705.8949764869976,705.8949764869976,705.8949764869976,705.8949764869976,705.8949764869976,705.8949764869976,705.8949764869976,705.8949764869976,705.8949764869976,705.8949764869976,705.8949764869976,705.8949764869976,705.8949764869976,708.4095464139973,708.4095464139973,708.4095464139973,708.4095464139973,708.4095464139973,77,39,41,53,41,54,3.0,0.5468473520013504,708.976659508,710.5108443580029,,,,,,,153,m,19,2023-04-03_13h35.57.045,RL,2022.2.4,60.041306979322705,
1,78,0,78,0,,,,,,,,,,None,710.5108443580029,710.5108443580029,710.5108443580029,710.5108443580029,710.5108443580029,710.5108443580029,f,0.26270191599905957,710.8191573930017,710.8191573930017,710.8191573930017,710.8191573930017,710.8191573930017,710.8191573930017,711.1010260059993,711.1010260059993,712.3346152000013,712.3346152000013,712.3586483289982,712.3586483289982,712.3586483289982,712.3586483289982,712.3586483289982,712.3586483289982,712.3586483289982,712.3586483289982,712.3586483289982,712.3586483289982,712.3586483289982,712.3586483289982,712.3586483289982,712.3586483289982,712.3586483289982,714.8711805760031,714.8711805760031,714.8711805760031,714.8711805760031,714.8711805760031,73,49,29,40,49,39,4.0,0.582566086006409,715.4669967779992,717.432815645996,,,,,,,153,m,19,2023-04-03_13h35.57.045,RL,2022.2.4,60.041306979322705,
1,79,0,79,0,,,,,,,,,,None,717.432815645996,717.432815645996,717.432815645996,717.432815645996,717.432815645996,717.432815645996,i,0.37711200099874986,717.8554057540023,717.8554057540023,717.8554057540023,717.8554057540023,717.8554057540023,717.8554057540023,718.1352764490002,718.1352764490002,719.028666035003,719.028666035003,719.0529367619965,719.0529367619965,719.0529367619965,719.0529367619965,719.0529367619965,719.0529367619965,719.0529367619965,719.0529367619965,719.0529367619965,719.0529367619965,719.0529367619965,719.0529367619965,719.0529367619965,719.0529367619965,719.0529367619965,721.5644420800018,721.5644420800018,721.5644420800018,721.5644420800018,721.5644420800018,73,44,36,49,36,45,2.0,1.7281221330049448,723.309074619996,725.318052073002,,,,,,,153,m,19,2023-04-03_13h35.57.045,RL,2022.2.4,60.041306979322705,
1,80,0,80,0,,,,,,,,,,None,725.318052073002,725.318052073002,725.318052073002,725.318052073002,725.318052073002,725.318052073002,f,0.3947891849966254,725.7621527759984,725.7621527759984,725.7621527759984,725.7621527759984,725.7621527759984,725.7621527759984,726.028969717001,726.028969717001,727.1167425759995,727.1167425759995,727.1555235490014,727.1555235490014,727.1555235490014,727.1555235490014,727.1555235490014,727.1555235490014,727.1555235490014,727.1555235490014,727.1555235490014,727.1555235490014,727.1555235490014,727.1555235490014,727.1555235490014,727.1555235490014,727.1555235490014,729.6626040240008,729.6626040240008,729.6626040240008,729.6626040240008,729.6626040240008,59,49,30,50,49,69,3.0,0.752109852997819,730.4281650089979,732.121187044002,,,,,,,153,m,19,2023-04-03_13h35.57.045,RL,2022.2.4,60.041306979322705,
1,81,0,81,0,,,,,,,,,,None,732.121187044002,732.121187044002,732.121187044002,732.121187044002,732.121187044002,732.121187044002,r,0.31428810200304724,732.4826310569988,732.4826310569988,732.4826310569988,732.4826310569988,732.4826310569988,732.4826310569988,732.7579744719988,732.7579744719988,734.1209240280004,734.1209240280004,734.1618897259978,734.1618897259978,734.1618897259978,734.1618897259978,734.1618897259978,734.1618897259978,734.1618897259978,734.1618897259978,734.1618897259978,734.1618897259978,734.1618897259978,734.1618897259978,734.1618897259978,734.1618897259978,734.1618897259978,736.6638744739976,736.6638744739976,736.6638744739976,736.6638744739976,736.6638744739976,64,48,36,52,64,76,4.0,0.4706242110041785,737.1481889260031,738.8900309050005,,,,,,,153,m,19,2023-04-03_13h35.57.045,RL,2022.2.4,60.041306979322705,
1,82,0,82,0,,,,,,,,,,None,738.8900309050005,738.8900309050005,738.8900309050005,738.8900309050005,738.8900309050005,738.8900309050005,f,0.30505067500052974,739.2478618019959,739.2478618019959,739.2478618019959,739.2478618019959,739.2478618019959,739.2478618019959,739.5139901910006,739.5139901910006,741.0788492909996,741.0788492909996,741.118720006998,741.118720006998,741.118720006998,741.118720006998,741.118720006998,741.118720006998,741.118720006998,741.118720006998,741.118720006998,741.118720006998,741.118720006998,741.118720006998,741.118720006998,741.118720006998,741.118720006998,743.6279392470024,743.6279392470024,743.6279392470024,743.6279392470024,743.6279392470024,64,48,36,50,48,22,4.0,2.3682798349982477,746.0131044959999,747.911522770999,,,,,,,153,m,19,2023-04-03_13h35.57.045,RL,2022.2.4,60.041306979322705,
1,83,0,83,0,,,,,,,,,,None,747.911522770999,747.911522770999,747.911522770999,747.911522770999,747.911522770999,747.911522770999,i,0.5913744579956983,748.5468194889982,748.5468194889982,748.5468194889982,748.5468194889982,748.5468194889982,748.5468194889982,748.8191874350014,748.8191874350014,750.4691943619982,750.4691943619982,750.5109749390031,750.5109749390031,750.5109749390031,750.5109749390031,750.5109749390031,750.5109749390031,750.5109749390031,750.5109749390031,750.5109749390031,750.5109749390031,750.5109749390031,750.5109749390031,750.5109749390031,750.5109749390031,750.5109749390031,753.0118725810025,753.0118725810025,753.0118725810025,753.0118725810025,753.0118725810025,52,54,25,49,25,73,1.0,0.5291413219965762,753.5547795680031,755.2295238520019,,,,,,,153,m,19,2023-04-03_13h35.57.045,RL,2022.2.4,60.041306979322705,
1,84,0,84,0,,,,,,,,,,None,755.2295238520019,755.2295238520019,755.2295238520019,755.2295238520019,755.2295238520019,755.2295238520019,j,0.25999218000652036,755.5351898820009,755.5351898820009,755.5351898820009,755.5351898820009,755.5351898820009,755.5351898820009,755.8061007579963,755.8061007579963,757.4640373329967,757.4640373329967,757.5017324619985,757.5017324619985,757.5017324619985,757.5017324619985,757.5017324619985,757.5017324619985,757.5017324619985,757.5017324619985,757.5017324619985,757.5017324619985,757.5017324619985,757.5017324619985,757.5017324619985,757.5017324619985,757.5017324619985,760.0171170710018,760.0171170710018,760.0171170710018,760.0171170710018,760.0171170710018,58,57,31,49,49,66,3.0,0.6336619529974996,760.6629947999973,762.2856877160011,,,,,,,153,m,19,2023-04-03_13h35.57.045,RL,2022.2.4,60.041306979322705,
1,85,0,85,0,,,,,,,,,,None,762.2856877160011,762.2856877160011,762.2856877160011,762.2856877160011,762.2856877160011,762.2856877160011,f,0.280579015998228,762.6216922579988,762.6216922579988,762.6216922579988,762.6216922579988,762.6216922579988,762.6216922579988,762.8904710740026,762.8904710740026,764.1348271219977,764.1348271219977,764.1708558509999,764.1708558509999,764.1708558509999,764.1708558509999,764.1708558509999,764.1708558509999,764.1708558509999,764.1708558509999,764.1708558509999,764.1708558509999,764.1708558509999,764.1708558509999,764.1708558509999,764.1708558509999,764.1708558509999,766.6680325920024,766.6680325920024,766.6680325920024,766.6680325920024,766.6680325920024,51,57,33,52,57,41,5.0,1.826856214000145,768.5093900979991,770.1726443309963,,,,,,,153,m,19,2023-04-03_13h35.57.045,RL,2022.2.4,60.041306979322705,
1,86,0,86,0,,,,,,,,,,None,770.1726443309963,770.1726443309963,770.1726443309963,770.1726443309963,770.1726443309963,770.1726443309963,j,0.38715717299783137,770.6119056390016,770.6119056390016,770.6119056390016,770.6119056390016,770.6119056390016,770.6119056390016,770.8782422809963,770.8782422809963,772.6505862299964,772.6505862299964,772.6896238170011,772.6896238170011,772.6896238170011,772.6896238170011,772.6896238170011,772.6896238170011,772.6896238170011,772.6896238170011,772.6896238170011,772.6896238170011,772.6896238170011,772.6896238170011,772.6896238170011,772.6896238170011,772.6896238170011,775.2014696929982,775.2014696929982,775.2014696929982,775.2014696929982,775.2014696929982,57,57,48,49,49,66,3.0,2.4163577090002946,777.6317552179971,779.6084120800006,,,,,,,153,m,19,2023-04-03_13h35.57.045,RL,2022.2.4,60.041306979322705,
1,87,0,87,0,,,,,,,,,,None,779.6084120800006,779.6084120800006,779.6084120800006,779.6084120800006,779.6084120800006,779.6084120800006,r,0.36928639899997506,780.031961243003,780.031961243003,780.031961243003,780.031961243003,780.031961243003,780.031961243003,780.3004764630023,780.3004764630023,782.172495509003,782.172495509003,782.2097045789997,782.2097045789997,782.2097045789997,782.2097045789997,782.2097045789997,782.2097045789997,782.2097045789997,782.2097045789997,782.2097045789997,782.2097045789997,782.2097045789997,782.2097045789997,782.2097045789997,782.2097045789997,782.2097045789997,784.727964204998,784.727964204998,784.727964204998,784.727964204998,784.727964204998,51,56,44,53,51,43,4.0,0.4639497960015433,785.2040201429991,787.1302404029993,,,,,,,153,m,19,2023-04-03_13h35.57.045,RL,2022.2.4,60.041306979322705,
1,88,0,88,0,,,,,,,,,,None,787.1302404029993,787.1302404029993,787.1302404029993,787.1302404029993,787.1302404029993,787.1302404029993,f,0.32670456299820216,787.5064699439972,787.5064699439972,787.5064699439972,787.5064699439972,787.5064699439972,787.5064699439972,787.7753776999962,787.7753776999962,789.1535001459997,789.1535001459997,789.1931464719964,789.1931464719964,789.1931464719964,789.1931464719964,789.1931464719964,789.1931464719964,789.1931464719964,789.1931464719964,789.1931464719964,789.1931464719964,789.1931464719964,789.1931464719964,789.1931464719964,789.1931464719964,789.1931464719964,791.701915206002,791.701915206002,791.701915206002,791.701915206002,791.701915206002,47,58,45,52,58,75,4.0,2.123085279999941,793.837234366998,795.6824533800027,,,,,,,153,m,19,2023-04-03_13h35.57.045,RL,2022.2.4,60.041306979322705,
1,89,0,89,0,,,,,,,,,,None,795.6824533800027,795.6824533800027,795.6824533800027,795.6824533800027,795.6824533800027,795.6824533800027,f,0.2776188200004981,796.005164274,796.005164274,796.005164274,796.005164274,796.005164274,796.005164274,796.2746571230018,796.2746571230018,797.9976876569999,797.9976876569999,798.0377750949992,798.0377750949992,798.0377750949992,798.0377750949992,798.0377750949992,798.0377750949992,798.0377750949992,798.0377750949992,798.0377750949992,798.0377750949992,798.0377750949992,798.0377750949992,798.0377750949992,798.0377750949992,798.0377750949992,800.5355438069964,800.5355438069964,800.5355438069964,800.5355438069964,800.5355438069964,46,51,43,51,51,19,5.0,2.529832673004421,803.0814272729986,804.5877085129978,,,,,,,153,m,19,2023-04-03_13h35.57.045,RL,2022.2.4,60.041306979322705,
1,90,0,90,0,,,,,,,,,,None,804.5877085129978,804.5877085129978,804.5877085129978,804.5877085129978,804.5877085129978,804.5877085129978,j,0.7225869020039681,805.3598311489986,805.3598311489986,805.3598311489986,805.3598311489986,805.3598311489986,805.3598311489986,805.6284540600027,805.6284540600027,806.7497360299967,806.7497360299967,806.7911308699986,806.7911308699986,806.7911308699986,806.7911308699986,806.7911308699986,806.7911308699986,806.7911308699986,806.7911308699986,806.7911308699986,806.7911308699986,806.7911308699986,806.7911308699986,806.7911308699986,806.7911308699986,806.7911308699986,809.2939232069984,809.2939232069984,809.2939232069984,809.2939232069984,809.2939232069984,51,56,48,53,53,72,4.0,1.8409292720025405,811.1465342599986,813.0922284109984,,,,,,,153,m,19,2023-04-03_13h35.57.045,RL,2022.2.4,60.041306979322705,
1,91,0,91,0,,,,,,,,,,None,813.0922284109984,813.0922284109984,813.0922284109984,813.0922284109984,813.0922284109984,813.0922284109984,f,0.3275021560039022,813.4644424910002,813.4644424910002,813.4644424910002,813.4644424910002,813.4644424910002,813.4644424910002,813.7327711879989,813.7327711879989,815.2110192909968,815.2110192909968,815.2519483069991,815.2519483069991,815.2519483069991,815.2519483069991,815.2519483069991,815.2519483069991,815.2519483069991,815.2519483069991,815.2519483069991,815.2519483069991,815.2519483069991,815.2519483069991,815.2519483069991,815.2519483069991,815.2519483069991,817.7534041539984,817.7534041539984,817.7534041539984,817.7534041539984,817.7534041539984,63,57,37,55,57,85,3.0,0.7115801359977922,818.4816502219983,820.4788091209994,,,,,,,153,m,19,2023-04-03_13h35.57.045,RL,2022.2.4,60.041306979322705,
1,92,0,92,0,,,,,,,,,,None,820.4788091209994,820.4788091209994,820.4788091209994,820.4788091209994,820.4788091209994,820.4788091209994,j,0.3069791490052012,820.8352546570022,820.8352546570022,820.8352546570022,820.8352546570022,820.8352546570022,820.8352546570022,821.1013414670015,821.1013414670015,822.499813700997,822.499813700997,822.5414067349993,822.5414067349993,822.5414067349993,822.5414067349993,822.5414067349993,822.5414067349993,822.5414067349993,822.5414067349993,822.5414067349993,822.5414067349993,822.5414067349993,822.5414067349993,822.5414067349993,822.5414067349993,822.5414067349993,825.0467145619987,825.0467145619987,825.0467145619987,825.0467145619987,825.0467145619987,49,54,41,66,66,91,3.0,2.315416354998888,827.3748977150026,829.1841176599992,,,,,,,153,m,19,2023-04-03_13h35.57.045,RL,2022.2.4,60.041306979322705,
1,93,0,93,0,,,,,,,,,,None,829.1841176599992,829.1841176599992,829.1841176599992,829.1841176599992,829.1841176599992,829.1841176599992,j,0.34443104300589766,829.572224304,829.572224304,829.572224304,829.572224304,829.572224304,829.572224304,829.8410868319988,829.8410868319988,831.5901807170012,831.5901807170012,831.6134033279959,831.6134033279959,831.6134033279959,831.6134033279959,831.6134033279959,831.6134033279959,831.6134033279959,831.6134033279959,831.6134033279959,831.6134033279959,831.6134033279959,831.6134033279959,831.6134033279959,831.6134033279959,831.6134033279959,834.1260747209963,834.1260747209963,834.1260747209963,834.1260747209963,834.1260747209963,48,57,47,54,54,95,3.0,0.5019951080030296,834.6418267749978,836.2704436979984,,,,,,,153,m,19,2023-04-03_13h35.57.045,RL,2022.2.4,60.041306979322705,
1,94,0,94,0,,,,,,,,,,None,836.2704436979984,836.2704436979984,836.2704436979984,836.2704436979984,836.2704436979984,836.2704436979984,f,0.3866928689967608,836.712349348003,836.712349348003,836.712349348003,836.712349348003,836.712349348003,836.712349348003,836.9939784779999,836.9939784779999,838.8161570930024,838.8161570930024,838.840304338999,838.840304338999,838.840304338999,838.840304338999,838.840304338999,838.840304338999,838.840304338999,838.840304338999,838.840304338999,838.840304338999,838.840304338999,838.840304338999,838.840304338999,838.840304338999,838.840304338999,841.3485681849997,841.3485681849997,841.3485681849997,841.3485681849997,841.3485681849997,45,54,35,52,54,91,2.0,0.518223069004307,841.8835814369959,843.6065787569969,,,,,,,153,m,19,2023-04-03_13h35.57.045,RL,2022.2.4,60.041306979322705,
1,95,0,95,0,,,,,,,,,,None,843.6065787569969,843.6065787569969,843.6065787569969,843.6065787569969,843.6065787569969,843.6065787569969,j,0.39408710000134306,844.0431035930014,844.0431035930014,844.0431035930014,844.0431035930014,844.0431035930014,844.0431035930014,844.3124656169966,844.3124656169966,846.067667506999,846.067667506999,846.1078236859976,846.1078236859976,846.1078236859976,846.1078236859976,846.1078236859976,846.1078236859976,846.1078236859976,846.1078236859976,846.1078236859976,846.1078236859976,846.1078236859976,846.1078236859976,846.1078236859976,846.1078236859976,846.1078236859976,848.6126803369989,848.6126803369989,848.6126803369989,848.6126803369989,848.6126803369989,49,56,44,56,56,79,4.0,1.341983413003618,849.9679171850003,851.8781243970006,,,,,,,153,m,19,2023-04-03_13h35.57.045,RL,2022.2.4,60.041306979322705,
1,96,0,96,0,,,,,,,,,,None,851.8781243970006,851.8781243970006,851.8781243970006,851.8781243970006,851.8781243970006,851.8781243970006,r,0.3195181600021897,852.2489532239997,852.2489532239997,852.2489532239997,852.2489532239997,852.2489532239997,852.2489532239997,852.5179071579987,852.5179071579987,854.0795166949974,854.0795166949974,854.1175524490027,854.1175524490027,854.1175524490027,854.1175524490027,854.1175524490027,854.1175524490027,854.1175524490027,854.1175524490027,854.1175524490027,854.1175524490027,854.1175524490027,854.1175524490027,854.1175524490027,854.1175524490027,854.1175524490027,856.6153703090022,856.6153703090022,856.6153703090022,856.6153703090022,856.6153703090022,51,52,31,51,51,83,3.0,0.7731897839985322,857.4036236550019,859.1314557380028,,,,,,,153,m,19,2023-04-03_13h35.57.045,RL,2022.2.4,60.041306979322705,
1,97,0,97,0,,,,,,,,,,None,859.1314557380028,859.1314557380028,859.1314557380028,859.1314557380028,859.1314557380028,859.1314557380028,f,0.34409394699468976,859.5164369760023,859.5164369760023,859.5164369760023,859.5164369760023,859.5164369760023,859.5164369760023,859.7873237180029,859.7873237180029,861.066094820002,861.066094820002,861.0860308940028,861.0860308940028,861.0860308940028,861.0860308940028,861.0860308940028,861.0860308940028,861.0860308940028,861.0860308940028,861.0860308940028,861.0860308940028,861.0860308940028,861.0860308940028,861.0860308940028,861.0860308940028,861.0860308940028,863.5858086000007,863.5858086000007,863.5858086000007,863.5858086000007,863.5858086000007,43,51,42,53,51,82,3.0,1.7904790799948387,865.3883629589982,866.9352609310008,,,,,,,153,m,19,2023-04-03_13h35.57.045,RL,2022.2.4,60.041306979322705,
1,98,0,98,0,,,,,,,,,,None,866.9352609310008,866.9352609310008,866.9352609310008,866.9352609310008,866.9352609310008,866.9352609310008,i,0.45160983400273835,867.4426491720005,867.4426491720005,867.4426491720005,867.4426491720005,867.4426491720005,867.4426491720005,867.7106867229959,867.7106867229959,869.370721815998,869.370721815998,869.4137783859987,869.4137783859987,869.4137783859987,869.4137783859987,869.4137783859987,869.4137783859987,869.4137783859987,869.4137783859987,869.4137783859987,869.4137783859987,869.4137783859987,869.4137783859987,869.4137783859987,869.4137783859987,869.4137783859987,871.9225973189968,871.9225973189968,871.9225973189968,871.9225973189968,871.9225973189968,35,60,34,61,34,78,2.0,0.8257334779991652,872.7620987670016,874.5055210400023,,,,,,,153,m,19,2023-04-03_13h35.57.045,RL,2022.2.4,60.041306979322705,
1,99,0,99,0,,,,,,,,,,None,874.5055210400023,874.5055210400023,874.5055210400023,874.5055210400023,874.5055210400023,874.5055210400023,f,0.28720369700022275,874.848880765996,874.848880765996,874.848880765996,874.848880765996,874.848880765996,874.848880765996,875.1135793139983,875.1135793139983,876.3480786270011,876.3480786270011,876.3894275700004,876.3894275700004,876.3894275700004,876.3894275700004,876.3894275700004,876.3894275700004,876.3894275700004,876.3894275700004,876.3894275700004,876.3894275700004,876.3894275700004,876.3894275700004,876.3894275700004,876.3894275700004,876.3894275700004,878.8853594160028,878.8853594160028,878.8853594160028,878.8853594160028,878.8853594160028,38,58,37,56,58,47,4.0,0.8373995660003857,879.7361726460003,881.725292887997,,,,,,,153,m,19,2023-04-03_13h35.57.045,RL,2022.2.4,60.041306979322705,
1,100,0,100,0,,,,,,,,,,None,881.725292887997,881.725292887997,881.725292887997,881.725292887997,881.725292887997,881.725292887997,f,0.3637037039952702,882.1367631460016,882.1367631460016,882.1367631460016,882.1367631460016,882.1367631460016,882.1367631460016,882.414833816998,882.414833816998,883.8846002990031,883.8846002990031,883.9079641950011,883.9079641950011,883.9079641950011,883.9079641950011,883.9079641950011,883.9079641950011,883.9079641950011,883.9079641950011,883.9079641950011,883.9079641950011,883.9079641950011,883.9079641950011,883.9079641950011,883.9079641950011,883.9079641950011,886.4105354060011,886.4105354060011,886.4105354060011,886.4105354060011,886.4105354060011,36,55,33,52,55,77,3.0,1.5309905269969022,887.9543226340029,889.6623752739979,,,,,,,153,m,19,2023-04-03_13h35.57.045,RL,2022.2.4,60.041306979322705,
1,101,0,101,0,,,,,,,,,,None,889.6623752739979,889.6623752739979,889.6623752739979,889.6623752739979,889.6623752739979,889.6623752739979,f,0.2727301199993235,889.9912294149981,889.9912294149981,889.9912294149981,889.9912294149981,889.9912294149981,889.9912294149981,890.2684326439994,890.2684326439994,892.2711009359991,892.2711009359991,892.2962223419963,892.2962223419963,892.2962223419963,892.2962223419963,892.2962223419963,892.2962223419963,892.2962223419963,892.2962223419963,892.2962223419963,892.2962223419963,892.2962223419963,892.2962223419963,892.2962223419963,892.2962223419963,892.2962223419963,894.7936772309986,894.7936772309986,894.7936772309986,894.7936772309986,894.7936772309986,43,55,38,51,55,35,4.0,0.9499197059994913,895.7588891799969,897.3158590199964,,,,,,,153,m,19,2023-04-03_13h35.57.045,RL,2022.2.4,60.041306979322705,
1,102,0,102,0,,,,,,,,,,None,897.3158590199964,897.3158590199964,897.3158590199964,897.3158590199964,897.3158590199964,897.3158590199964,i,0.4839166930032661,897.8447315800004,897.8447315800004,897.8447315800004,897.8447315800004,897.8447315800004,897.8447315800004,898.1174760389986,898.1174760389986,899.0282010020019,899.0282010020019,899.0504255299966,899.0504255299966,899.0504255299966,899.0504255299966,899.0504255299966,899.0504255299966,899.0504255299966,899.0504255299966,899.0504255299966,899.0504255299966,899.0504255299966,899.0504255299966,899.0504255299966,899.0504255299966,899.0504255299966,901.560113735999,901.560113735999,901.560113735999,901.560113735999,901.560113735999,37,51,32,49,32,36,3.0,1.93798826100101,903.5133801109987,905.1699885580019,,,,,,,153,m,19,2023-04-03_13h35.57.045,RL,2022.2.4,60.041306979322705,
1,103,0,103,0,,,,,,,,,,None,905.1699885580019,905.1699885580019,905.1699885580019,905.1699885580019,905.1699885580019,905.1699885580019,j,0.592115339000884,905.814675059999,905.814675059999,905.814675059999,905.814675059999,905.814675059999,905.814675059999,906.0845777869981,906.0845777869981,907.1251236649987,907.1251236649987,907.166335670001,907.166335670001,907.166335670001,907.166335670001,907.166335670001,907.166335670001,907.166335670001,907.166335670001,907.166335670001,907.166335670001,907.166335670001,907.166335670001,907.166335670001,907.166335670001,907.166335670001,909.6720513190012,909.6720513190012,909.6720513190012,909.6720513190012,909.6720513190012,36,57,36,58,58,36,5.0,0.628096259002632,910.3138997569986,912.1219740029992,,,,,,,153,m,19,2023-04-03_13h35.57.045,RL,2022.2.4,60.041306979322705,
1,104,0,104,0,,,,,,,,,,None,912.1219740029992,912.1219740029992,912.1219740029992,912.1219740029992,912.1219740029992,912.1219740029992,f,0.320168931997614,912.4815808740022,912.4815808740022,912.4815808740022,912.4815808740022,912.4815808740022,912.4815808740022,912.7481199410031,912.7481199410031,914.2627038959981,914.2627038959981,914.3050464440021,914.3050464440021,914.3050464440021,914.3050464440021,914.3050464440021,914.3050464440021,914.3050464440021,914.3050464440021,914.3050464440021,914.3050464440021,914.3050464440021,914.3050464440021,914.3050464440021,914.3050464440021,914.3050464440021,916.8173601059971,916.8173601059971,916.8173601059971,916.8173601059971,916.8173601059971,39,48,37,56,48,81,3.0,0.5034978789990419,917.3346499149993,919.1084648089964,,,,,,,153,m,19,2023-04-03_13h35.57.045,RL,2022.2.4,60.041306979322705,
1,105,0,105,0,,,,,,,,,,None,919.1084648089964,919.1084648089964,919.1084648089964,919.1084648089964,919.1084648089964,919.1084648089964,j,0.2984420409993618,919.4462319689992,919.4462319689992,919.4462319689992,919.4462319689992,919.4462319689992,919.4462319689992,919.7146636320031,919.7146636320031,921.249502093,921.249502093,921.2919439499965,921.2919439499965,921.2919439499965,921.2919439499965,921.2919439499965,921.2919439499965,921.2919439499965,921.2919439499965,921.2919439499965,921.2919439499965,921.2919439499965,921.2919439499965,921.2919439499965,921.2919439499965,921.2919439499965,923.7983355929973,923.7983355929973,923.7983355929973,923.7983355929973,923.7983355929973,40,55,34,59,59,81,4.0,2.658323524003208,926.4668893569979,928.1311556060027,,,,,,,153,m,19,2023-04-03_13h35.57.045,RL,2022.2.4,60.041306979322705,
1,106,0,106,0,,,,,,,,,,None,928.1311556060027,928.1311556060027,928.1311556060027,928.1311556060027,928.1311556060027,928.1311556060027,f,0.39991812899825163,928.5884469809971,928.5884469809971,928.5884469809971,928.5884469809971,928.5884469809971,928.5884469809971,928.8527109549977,928.8527109549977,930.5238509999981,930.5238509999981,930.5810106330027,930.5810106330027,930.5810106330027,930.5810106330027,930.5810106330027,930.5810106330027,930.5810106330027,930.5810106330027,930.5810106330027,930.5810106330027,930.5810106330027,930.5810106330027,930.5810106330027,930.5810106330027,930.5810106330027,933.091096447999,933.091096447999,933.091096447999,933.091096447999,933.091096447999,37,54,42,65,54,77,3.0,0.9030682399970829,934.0092353049986,935.5672294870019,,,,,,,153,m,19,2023-04-03_13h35.57.045,RL,2022.2.4,60.041306979322705,
1,107,0,107,0,,,,,,,,,,None,935.5672294870019,935.5672294870019,935.5672294870019,935.5672294870019,935.5672294870019,935.5672294870019,r,0.30636556299577933,935.9225402579978,935.9225402579978,935.9225402579978,935.9225402579978,935.9225402579978,935.9225402579978,936.1894613330005,936.1894613330005,937.697135921997,937.697135921997,937.735867454001,937.735867454001,937.735867454001,937.735867454001,937.735867454001,937.735867454001,937.735867454001,937.735867454001,937.735867454001,937.735867454001,937.735867454001,937.735867454001,937.735867454001,937.735867454001,937.735867454001,940.2387594780012,940.2387594780012,940.2387594780012,940.2387594780012,940.2387594780012,33,57,43,57,33,82,1.0,1.2261906769999769,941.4792900960019,943.137251401,,,,,,,153,m,19,2023-04-03_13h35.57.045,RL,2022.2.4,60.041306979322705,
1,108,0,108,0,,,,,,,,,,None,943.137251401,943.137251401,943.137251401,943.137251401,943.137251401,943.137251401,f,0.6272575029943255,943.8165125699961,943.8165125699961,943.8165125699961,943.8165125699961,943.8165125699961,943.8165125699961,944.0932927339963,944.0932927339963,944.9995747299981,944.9995747299981,945.0220824509961,945.0220824509961,945.0220824509961,945.0220824509961,945.0220824509961,945.0220824509961,945.0220824509961,945.0220824509961,945.0220824509961,945.0220824509961,945.0220824509961,945.0220824509961,945.0220824509961,945.0220824509961,945.0220824509961,947.5312261799991,947.5312261799991,947.5312261799991,947.5312261799991,947.5312261799991,35,59,41,47,59,86,4.0,2.236152570003469,949.781609863996,951.6083097049996,,,,,,,153,m,19,2023-04-03_13h35.57.045,RL,2022.2.4,60.041306979322705,
1,109,0,109,0,,,,,,,,,,None,951.6083097049996,951.6083097049996,951.6083097049996,951.6083097049996,951.6083097049996,951.6083097049996,j,0.347319972999685,952.0005711769991,952.0005711769991,952.0005711769991,952.0005711769991,952.0005711769991,952.0005711769991,952.2682974459967,952.2682974459967,953.5354338679972,953.5354338679972,953.5756730130015,953.5756730130015,953.5756730130015,953.5756730130015,953.5756730130015,953.5756730130015,953.5756730130015,953.5756730130015,953.5756730130015,953.5756730130015,953.5756730130015,953.5756730130015,953.5756730130015,953.5756730130015,953.5756730130015,956.0858044600027,956.0858044600027,956.0858044600027,956.0858044600027,956.0858044600027,36,65,37,56,56,83,4.0,1.9179344950025552,958.0174803749978,959.7943381470031,,,,,,,153,m,19,2023-04-03_13h35.57.045,RL,2022.2.4,60.041306979322705,
1,110,0,110,0,,,,,,,,,,None,959.7943381470031,959.7943381470031,959.7943381470031,959.7943381470031,959.7943381470031,959.7943381470031,f,0.3318213509992347,960.167593334998,960.167593334998,960.167593334998,960.167593334998,960.167593334998,960.167593334998,960.4364411759962,960.4364411759962,962.041935856003,962.041935856003,962.0819203900028,962.0819203900028,962.0819203900028,962.0819203900028,962.0819203900028,962.0819203900028,962.0819203900028,962.0819203900028,962.0819203900028,962.0819203900028,962.0819203900028,962.0819203900028,962.0819203900028,962.0819203900028,962.0819203900028,964.5914237819961,964.5914237819961,964.5914237819961,964.5914237819961,964.5914237819961,53,64,35,55,64,85,5.0,0.8235687459964538,965.4432064919965,967.365392204003,,,,,,,153,m,19,2023-04-03_13h35.57.045,RL,2022.2.4,60.041306979322705,
1,111,0,111,0,,,,,,,,,,None,967.365392204003,967.365392204003,967.365392204003,967.365392204003,967.365392204003,967.365392204003,j,0.3177566719969036,967.7265052840012,967.7265052840012,967.7265052840012,967.7265052840012,967.7265052840012,967.7265052840012,967.999771695002,967.999771695002,969.0710567979986,969.0710567979986,969.0953954950019,969.0953954950019,969.0953954950019,969.0953954950019,969.0953954950019,969.0953954950019,969.0953954950019,969.0953954950019,969.0953954950019,969.0953954950019,969.0953954950019,969.0953954950019,969.0953954950019,969.0953954950019,969.0953954950019,971.6040595230006,971.6040595230006,971.6040595230006,971.6040595230006,971.6040595230006,47,58,41,44,44,84,3.0,1.0264493520007818,972.6438591120022,974.3365748669967,,,,,,,153,m,19,2023-04-03_13h35.57.045,RL,2022.2.4,60.041306979322705,
1,112,0,112,0,,,,,,,,,,None,974.3365748669967,974.3365748669967,974.3365748669967,974.3365748669967,974.3365748669967,974.3365748669967,r,0.31756220600072993,974.7098995060005,974.7098995060005,974.7098995060005,974.7098995060005,974.7098995060005,974.7098995060005,974.9774915590024,974.9774915590024,976.4618143350017,976.4618143350017,976.5020002109959,976.5020002109959,976.5020002109959,976.5020002109959,976.5020002109959,976.5020002109959,976.5020002109959,976.5020002109959,976.5020002109959,976.5020002109959,976.5020002109959,976.5020002109959,976.5020002109959,976.5020002109959,976.5020002109959,979.0022151070007,979.0022151070007,979.0022151070007,979.0022151070007,979.0022151070007,51,63,40,60,51,81,3.0,3.63354908600013,982.6489963869972,984.190799693999,,,,,,,153,m,19,2023-04-03_13h35.57.045,RL,2022.2.4,60.041306979322705,
1,113,0,113,0,,,,,,,,,,None,984.190799693999,984.190799693999,984.190799693999,984.190799693999,984.190799693999,984.190799693999,f,0.32250579899846343,984.5696629140002,984.5696629140002,984.5696629140002,984.5696629140002,984.5696629140002,984.5696629140002,984.8466066019973,984.8466066019973,985.7866905580013,985.7866905580013,985.8259895169977,985.8259895169977,985.8259895169977,985.8259895169977,985.8259895169977,985.8259895169977,985.8259895169977,985.8259895169977,985.8259895169977,985.8259895169977,985.8259895169977,985.8259895169977,985.8259895169977,985.8259895169977,985.8259895169977,988.3345703149971,988.3345703149971,988.3345703149971,988.3345703149971,988.3345703149971,50,65,32,61,65,90,4.0,0.5351804079982685,988.882456168998,990.4605975500017,,,,,,,153,m,19,2023-04-03_13h35.57.045,RL,2022.2.4,60.041306979322705,
1,114,0,114,0,,,,,,,,,,None,990.4605975500017,990.4605975500017,990.4605975500017,990.4605975500017,990.4605975500017,990.4605975500017,i,0.518128768002498,991.0153469770012,991.0153469770012,991.0153469770012,991.0153469770012,991.0153469770012,991.0153469770012,991.2864463049991,991.2864463049991,992.9381965810026,992.9381965810026,992.9627099490026,992.9627099490026,992.9627099490026,992.9627099490026,992.9627099490026,992.9627099490026,992.9627099490026,992.9627099490026,992.9627099490026,992.9627099490026,992.9627099490026,992.9627099490026,992.9627099490026,992.9627099490026,992.9627099490026,995.476536852002,995.476536852002,995.476536852002,995.476536852002,995.476536852002,46,60,42,60,42,81,3.0,1.4337984320009127,996.9228813549998,998.8640442710021,,,,,,,153,m,19,2023-04-03_13h35.57.045,RL,2022.2.4,60.041306979322705,
