bandit,trials.thisRepN,trials.thisTrialN,trials.thisN,trials.thisIndex,instru_img1.started,instru_resp.started,instru_resp.keys,instru_resp.rt,instru_img2.started,instru_resp2.started,instru_resp2.keys,instru_resp2.rt,fixbefore_2.started,rest_response.keys,red.started,green.started,yellow.started,blue.started,choose_bandit.started,Fixation.started,choose_bandit.keys,choose_bandit.rt,black.started,red_2.started,green_2.started,yellow_2.started,blue_2.started,fixation_2.started,docs.started,image_2.started,docs.stopped,image_2.stopped,black.stopped,red_2.stopped,green_2.stopped,yellow_2.stopped,blue_2.stopped,fixation_2.stopped,black_com.started,reward_sub.started,palyerb.started,reward__sub.started,compare.started,red_compare.started,green_com.started,yellow_com.started,blue_com.started,image_3.started,slider.started,text.started,image_4.started,image_5.started,rewardyellow,rewardred,rewardblue,rewardgreen,subchoose,playerb,slider.response,slider.rt,intertrialfix.started,intertrialfix.stopped,rest_image.started,rest_response.started,rest_response.rt,bigx.started,bigx.stopped,image.started,key_resp.started,key_resp.keys,participant,Gender,Age,date,expName,psychopyVersion,frameRate,
,,,,,26.374415141006466,26.374415141006466,space,2.4817128580034478,,,,,,,,,,,,,,,,,,,,,,,,,,,,,,,,,,,,,,,,,,,,,,,,,,,,,,,,,,,,,,,154,f,18,2023-04-05_11h10.32.460,RL,2022.2.4,60.00185033948497,
,,,,,,,,,28.903187935007736,28.903187935007736,y,52.86638223999762,,,,,,,,,,,,,,,,,,,,,,,,,,,,,,,,,,,,,,,,,,,,,,,,,,,,,,,,,,,154,f,18,2023-04-05_11h10.32.460,RL,2022.2.4,60.00185033948497,
1,0,0,0,0,,,,,,,,,81.78864478399919,None,82.81639470999653,82.81639470999653,82.81639470999653,82.81639470999653,82.81639470999653,82.81639470999653,f,0.8991186029888922,83.79817532500601,83.79817532500601,83.79817532500601,83.79817532500601,83.79817532500601,83.79817532500601,84.0555632290052,84.0555632290052,85.66436925799644,85.66436925799644,85.72309111099457,85.72309111099457,85.72309111099457,85.72309111099457,85.72309111099457,85.72309111099457,85.72309111099457,85.72309111099457,85.72309111099457,85.72309111099457,85.72309111099457,85.72309111099457,85.72309111099457,85.72309111099457,85.72309111099457,88.23858193200431,88.23858193200431,88.23858193200431,88.23858193200431,88.23858193200431,39,62,64,31,62,55,6.0,2.436043117006193,90.68914891300665,92.30879910799558,,,,,,,,,154,f,18,2023-04-05_11h10.32.460,RL,2022.2.4,60.00185033948497,
1,1,0,1,0,,,,,,,,,,None,92.30879910799558,92.30879910799558,92.30879910799558,92.30879910799558,92.30879910799558,92.30879910799558,i,0.6564144159929128,93.01321752200602,93.01321752200602,93.01321752200602,93.01321752200602,93.01321752200602,93.01321752200602,93.28149719600333,93.28149719600333,95.0863678589958,95.0863678589958,95.12967369699618,95.12967369699618,95.12967369699618,95.12967369699618,95.12967369699618,95.12967369699618,95.12967369699618,95.12967369699618,95.12967369699618,95.12967369699618,95.12967369699618,95.12967369699618,95.12967369699618,95.12967369699618,95.12967369699618,97.63832933500817,97.63832933500817,97.63832933500817,97.63832933500817,97.63832933500817,43,57,70,31,70,48,6.0,0.7842571509972913,98.43357189600647,100.24470086500514,,,,,,,,,154,f,18,2023-04-05_11h10.32.460,RL,2022.2.4,60.00185033948497,
1,2,0,2,0,,,,,,,,,,None,100.24470086500514,100.24470086500514,100.24470086500514,100.24470086500514,100.24470086500514,100.24470086500514,r,0.5676442319963826,100.85477116100083,100.85477116100083,100.85477116100083,100.85477116100083,100.85477116100083,100.85477116100083,101.11912364100863,101.11912364100863,102.6940031950071,102.6940031950071,102.7379568930046,102.7379568930046,102.7379568930046,102.7379568930046,102.7379568930046,102.7379568930046,102.7379568930046,102.7379568930046,102.7379568930046,102.7379568930046,102.7379568930046,102.7379568930046,102.7379568930046,102.7379568930046,102.7379568930046,105.23428176200832,105.23428176200832,105.23428176200832,105.23428176200832,105.23428176200832,45,48,79,37,45,50,5.0,1.0455440320074558,106.29599213099573,108.06507471700024,,,,,,,,,154,f,18,2023-04-05_11h10.32.460,RL,2022.2.4,60.00185033948497,
1,3,0,3,0,,,,,,,,,,None,108.06507471700024,108.06507471700024,108.06507471700024,108.06507471700024,108.06507471700024,108.06507471700024,j,0.6540243799972814,108.78319359899615,108.78319359899615,108.78319359899615,108.78319359899615,108.78319359899615,108.78319359899615,109.05729985500511,109.05729985500511,110.88228381000226,110.88228381000226,110.91257178499654,110.91257178499654,110.91257178499654,110.91257178499654,110.91257178499654,110.91257178499654,110.91257178499654,110.91257178499654,110.91257178499654,110.91257178499654,110.91257178499654,110.91257178499654,110.91257178499654,110.91257178499654,110.91257178499654,113.42060396699526,113.42060396699526,113.42060396699526,113.42060396699526,113.42060396699526,42,45,70,29,29,55,3.0,1.2512865189928561,114.67752996500349,116.28710349199537,,,,,,,,,154,f,18,2023-04-05_11h10.32.460,RL,2022.2.4,60.00185033948497,
1,4,0,4,0,,,,,,,,,,None,116.28710349199537,116.28710349199537,116.28710349199537,116.28710349199537,116.28710349199537,116.28710349199537,f,0.6046590710029704,116.94810582700302,116.94810582700302,116.94810582700302,116.94810582700302,116.94810582700302,116.94810582700302,117.22678766099853,117.22678766099853,118.28838513599476,118.28838513599476,118.31364986799599,118.31364986799599,118.31364986799599,118.31364986799599,118.31364986799599,118.31364986799599,118.31364986799599,118.31364986799599,118.31364986799599,118.31364986799599,118.31364986799599,118.31364986799599,118.31364986799599,118.31364986799599,118.31364986799599,120.82273167000676,120.82273167000676,120.82273167000676,120.82273167000676,120.82273167000676,37,46,71,36,46,60,3.0,0.6097329220065149,121.44635212900175,123.20663993099879,,,,,,,,,154,f,18,2023-04-05_11h10.32.460,RL,2022.2.4,60.00185033948497,
1,5,0,5,0,,,,,,,,,,None,123.20663993099879,123.20663993099879,123.20663993099879,123.20663993099879,123.20663993099879,123.20663993099879,i,0.8495206519874046,124.0958002700063,124.0958002700063,124.0958002700063,124.0958002700063,124.0958002700063,124.0958002700063,124.36387802299578,124.36387802299578,125.6784919769998,125.6784919769998,125.72320044999651,125.72320044999651,125.72320044999651,125.72320044999651,125.72320044999651,125.72320044999651,125.72320044999651,125.72320044999651,125.72320044999651,125.72320044999651,125.72320044999651,125.72320044999651,125.72320044999651,125.72320044999651,125.72320044999651,128.22047732400824,128.22047732400824,128.22047732400824,128.22047732400824,128.22047732400824,38,32,73,31,73,41,6.0,1.0320639359997585,129.26594310700602,131.0097729679983,,,,,,,,,154,f,18,2023-04-05_11h10.32.460,RL,2022.2.4,60.00185033948497,
1,6,0,6,0,,,,,,,,,,None,131.0097729679983,131.0097729679983,131.0097729679983,131.0097729679983,131.0097729679983,131.0097729679983,f,0.4124200770020252,131.4560324579943,131.4560324579943,131.4560324579943,131.4560324579943,131.4560324579943,131.4560324579943,131.73265974900278,131.73265974900278,132.9693960059958,132.9693960059958,132.99059692800802,132.99059692800802,132.99059692800802,132.99059692800802,132.99059692800802,132.99059692800802,132.99059692800802,132.99059692800802,132.99059692800802,132.99059692800802,132.99059692800802,132.99059692800802,132.99059692800802,132.99059692800802,132.99059692800802,135.49561049800832,135.49561049800832,135.49561049800832,135.49561049800832,135.49561049800832,39,41,73,42,41,50,3.0,1.7456531500065466,137.25094667599478,139.1977397360024,,,,,,,,,154,f,18,2023-04-05_11h10.32.460,RL,2022.2.4,60.00185033948497,
1,7,0,7,0,,,,,,,,,,None,139.1977397360024,139.1977397360024,139.1977397360024,139.1977397360024,139.1977397360024,139.1977397360024,r,0.47577935199660715,139.7278202890011,139.7278202890011,139.7278202890011,139.7278202890011,139.7278202890011,139.7278202890011,140.0031622230017,140.0031622230017,141.79149426100776,141.79149426100776,141.82993592300045,141.82993592300045,141.82993592300045,141.82993592300045,141.82993592300045,141.82993592300045,141.82993592300045,141.82993592300045,141.82993592300045,141.82993592300045,141.82993592300045,141.82993592300045,141.82993592300045,141.82993592300045,141.82993592300045,144.34091839000757,144.34091839000757,144.34091839000757,144.34091839000757,144.34091839000757,34,43,77,39,34,51,3.0,1.8901703909941716,146.24389074700593,148.1852464190015,,,,,,,,,154,f,18,2023-04-05_11h10.32.460,RL,2022.2.4,60.00185033948497,
1,8,0,8,0,,,,,,,,,,None,148.1852464190015,148.1852464190015,148.1852464190015,148.1852464190015,148.1852464190015,148.1852464190015,i,0.42255714000202715,148.65765343299427,148.65765343299427,148.65765343299427,148.65765343299427,148.65765343299427,148.65765343299427,148.94021244399482,148.94021244399482,150.15693001600448,150.15693001600448,150.18175946400152,150.18175946400152,150.18175946400152,150.18175946400152,150.18175946400152,150.18175946400152,150.18175946400152,150.18175946400152,150.18175946400152,150.18175946400152,150.18175946400152,150.18175946400152,150.18175946400152,150.18175946400152,150.18175946400152,152.6946469530085,152.6946469530085,152.6946469530085,152.6946469530085,152.6946469530085,40,48,74,39,74,28,6.0,1.2047171789890854,153.90982016599446,155.80584108200856,,,,,,,,,154,f,18,2023-04-05_11h10.32.460,RL,2022.2.4,60.00185033948497,
1,9,0,9,0,,,,,,,,,,None,155.80584108200856,155.80584108200856,155.80584108200856,155.80584108200856,155.80584108200856,155.80584108200856,f,0.5724582260008901,156.43351981899468,156.43351981899468,156.43351981899468,156.43351981899468,156.43351981899468,156.43351981899468,156.7125430120068,156.7125430120068,158.53348740300862,158.53348740300862,158.5551635860029,158.5551635860029,158.5551635860029,158.5551635860029,158.5551635860029,158.5551635860029,158.5551635860029,158.5551635860029,158.5551635860029,158.5551635860029,158.5551635860029,158.5551635860029,158.5551635860029,158.5551635860029,158.5551635860029,161.05384069700085,161.05384069700085,161.05384069700085,161.05384069700085,161.05384069700085,38,45,84,40,45,55,3.0,1.3121549140050774,162.378372510997,164.32546836699476,,,,,,,,,154,f,18,2023-04-05_11h10.32.460,RL,2022.2.4,60.00185033948497,
1,10,0,10,0,,,,,,,,,,None,164.32546836699476,164.32546836699476,164.32546836699476,164.32546836699476,164.32546836699476,164.32546836699476,j,0.4087824699963676,164.7851451690076,164.7851451690076,164.7851451690076,164.7851451690076,164.7851451690076,164.7851451690076,165.06636722599796,165.06636722599796,166.81614723600796,166.81614723600796,166.83976525900653,166.83976525900653,166.83976525900653,166.83976525900653,166.83976525900653,166.83976525900653,166.83976525900653,166.83976525900653,166.83976525900653,166.83976525900653,166.83976525900653,166.83976525900653,166.83976525900653,166.83976525900653,166.83976525900653,169.33842714900675,169.33842714900675,169.33842714900675,169.33842714900675,169.33842714900675,34,47,81,39,39,48,3.0,0.5979973579960642,169.94861031899927,171.79681957000867,,,,,,,,,154,f,18,2023-04-05_11h10.32.460,RL,2022.2.4,60.00185033948497,
1,11,0,11,0,,,,,,,,,,None,171.79681957000867,171.79681957000867,171.79681957000867,171.79681957000867,171.79681957000867,171.79681957000867,r,0.8544251729908865,172.69833663500322,172.69833663500322,172.69833663500322,172.69833663500322,172.69833663500322,172.69833663500322,172.9690494210081,172.9690494210081,174.37300104499445,174.37300104499445,174.41582230200584,174.41582230200584,174.41582230200584,174.41582230200584,174.41582230200584,174.41582230200584,174.41582230200584,174.41582230200584,174.41582230200584,174.41582230200584,174.41582230200584,174.41582230200584,174.41582230200584,174.41582230200584,174.41582230200584,176.92394456799957,176.92394456799957,176.92394456799957,176.92394456799957,176.92394456799957,37,45,82,46,37,54,3.0,2.297048893000465,179.23473480100802,181.1677822089987,,,,,,,,,154,f,18,2023-04-05_11h10.32.460,RL,2022.2.4,60.00185033948497,
1,12,0,12,0,,,,,,,,,,None,181.1677822089987,181.1677822089987,181.1677822089987,181.1677822089987,181.1677822089987,181.1677822089987,f,0.6500376109906938,181.8690516649949,181.8690516649949,181.8690516649949,181.8690516649949,181.8690516649949,181.8690516649949,182.14139293300104,182.14139293300104,183.05004410000402,183.05004410000402,183.08795317300246,183.08795317300246,183.08795317300246,183.08795317300246,183.08795317300246,183.08795317300246,183.08795317300246,183.08795317300246,183.08795317300246,183.08795317300246,183.08795317300246,183.08795317300246,183.08795317300246,183.08795317300246,183.08795317300246,185.5960939630022,185.5960939630022,185.5960939630022,185.5960939630022,185.5960939630022,29,33,68,33,33,47,2.0,1.0317053560138447,186.6421417590027,188.50472038899898,,,,,,,,,154,f,18,2023-04-05_11h10.32.460,RL,2022.2.4,60.00185033948497,
1,13,0,13,0,,,,,,,,,,None,188.50472038899898,188.50472038899898,188.50472038899898,188.50472038899898,188.50472038899898,188.50472038899898,j,0.5110541480098618,189.06387286700192,189.06387286700192,189.06387286700192,189.06387286700192,189.06387286700192,189.06387286700192,189.34441995499947,189.34441995499947,190.89587161599775,190.89587161599775,190.93604375200812,190.93604375200812,190.93604375200812,190.93604375200812,190.93604375200812,190.93604375200812,190.93604375200812,190.93604375200812,190.93604375200812,190.93604375200812,190.93604375200812,190.93604375200812,190.93604375200812,190.93604375200812,190.93604375200812,193.43906391700148,193.43906391700148,193.43906391700148,193.43906391700148,193.43906391700148,29,48,68,33,33,52,2.0,0.6098752629914088,194.0622827949992,195.87439569400158,,,,,,,,,154,f,18,2023-04-05_11h10.32.460,RL,2022.2.4,60.00185033948497,
1,14,0,14,0,,,,,,,,,,None,195.87439569400158,195.87439569400158,195.87439569400158,195.87439569400158,195.87439569400158,195.87439569400158,i,0.9732515889918432,196.90056874000584,196.90056874000584,196.90056874000584,196.90056874000584,196.90056874000584,196.90056874000584,197.1650699879974,197.1650699879974,198.19968298100866,198.19968298100866,198.2377792759944,198.2377792759944,198.2377792759944,198.2377792759944,198.2377792759944,198.2377792759944,198.2377792759944,198.2377792759944,198.2377792759944,198.2377792759944,198.2377792759944,198.2377792759944,198.2377792759944,198.2377792759944,198.2377792759944,200.75290535199747,200.75290535199747,200.75290535199747,200.75290535199747,200.75290535199747,32,43,71,37,71,53,5.0,1.347172384004807,202.11373156300397,203.66301752999425,,,,,,,,,154,f,18,2023-04-05_11h10.32.460,RL,2022.2.4,60.00185033948497,
1,15,0,15,0,,,,,,,,,,None,203.66301752999425,203.66301752999425,203.66301752999425,203.66301752999425,203.66301752999425,203.66301752999425,i,0.5207439150108257,204.23133285999938,204.23133285999938,204.23133285999938,204.23133285999938,204.23133285999938,204.23133285999938,204.49999527999898,204.49999527999898,205.7045456850028,205.7045456850028,205.74463081700378,205.74463081700378,205.74463081700378,205.74463081700378,205.74463081700378,205.74463081700378,205.74463081700378,205.74463081700378,205.74463081700378,205.74463081700378,205.74463081700378,205.74463081700378,205.74463081700378,205.74463081700378,205.74463081700378,208.2388764329953,208.2388764329953,208.2388764329953,208.2388764329953,208.2388764329953,39,49,65,34,65,49,5.0,0.5465809800080024,208.80055143299978,210.44931379699847,,,,,,,,,154,f,18,2023-04-05_11h10.32.460,RL,2022.2.4,60.00185033948497,
1,16,0,16,0,,,,,,,,,,None,210.44931379699847,210.44931379699847,210.44931379699847,210.44931379699847,210.44931379699847,210.44931379699847,r,0.44849052200152073,210.93452242799685,210.93452242799685,210.93452242799685,210.93452242799685,210.93452242799685,210.93452242799685,211.20406388600531,211.20406388600531,212.44012333599676,212.44012333599676,212.47821399799432,212.47821399799432,212.47821399799432,212.47821399799432,212.47821399799432,212.47821399799432,212.47821399799432,212.47821399799432,212.47821399799432,212.47821399799432,212.47821399799432,212.47821399799432,212.47821399799432,212.47821399799432,212.47821399799432,214.9873124930018,214.9873124930018,214.9873124930018,214.9873124930018,214.9873124930018,39,46,64,37,39,48,4.0,1.4729196819971548,216.47348297199642,218.48586225199688,,,,,,,,,154,f,18,2023-04-05_11h10.32.460,RL,2022.2.4,60.00185033948497,
1,17,0,17,0,,,,,,,,,,None,218.48586225199688,218.48586225199688,218.48586225199688,218.48586225199688,218.48586225199688,218.48586225199688,j,0.4305965679959627,218.96011704800185,218.96011704800185,218.96011704800185,218.96011704800185,218.96011704800185,218.96011704800185,219.24177919300564,219.24177919300564,221.0963428249961,221.0963428249961,221.12026290100766,221.12026290100766,221.12026290100766,221.12026290100766,221.12026290100766,221.12026290100766,221.12026290100766,221.12026290100766,221.12026290100766,221.12026290100766,221.12026290100766,221.12026290100766,221.12026290100766,221.12026290100766,221.12026290100766,223.63150960599887,223.63150960599887,223.63150960599887,223.63150960599887,223.63150960599887,31,55,73,34,34,46,3.0,0.8145239279983798,224.45943630600232,226.1557633610064,,,,,,,,,154,f,18,2023-04-05_11h10.32.460,RL,2022.2.4,60.00185033948497,
1,18,0,18,0,,,,,,,,,,None,226.1557633610064,226.1557633610064,226.1557633610064,226.1557633610064,226.1557633610064,226.1557633610064,i,0.45292163999693,226.64296915900195,226.64296915900195,226.64296915900195,226.64296915900195,226.64296915900195,226.64296915900195,226.91191825699934,226.91191825699934,228.66710352800146,228.66710352800146,228.7076331260032,228.7076331260032,228.7076331260032,228.7076331260032,228.7076331260032,228.7076331260032,228.7076331260032,228.7076331260032,228.7076331260032,228.7076331260032,228.7076331260032,228.7076331260032,228.7076331260032,228.7076331260032,228.7076331260032,231.20608407100372,231.20608407100372,231.20608407100372,231.20608407100372,231.20608407100372,42,56,82,29,82,48,6.0,1.12899207699229,232.3452108950005,234.29228061900358,,,,,,,,,154,f,18,2023-04-05_11h10.32.460,RL,2022.2.4,60.00185033948497,
1,19,0,19,0,,,,,,,,,,None,234.29228061900358,234.29228061900358,234.29228061900358,234.29228061900358,234.29228061900358,234.29228061900358,i,0.34123683799407445,234.6809178130061,234.6809178130061,234.6809178130061,234.6809178130061,234.6809178130061,234.6809178130061,234.94970021500194,234.94970021500194,236.73075500299456,236.73075500299456,236.754854245999,236.754854245999,236.754854245999,236.754854245999,236.754854245999,236.754854245999,236.754854245999,236.754854245999,236.754854245999,236.754854245999,236.754854245999,236.754854245999,236.754854245999,236.754854245999,236.754854245999,239.25609617300506,239.25609617300506,239.25609617300506,239.25609617300506,239.25609617300506,41,58,75,37,75,52,7.0,0.9969512230018154,240.26759471000696,242.22960171100567,,,,,,,,,154,f,18,2023-04-05_11h10.32.460,RL,2022.2.4,60.00185033948497,
1,20,0,20,0,,,,,,,,,,None,242.22960171100567,242.22960171100567,242.22960171100567,242.22960171100567,242.22960171100567,242.22960171100567,f,0.5515748019970488,242.83021393200033,242.83021393200033,242.83021393200033,242.83021393200033,242.83021393200033,242.83021393200033,243.10289532900788,243.10289532900788,243.90653891999682,243.90653891999682,243.9462918890058,243.9462918890058,243.9462918890058,243.9462918890058,243.9462918890058,243.9462918890058,243.9462918890058,243.9462918890058,243.9462918890058,243.9462918890058,243.9462918890058,243.9462918890058,243.9462918890058,243.9462918890058,243.9462918890058,246.45332290600345,246.45332290600345,246.45332290600345,246.45332290600345,246.45332290600345,38,61,89,26,61,63,5.0,0.8322267389885383,247.29832192600588,248.8647805799992,,,,,,,,,154,f,18,2023-04-05_11h10.32.460,RL,2022.2.4,60.00185033948497,
1,21,0,21,0,,,,,,,,,,None,248.8647805799992,248.8647805799992,248.8647805799992,248.8647805799992,248.8647805799992,248.8647805799992,r,0.41549454000778496,249.32082430999435,249.32082430999435,249.32082430999435,249.32082430999435,249.32082430999435,249.32082430999435,249.5887897710054,249.5887897710054,251.25335100799566,251.25335100799566,251.29458161200455,251.29458161200455,251.29458161200455,251.29458161200455,251.29458161200455,251.29458161200455,251.29458161200455,251.29458161200455,251.29458161200455,251.29458161200455,251.29458161200455,251.29458161200455,251.29458161200455,251.29458161200455,251.29458161200455,253.80332008299592,253.80332008299592,253.80332008299592,253.80332008299592,253.80332008299592,43,59,77,23,43,65,4.0,0.9227970000065397,254.73951215199486,256.7366105490073,,,,,,,,,154,f,18,2023-04-05_11h10.32.460,RL,2022.2.4,60.00185033948497,
1,22,0,22,0,,,,,,,,,,None,256.7366105490073,256.7366105490073,256.7366105490073,256.7366105490073,256.7366105490073,256.7366105490073,j,0.3250969570071902,257.11077532099443,257.11077532099443,257.11077532099443,257.11077532099443,257.11077532099443,257.11077532099443,257.3919285820011,257.3919285820011,258.24972818199603,258.24972818199603,258.27030725000077,258.27030725000077,258.27030725000077,258.27030725000077,258.27030725000077,258.27030725000077,258.27030725000077,258.27030725000077,258.27030725000077,258.27030725000077,258.27030725000077,258.27030725000077,258.27030725000077,258.27030725000077,258.27030725000077,260.787417790998,260.787417790998,260.787417790998,260.787417790998,260.787417790998,35,62,75,27,27,40,3.0,0.6409605340013513,261.44186677200196,263.43460666200554,,,,,,,,,154,f,18,2023-04-05_11h10.32.460,RL,2022.2.4,60.00185033948497,
1,23,0,23,0,,,,,,,,,,None,263.43460666200554,263.43460666200554,263.43460666200554,263.43460666200554,263.43460666200554,263.43460666200554,i,0.33732176400371827,263.8253071000072,263.8253071000072,263.8253071000072,263.8253071000072,263.8253071000072,263.8253071000072,264.0957994710043,264.0957994710043,264.8989838480047,264.8989838480047,264.9394265180017,264.9394265180017,264.9394265180017,264.9394265180017,264.9394265180017,264.9394265180017,264.9394265180017,264.9394265180017,264.9394265180017,264.9394265180017,264.9394265180017,264.9394265180017,264.9394265180017,264.9394265180017,264.9394265180017,267.4405040980055,267.4405040980055,267.4405040980055,267.4405040980055,267.4405040980055,38,62,86,22,86,52,7.0,1.394042924992391,268.84572201099945,270.8433058899973,,,,,,,,,154,f,18,2023-04-05_11h10.32.460,RL,2022.2.4,60.00185033948497,
1,24,0,24,0,,,,,,,,,,None,270.8433058899973,270.8433058899973,270.8433058899973,270.8433058899973,270.8433058899973,270.8433058899973,f,0.3401275399955921,271.23469350099913,271.23469350099913,271.23469350099913,271.23469350099913,271.23469350099913,271.23469350099913,271.51632596799755,271.51632596799755,272.9091243550065,272.9091243550065,272.931459489002,272.931459489002,272.931459489002,272.931459489002,272.931459489002,272.931459489002,272.931459489002,272.931459489002,272.931459489002,272.931459489002,272.931459489002,272.931459489002,272.931459489002,272.931459489002,272.931459489002,275.44398981600534,275.44398981600534,275.44398981600534,275.44398981600534,275.44398981600534,43,59,80,29,59,42,5.0,0.9568938580050599,276.414894911999,277.9966614349978,,,,,,,,,154,f,18,2023-04-05_11h10.32.460,RL,2022.2.4,60.00185033948497,
1,25,0,25,0,,,,,,,,,,None,277.9966614349978,277.9966614349978,277.9966614349978,277.9966614349978,277.9966614349978,277.9966614349978,i,0.3528297360026045,278.3996122270037,278.3996122270037,278.3996122270037,278.3996122270037,278.3996122270037,278.3996122270037,278.66862946499896,278.66862946499896,279.6651356270013,279.6651356270013,279.7060019560013,279.7060019560013,279.7060019560013,279.7060019560013,279.7060019560013,279.7060019560013,279.7060019560013,279.7060019560013,279.7060019560013,279.7060019560013,279.7060019560013,279.7060019560013,279.7060019560013,279.7060019560013,279.7060019560013,282.2143289730011,282.2143289730011,282.2143289730011,282.2143289730011,282.2143289730011,38,54,81,27,81,51,7.0,1.8446124830079498,284.0694504169951,286.05081506499846,,,,,,,,,154,f,18,2023-04-05_11h10.32.460,RL,2022.2.4,60.00185033948497,
1,26,0,26,0,,,,,,,,,,None,286.05081506499846,286.05081506499846,286.05081506499846,286.05081506499846,286.05081506499846,286.05081506499846,f,0.3750701789977029,286.4759779980086,286.4759779980086,286.4759779980086,286.4759779980086,286.4759779980086,286.4759779980086,286.74188047699863,286.74188047699863,288.4543079610012,288.4543079610012,288.49670332300593,288.49670332300593,288.49670332300593,288.49670332300593,288.49670332300593,288.49670332300593,288.49670332300593,288.49670332300593,288.49670332300593,288.49670332300593,288.49670332300593,288.49670332300593,288.49670332300593,288.49670332300593,288.49670332300593,290.9979100799974,290.9979100799974,290.9979100799974,290.9979100799974,290.9979100799974,37,61,77,26,61,65,5.0,0.9816521040047519,291.9927611089952,293.85365606300184,,,,,,,,,154,f,18,2023-04-05_11h10.32.460,RL,2022.2.4,60.00185033948497,
1,27,0,27,0,,,,,,,,,,None,293.85365606300184,293.85365606300184,293.85365606300184,293.85365606300184,293.85365606300184,293.85365606300184,r,0.3149674909946043,294.2043322880054,294.2043322880054,294.2043322880054,294.2043322880054,294.2043322880054,294.2043322880054,294.47762614299427,294.47762614299427,295.5057184519974,295.5057184519974,295.52587291899545,295.52587291899545,295.52587291899545,295.52587291899545,295.52587291899545,295.52587291899545,295.52587291899545,295.52587291899545,295.52587291899545,295.52587291899545,295.52587291899545,295.52587291899545,295.52587291899545,295.52587291899545,295.52587291899545,298.0376681159978,298.0376681159978,298.0376681159978,298.0376681159978,298.0376681159978,39,58,81,24,39,46,4.0,1.0403619749995414,299.0926314859971,301.04048310300277,,,,,,,,,154,f,18,2023-04-05_11h10.32.460,RL,2022.2.4,60.00185033948497,
1,28,0,28,0,,,,,,,,,,None,301.04048310300277,301.04048310300277,301.04048310300277,301.04048310300277,301.04048310300277,301.04048310300277,f,0.7724855730048148,301.8661962900078,301.8661962900078,301.8661962900078,301.8661962900078,301.8661962900078,301.8661962900078,302.13044377999904,302.13044377999904,303.07405155499873,303.07405155499873,303.11227425000106,303.11227425000106,303.11227425000106,303.11227425000106,303.11227425000106,303.11227425000106,303.11227425000106,303.11227425000106,303.11227425000106,303.11227425000106,303.11227425000106,303.11227425000106,303.11227425000106,303.11227425000106,303.11227425000106,305.61876336400746,305.61876336400746,305.61876336400746,305.61876336400746,305.61876336400746,45,45,87,31,45,51,4.0,1.5011566239991225,307.1315077610052,308.92698262800695,,,,,,,,,154,f,18,2023-04-05_11h10.32.460,RL,2022.2.4,60.00185033948497,
1,29,0,29,0,,,,,,,,,,None,308.92698262800695,308.92698262800695,308.92698262800695,308.92698262800695,308.92698262800695,308.92698262800695,i,0.5181851420056773,309.4980079050001,309.4980079050001,309.4980079050001,309.4980079050001,309.4980079050001,309.4980079050001,309.7670333020069,309.7670333020069,311.0547979880066,311.0547979880066,311.0940985060006,311.0940985060006,311.0940985060006,311.0940985060006,311.0940985060006,311.0940985060006,311.0940985060006,311.0940985060006,311.0940985060006,311.0940985060006,311.0940985060006,311.0940985060006,311.0940985060006,311.0940985060006,311.0940985060006,313.59432872499747,313.59432872499747,313.59432872499747,313.59432872499747,313.59432872499747,42,55,87,25,87,65,7.0,0.9453416699980153,314.55152342800284,316.4303801310016,,,,,,,,,154,f,18,2023-04-05_11h10.32.460,RL,2022.2.4,60.00185033948497,
1,30,0,30,0,,,,,,,,,,None,316.4303801310016,316.4303801310016,316.4303801310016,316.4303801310016,316.4303801310016,316.4303801310016,j,0.6643993650068296,317.1332547829952,317.1332547829952,317.1332547829952,317.1332547829952,317.1332547829952,317.1332547829952,317.4044870130019,317.4044870130019,318.61635009900783,318.61635009900783,318.655446277,318.655446277,318.655446277,318.655446277,318.655446277,318.655446277,318.655446277,318.655446277,318.655446277,318.655446277,318.655446277,318.655446277,318.655446277,318.655446277,318.655446277,321.15761479499633,321.15761479499633,321.15761479499633,321.15761479499633,321.15761479499633,36,59,82,21,21,63,2.0,1.5191100439988077,322.6915717219963,324.30223511799704,,,,,,,,,154,f,18,2023-04-05_11h10.32.460,RL,2022.2.4,60.00185033948497,
1,31,0,31,0,,,,,,,,,,None,324.30223511799704,324.30223511799704,324.30223511799704,324.30223511799704,324.30223511799704,324.30223511799704,f,0.37275272799888626,324.72168030499597,324.72168030499597,324.72168030499597,324.72168030499597,324.72168030499597,324.72168030499597,324.9911948000081,324.9911948000081,326.2090983490052,326.2090983490052,326.2487709720008,326.2487709720008,326.2487709720008,326.2487709720008,326.2487709720008,326.2487709720008,326.2487709720008,326.2487709720008,326.2487709720008,326.2487709720008,326.2487709720008,326.2487709720008,326.2487709720008,326.2487709720008,326.2487709720008,328.7573685840034,328.7573685840034,328.7573685840034,328.7573685840034,328.7573685840034,49,40,80,31,40,44,3.0,2.1893751900061034,330.9578640690015,332.53923550000763,,,,,,,,,154,f,18,2023-04-05_11h10.32.460,RL,2022.2.4,60.00185033948497,
1,32,0,32,0,,,,,,,,,,None,332.53923550000763,332.53923550000763,332.53923550000763,332.53923550000763,332.53923550000763,332.53923550000763,f,1.1380400190100772,333.7298473039991,333.7298473039991,333.7298473039991,333.7298473039991,333.7298473039991,333.7298473039991,333.99732955600484,333.99732955600484,334.87743224500446,334.87743224500446,334.918627164996,334.918627164996,334.918627164996,334.918627164996,334.918627164996,334.918627164996,334.918627164996,334.918627164996,334.918627164996,334.918627164996,334.918627164996,334.918627164996,334.918627164996,334.918627164996,334.918627164996,337.42324113800714,337.42324113800714,337.42324113800714,337.42324113800714,337.42324113800714,42,55,81,31,55,33,4.0,0.8295665629993891,338.2620616500062,339.79248833699967,,,,,,,,,154,f,18,2023-04-05_11h10.32.460,RL,2022.2.4,60.00185033948497,
1,33,0,33,0,,,,,,,,,,None,339.79248833699967,339.79248833699967,339.79248833699967,339.79248833699967,339.79248833699967,339.79248833699967,f,0.8221318209980382,340.6623813059996,340.6623813059996,340.6623813059996,340.6623813059996,340.6623813059996,340.6623813059996,340.9322550430079,340.9322550430079,342.68891581500066,342.68891581500066,342.72781564599427,342.72781564599427,342.72781564599427,342.72781564599427,342.72781564599427,342.72781564599427,342.72781564599427,342.72781564599427,342.72781564599427,342.72781564599427,342.72781564599427,342.72781564599427,342.72781564599427,342.72781564599427,342.72781564599427,345.24377713599824,345.24377713599824,345.24377713599824,345.24377713599824,345.24377713599824,40,61,83,25,61,52,5.0,1.0927801229991019,346.3480623130017,348.1131518309994,,,,,,,,,154,f,18,2023-04-05_11h10.32.460,RL,2022.2.4,60.00185033948497,
1,34,0,34,0,,,,,,,,,,None,348.1131518309994,348.1131518309994,348.1131518309994,348.1131518309994,348.1131518309994,348.1131518309994,r,0.5534093150054105,348.71687676300644,348.71687676300644,348.71687676300644,348.71687676300644,348.71687676300644,348.71687676300644,348.9864593609964,348.9864593609964,350.37066716200206,350.37066716200206,350.4099429400085,350.4099429400085,350.4099429400085,350.4099429400085,350.4099429400085,350.4099429400085,350.4099429400085,350.4099429400085,350.4099429400085,350.4099429400085,350.4099429400085,350.4099429400085,350.4099429400085,350.4099429400085,350.4099429400085,352.9230245850049,352.9230245850049,352.9230245850049,352.9230245850049,352.9230245850049,33,61,86,30,33,63,2.0,0.8882452169928001,353.8251117000036,355.53321377800603,,,,,,,,,154,f,18,2023-04-05_11h10.32.460,RL,2022.2.4,60.00185033948497,
1,35,0,35,0,,,,,,,,,,None,355.53321377800603,355.53321377800603,355.53321377800603,355.53321377800603,355.53321377800603,355.53321377800603,j,0.35788778599817306,355.93586601100105,355.93586601100105,355.93586601100105,355.93586601100105,355.93586601100105,355.93586601100105,356.20655101700686,356.20655101700686,357.9421784349979,357.9421784349979,357.98022255800606,357.98022255800606,357.98022255800606,357.98022255800606,357.98022255800606,357.98022255800606,357.98022255800606,357.98022255800606,357.98022255800606,357.98022255800606,357.98022255800606,357.98022255800606,357.98022255800606,357.98022255800606,357.98022255800606,360.4801345980086,360.4801345980086,360.4801345980086,360.4801345980086,360.4801345980086,38,65,83,32,32,56,2.0,1.3616134600015357,361.8558772069955,363.65275972800737,,,,,,,,,154,f,18,2023-04-05_11h10.32.460,RL,2022.2.4,60.00185033948497,
1,36,0,36,0,,,,,,,,,,None,363.65275972800737,363.65275972800737,363.65275972800737,363.65275972800737,363.65275972800737,363.65275972800737,i,0.3523511479870649,364.0563507129991,364.0563507129991,364.0563507129991,364.0563507129991,364.0563507129991,364.0563507129991,364.3252263750037,364.3252263750037,365.5704545040062,365.5704545040062,365.6085690680047,365.6085690680047,365.6085690680047,365.6085690680047,365.6085690680047,365.6085690680047,365.6085690680047,365.6085690680047,365.6085690680047,365.6085690680047,365.6085690680047,365.6085690680047,365.6085690680047,365.6085690680047,365.6085690680047,368.109113945,368.109113945,368.109113945,368.109113945,368.109113945,35,67,75,32,75,61,6.0,1.2744565390021307,369.395171547003,371.3748748060025,,,,,,,,,154,f,18,2023-04-05_11h10.32.460,RL,2022.2.4,60.00185033948497,
1,37,0,37,0,,,,,,,,,,None,371.3748748060025,371.3748748060025,371.3748748060025,371.3748748060025,371.3748748060025,371.3748748060025,j,0.38765340999816544,371.8105938429944,371.8105938429944,371.8105938429944,371.8105938429944,371.8105938429944,371.8105938429944,372.0817566689948,372.0817566689948,373.21045177099586,373.21045177099586,373.23044071299955,373.23044071299955,373.23044071299955,373.23044071299955,373.23044071299955,373.23044071299955,373.23044071299955,373.23044071299955,373.23044071299955,373.23044071299955,373.23044071299955,373.23044071299955,373.23044071299955,373.23044071299955,373.23044071299955,375.743099194995,375.743099194995,375.743099194995,375.743099194995,375.743099194995,31,69,80,34,34,51,3.0,0.9067622529983055,376.66178711500834,378.56053321300715,,,,,,,,,154,f,18,2023-04-05_11h10.32.460,RL,2022.2.4,60.00185033948497,
1,38,0,38,0,,,,,,,,,,None,378.56053321300715,378.56053321300715,378.56053321300715,378.56053321300715,378.56053321300715,378.56053321300715,f,1.0252201609982876,379.62685552799667,379.62685552799667,379.62685552799667,379.62685552799667,379.62685552799667,379.62685552799667,379.8997121279972,379.8997121279972,381.4851778589946,381.4851778589946,381.5251455730031,381.5251455730031,381.5251455730031,381.5251455730031,381.5251455730031,381.5251455730031,381.5251455730031,381.5251455730031,381.5251455730031,381.5251455730031,381.5251455730031,381.5251455730031,381.5251455730031,381.5251455730031,381.5251455730031,384.02091958800156,384.02091958800156,384.02091958800156,384.02091958800156,384.02091958800156,32,68,87,23,68,47,6.0,1.08108194200031,385.11819545400795,386.7637474180083,,,,,,,,,154,f,18,2023-04-05_11h10.32.460,RL,2022.2.4,60.00185033948497,
1,39,0,39,0,,,,,,,,,,None,386.7637474180083,386.7637474180083,386.7637474180083,386.7637474180083,386.7637474180083,386.7637474180083,f,0.4763827999995556,387.2812766559946,387.2812766559946,387.2812766559946,387.2812766559946,387.2812766559946,387.2812766559946,387.5551572609984,387.5551572609984,388.9920290209993,388.9920290209993,389.02855315800116,389.02855315800116,389.02855315800116,389.02855315800116,389.02855315800116,389.02855315800116,389.02855315800116,389.02855315800116,389.02855315800116,389.02855315800116,389.02855315800116,389.02855315800116,389.02855315800116,389.02855315800116,389.02855315800116,391.5425188299996,391.5425188299996,391.5425188299996,391.5425188299996,391.5425188299996,23,62,77,28,62,51,5.0,1.2336991659976775,392.79355709900847,394.351799267999,,,,,,,,,154,f,18,2023-04-05_11h10.32.460,RL,2022.2.4,60.00185033948497,
1,40,0,40,0,,,,,,,,,,None,394.351799267999,394.351799267999,394.351799267999,394.351799267999,394.351799267999,394.351799267999,i,0.4081176159961615,394.8060541040031,394.8060541040031,394.8060541040031,394.8060541040031,394.8060541040031,394.8060541040031,395.0738018060074,395.0738018060074,396.36907859300845,396.36907859300845,396.4099994059943,396.4099994059943,396.4099994059943,396.4099994059943,396.4099994059943,396.4099994059943,396.4099994059943,396.4099994059943,396.4099994059943,396.4099994059943,396.4099994059943,396.4099994059943,396.4099994059943,396.4099994059943,396.4099994059943,398.912194058008,398.912194058008,398.912194058008,398.912194058008,398.912194058008,40,66,83,29,83,59,7.0,0.8806578049989184,399.80841664399486,401.50482015599846,,,,,,,,,154,f,18,2023-04-05_11h10.32.460,RL,2022.2.4,60.00185033948497,
1,41,0,41,0,,,,,,,,,,None,401.50482015599846,401.50482015599846,401.50482015599846,401.50482015599846,401.50482015599846,401.50482015599846,j,0.4739035980019253,402.0303095450072,402.0303095450072,402.0303095450072,402.0303095450072,402.0303095450072,402.0303095450072,402.2966837060085,402.2966837060085,403.43234241500613,403.43234241500613,403.4726369849959,403.4726369849959,403.4726369849959,403.4726369849959,403.4726369849959,403.4726369849959,403.4726369849959,403.4726369849959,403.4726369849959,403.4726369849959,403.4726369849959,403.4726369849959,403.4726369849959,403.4726369849959,403.4726369849959,405.9690010799968,405.9690010799968,405.9690010799968,405.9690010799968,405.9690010799968,34,54,74,31,31,36,3.0,1.1672491849894868,407.14915997900243,409.1259213890007,,,,,,,,,154,f,18,2023-04-05_11h10.32.460,RL,2022.2.4,60.00185033948497,
1,42,0,42,0,,,,,,,,,,None,409.1259213890007,409.1259213890007,409.1259213890007,409.1259213890007,409.1259213890007,409.1259213890007,r,0.3981233990052715,409.57825948900427,409.57825948900427,409.57825948900427,409.57825948900427,409.57825948900427,409.57825948900427,409.8501842429978,409.8501842429978,411.21952870700625,411.21952870700625,411.24288275699655,411.24288275699655,411.24288275699655,411.24288275699655,411.24288275699655,411.24288275699655,411.24288275699655,411.24288275699655,411.24288275699655,411.24288275699655,411.24288275699655,411.24288275699655,411.24288275699655,411.24288275699655,411.24288275699655,413.75289258599514,413.75289258599514,413.75289258599514,413.75289258599514,413.75289258599514,30,65,76,42,30,61,2.0,0.6888853980053682,414.4484261100006,416.2462791200087,,,,,,,,,154,f,18,2023-04-05_11h10.32.460,RL,2022.2.4,60.00185033948497,
1,43,0,43,0,,,,,,,,,,None,416.2462791200087,416.2462791200087,416.2462791200087,416.2462791200087,416.2462791200087,416.2462791200087,f,0.5401787209993927,416.83052601100644,416.83052601100644,416.83052601100644,416.83052601100644,416.83052601100644,416.83052601100644,417.10126650400343,417.10126650400343,419.00688306400843,419.00688306400843,419.0469805839966,419.0469805839966,419.0469805839966,419.0469805839966,419.0469805839966,419.0469805839966,419.0469805839966,419.0469805839966,419.0469805839966,419.0469805839966,419.0469805839966,419.0469805839966,419.0469805839966,419.0469805839966,419.0469805839966,421.5437961400021,421.5437961400021,421.5437961400021,421.5437961400021,421.5437961400021,30,66,66,37,66,42,5.0,0.5997734349948587,422.15960054300376,423.96537105200696,,,,,,,,,154,f,18,2023-04-05_11h10.32.460,RL,2022.2.4,60.00185033948497,
1,44,0,44,0,,,,,,,,,,None,423.96537105200696,423.96537105200696,423.96537105200696,423.96537105200696,423.96537105200696,423.96537105200696,r,0.3748517680069199,424.39166735300387,424.39166735300387,424.39166735300387,424.39166735300387,424.39166735300387,424.39166735300387,424.6726184279978,424.6726184279978,426.65934872900834,426.65934872900834,426.6824912680022,426.6824912680022,426.6824912680022,426.6824912680022,426.6824912680022,426.6824912680022,426.6824912680022,426.6824912680022,426.6824912680022,426.6824912680022,426.6824912680022,426.6824912680022,426.6824912680022,426.6824912680022,426.6824912680022,429.1928030340059,429.1928030340059,429.1928030340059,429.1928030340059,429.1928030340059,32,71,67,28,32,51,2.0,1.1167192380089546,430.3241428750043,432.2039169350028,,,,,,,,,154,f,18,2023-04-05_11h10.32.460,RL,2022.2.4,60.00185033948497,
1,45,0,45,0,,,,,,,,,,None,432.2039169350028,432.2039169350028,432.2039169350028,432.2039169350028,432.2039169350028,432.2039169350028,j,0.6694343940034742,432.9122304269986,432.9122304269986,432.9122304269986,432.9122304269986,432.9122304269986,432.9122304269986,433.17605376499705,433.17605376499705,434.61275429099624,434.61275429099624,434.65551783800765,434.65551783800765,434.65551783800765,434.65551783800765,434.65551783800765,434.65551783800765,434.65551783800765,434.65551783800765,434.65551783800765,434.65551783800765,434.65551783800765,434.65551783800765,434.65551783800765,434.65551783800765,434.65551783800765,437.1536865590024,437.1536865590024,437.1536865590024,437.1536865590024,437.1536865590024,24,63,58,35,35,55,2.0,1.2478684459929354,438.4139203119994,439.9573698650056,,,,,,,,,154,f,18,2023-04-05_11h10.32.460,RL,2022.2.4,60.00185033948497,
1,46,0,46,0,,,,,,,,,,None,439.9573698650056,439.9573698650056,439.9573698650056,439.9573698650056,439.9573698650056,439.9573698650056,f,0.8375384099927032,440.8470088710019,440.8470088710019,440.8470088710019,440.8470088710019,440.8470088710019,440.8470088710019,441.1134143109957,441.1134143109957,442.5178402550082,442.5178402550082,442.57318562800356,442.57318562800356,442.57318562800356,442.57318562800356,442.57318562800356,442.57318562800356,442.57318562800356,442.57318562800356,442.57318562800356,442.57318562800356,442.57318562800356,442.57318562800356,442.57318562800356,442.57318562800356,442.57318562800356,445.0805477260001,445.0805477260001,445.0805477260001,445.0805477260001,445.0805477260001,33,64,57,32,64,58,5.0,1.589274354002555,446.6826992529968,448.44446813099785,,,,,,,,,154,f,18,2023-04-05_11h10.32.460,RL,2022.2.4,60.00185033948497,
1,47,0,47,0,,,,,,,,,,None,448.44446813099785,448.44446813099785,448.44446813099785,448.44446813099785,448.44446813099785,448.44446813099785,j,0.946184827000252,449.4378873280075,449.4378873280075,449.4378873280075,449.4378873280075,449.4378873280075,449.4378873280075,449.7040427449974,449.7040427449974,451.3331305640022,451.3331305640022,451.37282284999674,451.37282284999674,451.37282284999674,451.37282284999674,451.37282284999674,451.37282284999674,451.37282284999674,451.37282284999674,451.37282284999674,451.37282284999674,451.37282284999674,451.37282284999674,451.37282284999674,451.37282284999674,451.37282284999674,453.87300751199655,453.87300751199655,453.87300751199655,453.87300751199655,453.87300751199655,36,63,51,29,29,51,2.0,1.771062276995508,455.6619839549967,457.29844905900245,,,,,,,,,154,f,18,2023-04-05_11h10.32.460,RL,2022.2.4,60.00185033948497,
1,48,0,48,0,,,,,,,,,,None,457.29844905900245,457.29844905900245,457.29844905900245,457.29844905900245,457.29844905900245,457.29844905900245,i,0.4594553039933089,457.79967510500865,457.79967510500865,457.79967510500865,457.79967510500865,457.79967510500865,457.79967510500865,458.07117971300613,458.07117971300613,459.155850627998,459.155850627998,459.1971555899945,459.1971555899945,459.1971555899945,459.1971555899945,459.1971555899945,459.1971555899945,459.1971555899945,459.1971555899945,459.1971555899945,459.1971555899945,459.1971555899945,459.1971555899945,459.1971555899945,459.1971555899945,459.1971555899945,461.7065724419954,461.7065724419954,461.7065724419954,461.7065724419954,461.7065724419954,38,75,46,24,46,54,3.0,1.1033311399951344,462.8208496379957,464.4186029639968,,,,,,,,,154,f,18,2023-04-05_11h10.32.460,RL,2022.2.4,60.00185033948497,
1,49,0,49,0,,,,,,,,,,None,464.4186029639968,464.4186029639968,464.4186029639968,464.4186029639968,464.4186029639968,464.4186029639968,f,0.820890294999117,465.2882786359987,465.2882786359987,465.2882786359987,465.2882786359987,465.2882786359987,465.2882786359987,465.55904737299716,465.55904737299716,467.113129934005,467.113129934005,467.15327168800286,467.15327168800286,467.15327168800286,467.15327168800286,467.15327168800286,467.15327168800286,467.15327168800286,467.15327168800286,467.15327168800286,467.15327168800286,467.15327168800286,467.15327168800286,467.15327168800286,467.15327168800286,467.15327168800286,469.6486834959942,469.6486834959942,469.6486834959942,469.6486834959942,469.6486834959942,45,76,45,27,76,62,6.0,0.5631413249939214,470.22408270600135,472.0058170330012,,,,,,,,,154,f,18,2023-04-05_11h10.32.460,RL,2022.2.4,60.00185033948497,
1,50,0,50,0,,,,,,,,,,None,472.0058170330012,472.0058170330012,472.0058170330012,472.0058170330012,472.0058170330012,472.0058170330012,i,0.31432775501161814,472.35522213000513,472.35522213000513,472.35522213000513,472.35522213000513,472.35522213000513,472.35522213000513,472.6286364770058,472.6286364770058,474.3326799689967,474.3326799689967,474.372514992996,474.372514992996,474.372514992996,474.372514992996,474.372514992996,474.372514992996,474.372514992996,474.372514992996,474.372514992996,474.372514992996,474.372514992996,474.372514992996,474.372514992996,474.372514992996,474.372514992996,476.88292015800835,476.88292015800835,476.88292015800835,476.88292015800835,476.88292015800835,41,71,52,28,52,61,5.0,0.6334576459921664,477.5296808700077,479.52523897100764,,,,,,,,,154,f,18,2023-04-05_11h10.32.460,RL,2022.2.4,60.00185033948497,
1,51,0,51,0,,,,,,,,,,None,479.52523897100764,479.52523897100764,479.52523897100764,479.52523897100764,479.52523897100764,479.52523897100764,r,0.3556446379952831,479.9336104050017,479.9336104050017,479.9336104050017,479.9336104050017,479.9336104050017,479.9336104050017,480.21579914599715,480.21579914599715,481.6282589180046,481.6282589180046,481.6490272509982,481.6490272509982,481.6490272509982,481.6490272509982,481.6490272509982,481.6490272509982,481.6490272509982,481.6490272509982,481.6490272509982,481.6490272509982,481.6490272509982,481.6490272509982,481.6490272509982,481.6490272509982,481.6490272509982,484.1503568379994,484.1503568379994,484.1503568379994,484.1503568379994,484.1503568379994,51,70,44,21,51,53,5.0,0.9176577469916083,485.08176054900105,486.9622700129985,,,,,,,,,154,f,18,2023-04-05_11h10.32.460,RL,2022.2.4,60.00185033948497,
1,52,0,52,0,,,,,,,,,,None,486.9622700129985,486.9622700129985,486.9622700129985,486.9622700129985,486.9622700129985,486.9622700129985,i,0.7927705860056449,487.79807094100397,487.79807094100397,487.79807094100397,487.79807094100397,487.79807094100397,487.79807094100397,488.06831801199587,488.06831801199587,489.95451090899587,489.95451090899587,489.9943343310006,489.9943343310006,489.9943343310006,489.9943343310006,489.9943343310006,489.9943343310006,489.9943343310006,489.9943343310006,489.9943343310006,489.9943343310006,489.9943343310006,489.9943343310006,489.9943343310006,489.9943343310006,489.9943343310006,492.49136512100813,492.49136512100813,492.49136512100813,492.49136512100813,492.49136512100813,52,69,38,19,38,50,2.0,0.8141278900002362,493.3176202600007,494.84905426899786,,,,,,,,,154,f,18,2023-04-05_11h10.32.460,RL,2022.2.4,60.00185033948497,
1,53,0,53,0,,,,,,,,,,None,494.84905426899786,494.84905426899786,494.84905426899786,494.84905426899786,494.84905426899786,494.84905426899786,j,0.3923929769953247,495.2854124610021,495.2854124610021,495.2854124610021,495.2854124610021,495.2854124610021,495.2854124610021,495.5561012370017,495.5561012370017,496.41463478100195,496.41463478100195,496.45180126700143,496.45180126700143,496.45180126700143,496.45180126700143,496.45180126700143,496.45180126700143,496.45180126700143,496.45180126700143,496.45180126700143,496.45180126700143,496.45180126700143,496.45180126700143,496.45180126700143,496.45180126700143,496.45180126700143,498.96286548499484,498.96286548499484,498.96286548499484,498.96286548499484,498.96286548499484,49,81,40,26,26,51,2.0,0.7291811210016022,499.70408639400557,501.4680704140046,,,,,,,,,154,f,18,2023-04-05_11h10.32.460,RL,2022.2.4,60.00185033948497,
1,54,0,54,0,,,,,,,,,,None,501.4680704140046,501.4680704140046,501.4680704140046,501.4680704140046,501.4680704140046,501.4680704140046,f,0.3350984900025651,501.8555994560011,501.8555994560011,501.8555994560011,501.8555994560011,501.8555994560011,501.8555994560011,502.1254957970086,502.1254957970086,503.37664909400337,503.37664909400337,503.4041493679979,503.4041493679979,503.4041493679979,503.4041493679979,503.4041493679979,503.4041493679979,503.4041493679979,503.4041493679979,503.4041493679979,503.4041493679979,503.4041493679979,503.4041493679979,503.4041493679979,503.4041493679979,503.4041493679979,505.9062816109945,505.9062816109945,505.9062816109945,505.9062816109945,505.9062816109945,44,71,40,23,71,37,6.0,1.1059082389983814,507.0254871930083,508.85631708300207,,,,,,,,,154,f,18,2023-04-05_11h10.32.460,RL,2022.2.4,60.00185033948497,
1,55,0,55,0,,,,,,,,,,None,508.85631708300207,508.85631708300207,508.85631708300207,508.85631708300207,508.85631708300207,508.85631708300207,i,0.4177063039969653,509.3227242779976,509.3227242779976,509.3227242779976,509.3227242779976,509.3227242779976,509.3227242779976,509.59678310199524,509.59678310199524,511.48232713600737,511.48232713600737,511.5221533449949,511.5221533449949,511.5221533449949,511.5221533449949,511.5221533449949,511.5221533449949,511.5221533449949,511.5221533449949,511.5221533449949,511.5221533449949,511.5221533449949,511.5221533449949,511.5221533449949,511.5221533449949,511.5221533449949,514.0190107710077,514.0190107710077,514.0190107710077,514.0190107710077,514.0190107710077,44,75,43,20,43,37,4.0,0.6476392960030353,514.6788635560079,516.6929314640001,,,,,,,,,154,f,18,2023-04-05_11h10.32.460,RL,2022.2.4,60.00185033948497,
1,56,0,56,0,,,,,,,,,,None,516.6929314640001,516.6929314640001,516.6929314640001,516.6929314640001,516.6929314640001,516.6929314640001,f,0.6654752100002952,517.3935374290013,517.3935374290013,517.3935374290013,517.3935374290013,517.3935374290013,517.3935374290013,517.6650277900044,517.6650277900044,519.4064909849985,519.4064909849985,519.4454819870007,519.4454819870007,519.4454819870007,519.4454819870007,519.4454819870007,519.4454819870007,519.4454819870007,519.4454819870007,519.4454819870007,519.4454819870007,519.4454819870007,519.4454819870007,519.4454819870007,519.4454819870007,519.4454819870007,521.9622922720009,521.9622922720009,521.9622922720009,521.9622922720009,521.9622922720009,42,79,45,23,79,58,6.0,0.9881615350022912,522.9653699619957,524.5137782289967,,,,,,,,,154,f,18,2023-04-05_11h10.32.460,RL,2022.2.4,60.00185033948497,
1,57,0,57,0,,,,,,,,,,None,524.5137782289967,524.5137782289967,524.5137782289967,524.5137782289967,524.5137782289967,524.5137782289967,f,0.7592872789973626,525.3212079390069,525.3212079390069,525.3212079390069,525.3212079390069,525.3212079390069,525.3212079390069,525.603258232004,525.603258232004,526.5233721380064,526.5233721380064,526.5450376210065,526.5450376210065,526.5450376210065,526.5450376210065,526.5450376210065,526.5450376210065,526.5450376210065,526.5450376210065,526.5450376210065,526.5450376210065,526.5450376210065,526.5450376210065,526.5450376210065,526.5450376210065,526.5450376210065,529.0496052910021,529.0496052910021,529.0496052910021,529.0496052910021,529.0496052910021,49,84,54,35,84,61,7.0,0.6245870790007757,529.6871702210046,531.5165587649972,,,,,,,,,154,f,18,2023-04-05_11h10.32.460,RL,2022.2.4,60.00185033948497,
1,58,0,58,0,,,,,,,,,,None,531.5165587649972,531.5165587649972,531.5165587649972,531.5165587649972,531.5165587649972,531.5165587649972,f,0.45588789400062524,532.0262016250053,532.0262016250053,532.0262016250053,532.0262016250053,532.0262016250053,532.0262016250053,532.3051593169948,532.3051593169948,533.8752598360006,533.8752598360006,533.8974421970051,533.8974421970051,533.8974421970051,533.8974421970051,533.8974421970051,533.8974421970051,533.8974421970051,533.8974421970051,533.8974421970051,533.8974421970051,533.8974421970051,533.8974421970051,533.8974421970051,533.8974421970051,533.8974421970051,536.3974048490054,536.3974048490054,536.3974048490054,536.3974048490054,536.3974048490054,44,83,49,29,83,67,7.0,0.6595779769995715,537.074422153004,538.9027230060019,,,,,,,,,154,f,18,2023-04-05_11h10.32.460,RL,2022.2.4,60.00185033948497,
1,59,0,59,0,,,,,,,,,,None,538.9027230060019,538.9027230060019,538.9027230060019,538.9027230060019,538.9027230060019,538.9027230060019,f,1.0680232160084415,540.0234530040034,540.0234530040034,540.0234530040034,540.0234530040034,540.0234530040034,540.0234530040034,540.2935488630028,540.2935488630028,541.496770193,541.496770193,541.5376985850016,541.5376985850016,541.5376985850016,541.5376985850016,541.5376985850016,541.5376985850016,541.5376985850016,541.5376985850016,541.5376985850016,541.5376985850016,541.5376985850016,541.5376985850016,541.5376985850016,541.5376985850016,541.5376985850016,544.0472379319981,544.0472379319981,544.0472379319981,544.0472379319981,544.0472379319981,40,93,46,24,93,67,7.0,0.7851535490044625,544.8439257349964,546.4235558039945,,,,,,,,,154,f,18,2023-04-05_11h10.32.460,RL,2022.2.4,60.00185033948497,
1,60,0,60,0,,,,,,,,,,None,546.4235558039945,546.4235558039945,546.4235558039945,546.4235558039945,546.4235558039945,546.4235558039945,f,0.48957918499945663,546.9538832069957,546.9538832069957,546.9538832069957,546.9538832069957,546.9538832069957,546.9538832069957,547.235269665005,547.235269665005,549.0520131240046,549.0520131240046,549.0756680400082,549.0756680400082,549.0756680400082,549.0756680400082,549.0756680400082,549.0756680400082,549.0756680400082,549.0756680400082,549.0756680400082,549.0756680400082,549.0756680400082,549.0756680400082,549.0756680400082,549.0756680400082,549.0756680400082,551.5911759110022,551.5911759110022,551.5911759110022,551.5911759110022,551.5911759110022,43,79,47,17,79,63,7.0,1.138717979993089,552.7414916429989,554.4439900870057,,,,,,,,,154,f,18,2023-04-05_11h10.32.460,RL,2022.2.4,60.00185033948497,
1,61,0,61,0,,,,,,,,,,None,554.4439900870057,554.4439900870057,554.4439900870057,554.4439900870057,554.4439900870057,554.4439900870057,f,0.721210866002366,555.200964735006,555.200964735006,555.200964735006,555.200964735006,555.200964735006,555.200964735006,555.468777246002,555.468777246002,556.6545418409951,556.6545418409951,556.6941172880033,556.6941172880033,556.6941172880033,556.6941172880033,556.6941172880033,556.6941172880033,556.6941172880033,556.6941172880033,556.6941172880033,556.6941172880033,556.6941172880033,556.6941172880033,556.6941172880033,556.6941172880033,556.6941172880033,559.2046043800074,559.2046043800074,559.2046043800074,559.2046043800074,559.2046043800074,49,82,46,17,82,65,7.0,1.0003641319926828,560.2178073770046,561.8641259690048,,,,,,,,,154,f,18,2023-04-05_11h10.32.460,RL,2022.2.4,60.00185033948497,
1,62,0,62,0,,,,,,,,,,None,561.8641259690048,561.8641259690048,561.8641259690048,561.8641259690048,561.8641259690048,561.8641259690048,f,0.2799355489987647,562.1837054079951,562.1837054079951,562.1837054079951,562.1837054079951,562.1837054079951,562.1837054079951,562.4542531089974,562.4542531089974,563.3425110389944,563.3425110389944,563.3853157630074,563.3853157630074,563.3853157630074,563.3853157630074,563.3853157630074,563.3853157630074,563.3853157630074,563.3853157630074,563.3853157630074,563.3853157630074,563.3853157630074,563.3853157630074,563.3853157630074,563.3853157630074,563.3853157630074,565.8857499699952,565.8857499699952,565.8857499699952,565.8857499699952,565.8857499699952,51,88,43,18,88,56,7.0,0.6882129959994927,566.5855658930086,568.2846576650045,,,,,,,,,154,f,18,2023-04-05_11h10.32.460,RL,2022.2.4,60.00185033948497,
1,63,0,63,0,,,,,,,,,,None,568.2846576650045,568.2846576650045,568.2846576650045,568.2846576650045,568.2846576650045,568.2846576650045,f,0.2792446500097867,568.6038788820006,568.6038788820006,568.6038788820006,568.6038788820006,568.6038788820006,568.6038788820006,568.8733586269955,568.8733586269955,569.8421914659993,569.8421914659993,569.8808242920059,569.8808242920059,569.8808242920059,569.8808242920059,569.8808242920059,569.8808242920059,569.8808242920059,569.8808242920059,569.8808242920059,569.8808242920059,569.8808242920059,569.8808242920059,569.8808242920059,569.8808242920059,569.8808242920059,572.3949296180072,572.3949296180072,572.3949296180072,572.3949296180072,572.3949296180072,48,81,53,26,81,54,7.0,0.7159909790061647,573.1230277800059,574.8538873159996,,,,,,,,,154,f,18,2023-04-05_11h10.32.460,RL,2022.2.4,60.00185033948497,
1,64,0,64,0,,,,,,,,,,None,574.8538873159996,574.8538873159996,574.8538873159996,574.8538873159996,574.8538873159996,574.8538873159996,f,0.3165748430037638,575.2080667940027,575.2080667940027,575.2080667940027,575.2080667940027,575.2080667940027,575.2080667940027,575.4763703640056,575.4763703640056,576.9953964830056,576.9953964830056,577.0366045270057,577.0366045270057,577.0366045270057,577.0366045270057,577.0366045270057,577.0366045270057,577.0366045270057,577.0366045270057,577.0366045270057,577.0366045270057,577.0366045270057,577.0366045270057,577.0366045270057,577.0366045270057,577.0366045270057,579.5372261919983,579.5372261919983,579.5372261919983,579.5372261919983,579.5372261919983,44,83,56,20,83,82,7.0,0.8120087160059484,580.3602626979991,582.3370192500006,,,,,,,,,154,f,18,2023-04-05_11h10.32.460,RL,2022.2.4,60.00185033948497,
1,65,0,65,0,,,,,,,,,,None,582.3370192500006,582.3370192500006,582.3370192500006,582.3370192500006,582.3370192500006,582.3370192500006,f,0.3401204859983409,582.7276242939988,582.7276242939988,582.7276242939988,582.7276242939988,582.7276242939988,582.7276242939988,583.008986271001,583.008986271001,584.9447660480073,584.9447660480073,584.9693707999977,584.9693707999977,584.9693707999977,584.9693707999977,584.9693707999977,584.9693707999977,584.9693707999977,584.9693707999977,584.9693707999977,584.9693707999977,584.9693707999977,584.9693707999977,584.9693707999977,584.9693707999977,584.9693707999977,587.4753076509951,587.4753076509951,587.4753076509951,587.4753076509951,587.4753076509951,47,72,58,19,72,69,6.0,1.395546823987388,588.8816866370034,590.4607922770083,,,,,,,,,154,f,18,2023-04-05_11h10.32.460,RL,2022.2.4,60.00185033948497,
1,66,0,66,0,,,,,,,,,,None,590.4607922770083,590.4607922770083,590.4607922770083,590.4607922770083,590.4607922770083,590.4607922770083,f,0.46986423499765806,590.9817947400006,590.9817947400006,590.9817947400006,590.9817947400006,590.9817947400006,590.9817947400006,591.2507469980046,591.2507469980046,592.8544706459943,592.8544706459943,592.8942200750025,592.8942200750025,592.8942200750025,592.8942200750025,592.8942200750025,592.8942200750025,592.8942200750025,592.8942200750025,592.8942200750025,592.8942200750025,592.8942200750025,592.8942200750025,592.8942200750025,592.8942200750025,592.8942200750025,595.4006617200066,595.4006617200066,595.4006617200066,595.4006617200066,595.4006617200066,47,76,52,25,76,56,7.0,1.0086397119885078,596.4227853839984,598.0489035939972,,,,,,,,,154,f,18,2023-04-05_11h10.32.460,RL,2022.2.4,60.00185033948497,
1,67,0,67,0,,,,,,,,,,None,598.0489035939972,598.0489035939972,598.0489035939972,598.0489035939972,598.0489035939972,598.0489035939972,f,0.3906703259999631,598.4843223820062,598.4843223820062,598.4843223820062,598.4843223820062,598.4843223820062,598.4843223820062,598.7548959209962,598.7548959209962,600.5330200330063,600.5330200330063,600.5713865489961,600.5713865489961,600.5713865489961,600.5713865489961,600.5713865489961,600.5713865489961,600.5713865489961,600.5713865489961,600.5713865489961,600.5713865489961,600.5713865489961,600.5713865489961,600.5713865489961,600.5713865489961,600.5713865489961,603.0832816030015,603.0832816030015,603.0832816030015,603.0832816030015,603.0832816030015,44,85,45,27,85,35,7.0,1.224996581004234,604.3218925170077,606.1690384270041,,,,,,,,,154,f,18,2023-04-05_11h10.32.460,RL,2022.2.4,60.00185033948497,
1,68,0,68,0,,,,,,,,,,None,606.1690384270041,606.1690384270041,606.1690384270041,606.1690384270041,606.1690384270041,606.1690384270041,f,0.4967382339964388,606.7045018219942,606.7045018219942,606.7045018219942,606.7045018219942,606.7045018219942,606.7045018219942,606.9738360600022,606.9738360600022,608.9507707589946,608.9507707589946,608.9965019310039,608.9965019310039,608.9965019310039,608.9965019310039,608.9965019310039,608.9965019310039,608.9965019310039,608.9965019310039,608.9965019310039,608.9965019310039,608.9965019310039,608.9965019310039,608.9965019310039,608.9965019310039,608.9965019310039,611.4990126560006,611.4990126560006,611.4990126560006,611.4990126560006,611.4990126560006,54,77,58,33,77,52,6.0,0.9310767730057705,612.4421487170039,614.4226142940024,,,,,,,,,154,f,18,2023-04-05_11h10.32.460,RL,2022.2.4,60.00185033948497,
1,69,0,69,0,,,,,,,,,,None,614.4226142940024,614.4226142940024,614.4226142940024,614.4226142940024,614.4226142940024,614.4226142940024,f,0.32053845599875785,614.7927801900078,614.7927801900078,614.7927801900078,614.7927801900078,614.7927801900078,614.7927801900078,615.0616853719985,615.0616853719985,616.6977173750056,616.6977173750056,616.7384136080072,616.7384136080072,616.7384136080072,616.7384136080072,616.7384136080072,616.7384136080072,616.7384136080072,616.7384136080072,616.7384136080072,616.7384136080072,616.7384136080072,616.7384136080072,616.7384136080072,616.7384136080072,616.7384136080072,619.2420017330005,619.2420017330005,619.2420017330005,619.2420017330005,619.2420017330005,51,86,64,38,86,55,7.0,0.8054459059931105,620.0615731500002,621.8405767710065,,,,,,,,,154,f,18,2023-04-05_11h10.32.460,RL,2022.2.4,60.00185033948497,
1,70,0,70,0,,,,,,,,,,None,621.8405767710065,621.8405767710065,621.8405767710065,621.8405767710065,621.8405767710065,621.8405767710065,f,0.400605483999243,622.2786638880061,622.2786638880061,622.2786638880061,622.2786638880061,622.2786638880061,622.2786638880061,622.5499441370048,622.5499441370048,623.4515635349962,623.4515635349962,623.4777600719972,623.4777600719972,623.4777600719972,623.4777600719972,623.4777600719972,623.4777600719972,623.4777600719972,623.4777600719972,623.4777600719972,623.4777600719972,623.4777600719972,623.4777600719972,623.4777600719972,623.4777600719972,623.4777600719972,625.9735025569971,625.9735025569971,625.9735025569971,625.9735025569971,625.9735025569971,55,85,61,28,85,79,7.0,0.8107994290039642,626.7980202750041,628.579590274996,,,,,,,,,154,f,18,2023-04-05_11h10.32.460,RL,2022.2.4,60.00185033948497,
1,71,0,71,0,,,,,,,,,,None,628.579590274996,628.579590274996,628.579590274996,628.579590274996,628.579590274996,628.579590274996,f,0.2991924710077001,628.918771067998,628.918771067998,628.918771067998,628.918771067998,628.918771067998,628.918771067998,629.1850364560087,629.1850364560087,630.8577617679985,630.8577617679985,630.8967392330087,630.8967392330087,630.8967392330087,630.8967392330087,630.8967392330087,630.8967392330087,630.8967392330087,630.8967392330087,630.8967392330087,630.8967392330087,630.8967392330087,630.8967392330087,630.8967392330087,630.8967392330087,630.8967392330087,633.3934631879965,633.3934631879965,633.3934631879965,633.3934631879965,633.3934631879965,57,84,60,29,84,77,7.0,0.830829682003241,634.2399582289945,636.0983414899965,,,,,,,,,154,f,18,2023-04-05_11h10.32.460,RL,2022.2.4,60.00185033948497,
1,72,0,72,0,,,,,,,,,,None,636.0983414899965,636.0983414899965,636.0983414899965,636.0983414899965,636.0983414899965,636.0983414899965,f,0.3014069019991439,636.4526186900039,636.4526186900039,636.4526186900039,636.4526186900039,636.4526186900039,636.4526186900039,636.7227458660054,636.7227458660054,637.7113246090012,637.7113246090012,637.734994590006,637.734994590006,637.734994590006,637.734994590006,637.734994590006,637.734994590006,637.734994590006,637.734994590006,637.734994590006,637.734994590006,637.734994590006,637.734994590006,637.734994590006,637.734994590006,637.734994590006,640.2508573859959,640.2508573859959,640.2508573859959,640.2508573859959,640.2508573859959,51,80,56,33,80,78,6.0,1.6619994259963278,641.922315689997,643.4366951279953,,,,,,,,,154,f,18,2023-04-05_11h10.32.460,RL,2022.2.4,60.00185033948497,
1,73,0,73,0,,,,,,,,,,None,643.4366951279953,643.4366951279953,643.4366951279953,643.4366951279953,643.4366951279953,643.4366951279953,f,0.31225786299910396,643.788952546005,643.788952546005,643.788952546005,643.788952546005,643.788952546005,643.788952546005,644.0600736119959,644.0600736119959,644.8993080490036,644.8993080490036,644.9396814670035,644.9396814670035,644.9396814670035,644.9396814670035,644.9396814670035,644.9396814670035,644.9396814670035,644.9396814670035,644.9396814670035,644.9396814670035,644.9396814670035,644.9396814670035,644.9396814670035,644.9396814670035,644.9396814670035,647.4492401059979,647.4492401059979,647.4492401059979,647.4492401059979,647.4492401059979,46,83,52,33,83,82,7.0,1.714165622004657,649.1761030380003,651.0565511589957,,,,,,,,,154,f,18,2023-04-05_11h10.32.460,RL,2022.2.4,60.00185033948497,
1,74,0,74,0,,,,,,,,,,None,651.0565511589957,651.0565511589957,651.0565511589957,651.0565511589957,651.0565511589957,651.0565511589957,f,0.3654762270016363,651.4624441409978,651.4624441409978,651.4624441409978,651.4624441409978,651.4624441409978,651.4624441409978,651.7300598750007,651.7300598750007,653.0580991280003,653.0580991280003,653.097538490998,653.097538490998,653.097538490998,653.097538490998,653.097538490998,653.097538490998,653.097538490998,653.097538490998,653.097538490998,653.097538490998,653.097538490998,653.097538490998,653.097538490998,653.097538490998,653.097538490998,655.5970801740041,655.5970801740041,655.5970801740041,655.5970801740041,655.5970801740041,63,74,55,33,74,77,6.0,0.8368067929986864,656.4461240660021,658.1417379330087,,,,,,,,,154,f,18,2023-04-05_11h10.32.460,RL,2022.2.4,60.00185033948497,
1,75,0,75,0,,,,,,,,,,q,729.3940174540039,729.3940174540039,729.3940174540039,729.3940174540039,729.3940174540039,729.3940174540039,f,0.9767623560037464,730.4205579380068,730.4205579380068,730.4205579380068,730.4205579380068,730.4205579380068,730.4205579380068,730.6970962839987,730.6970962839987,732.173129732997,732.173129732997,732.2128169210046,732.2128169210046,732.2128169210046,732.2128169210046,732.2128169210046,732.2128169210046,732.2128169210046,732.2128169210046,732.2128169210046,732.2128169210046,732.2128169210046,732.2128169210046,732.2128169210046,732.2128169210046,732.2128169210046,734.716577182,734.716577182,734.716577182,734.716577182,734.716577182,51,83,49,39,83,42,7.0,0.48746257700258866,735.2160302139964,736.8298642949958,658.1417379330087,658.1417379330087,71.22719346599479,,,,,,154,f,18,2023-04-05_11h10.32.460,RL,2022.2.4,60.00185033948497,
1,76,0,76,0,,,,,,,,,,None,736.8298642949958,736.8298642949958,736.8298642949958,736.8298642949958,736.8298642949958,736.8298642949958,f,0.71832601200731,737.5855170959985,737.5855170959985,737.5855170959985,737.5855170959985,737.5855170959985,737.5855170959985,737.8570268869953,737.8570268869953,739.0092662899988,739.0092662899988,739.0329519619991,739.0329519619991,739.0329519619991,739.0329519619991,739.0329519619991,739.0329519619991,739.0329519619991,739.0329519619991,739.0329519619991,739.0329519619991,739.0329519619991,739.0329519619991,739.0329519619991,739.0329519619991,739.0329519619991,741.5314110850013,741.5314110850013,741.5314110850013,741.5314110850013,741.5314110850013,48,76,59,26,76,65,7.0,0.7879479459952563,742.3318451789964,743.9846968380007,,,,,,,,,154,f,18,2023-04-05_11h10.32.460,RL,2022.2.4,60.00185033948497,
1,77,0,77,0,,,,,,,,,,None,743.9846968380007,743.9846968380007,743.9846968380007,743.9846968380007,743.9846968380007,743.9846968380007,f,0.31546703400090337,744.3391071710066,744.3391071710066,744.3391071710066,744.3391071710066,744.3391071710066,744.3391071710066,744.6080116000085,744.6080116000085,746.1610777809983,746.1610777809983,746.2003565240011,746.2003565240011,746.2003565240011,746.2003565240011,746.2003565240011,746.2003565240011,746.2003565240011,746.2003565240011,746.2003565240011,746.2003565240011,746.2003565240011,746.2003565240011,746.2003565240011,746.2003565240011,746.2003565240011,748.7064833629993,748.7064833629993,748.7064833629993,748.7064833629993,748.7064833629993,49,85,54,29,85,34,7.0,0.658039980000467,749.3786651120026,750.9872975540056,,,,,,,,,154,f,18,2023-04-05_11h10.32.460,RL,2022.2.4,60.00185033948497,
1,78,0,78,0,,,,,,,,,,None,750.9872975540056,750.9872975540056,750.9872975540056,750.9872975540056,750.9872975540056,750.9872975540056,f,0.4666404409945244,751.4908933900006,751.4908933900006,751.4908933900006,751.4908933900006,751.4908933900006,751.4908933900006,751.7622179879982,751.7622179879982,753.1935065849975,753.1935065849975,753.2341336009995,753.2341336009995,753.2341336009995,753.2341336009995,753.2341336009995,753.2341336009995,753.2341336009995,753.2341336009995,753.2341336009995,753.2341336009995,753.2341336009995,753.2341336009995,753.2341336009995,753.2341336009995,753.2341336009995,755.7383580739988,755.7383580739988,755.7383580739988,755.7383580739988,755.7383580739988,47,82,49,25,82,66,7.0,0.8753565910010366,756.6268804120045,758.5412374839943,,,,,,,,,154,f,18,2023-04-05_11h10.32.460,RL,2022.2.4,60.00185033948497,
1,79,0,79,0,,,,,,,,,,None,758.5412374839943,758.5412374839943,758.5412374839943,758.5412374839943,758.5412374839943,758.5412374839943,r,0.34143282800505403,758.9325911680062,758.9325911680062,758.9325911680062,758.9325911680062,758.9325911680062,758.9325911680062,759.2155146690056,759.2155146690056,760.0433836650045,760.0433836650045,760.0677444580069,760.0677444580069,760.0677444580069,760.0677444580069,760.0677444580069,760.0677444580069,760.0677444580069,760.0677444580069,760.0677444580069,760.0677444580069,760.0677444580069,760.0677444580069,760.0677444580069,760.0677444580069,760.0677444580069,762.5683802779968,762.5683802779968,762.5683802779968,762.5683802779968,762.5683802779968,46,74,48,31,46,32,4.0,0.8516143579909112,763.4321899740025,765.0952937230031,,,,,,,,,154,f,18,2023-04-05_11h10.32.460,RL,2022.2.4,60.00185033948497,
1,80,0,80,0,,,,,,,,,,None,765.0952937230031,765.0952937230031,765.0952937230031,765.0952937230031,765.0952937230031,765.0952937230031,i,0.7778389480081387,765.9201780739968,765.9201780739968,765.9201780739968,765.9201780739968,765.9201780739968,765.9201780739968,766.2015007269947,766.2015007269947,767.988930477004,767.988930477004,768.0120826439961,768.0120826439961,768.0120826439961,768.0120826439961,768.0120826439961,768.0120826439961,768.0120826439961,768.0120826439961,768.0120826439961,768.0120826439961,768.0120826439961,768.0120826439961,768.0120826439961,768.0120826439961,768.0120826439961,770.5234674060048,770.5234674060048,770.5234674060048,770.5234674060048,770.5234674060048,46,74,54,24,54,36,5.0,1.8117552000039723,772.3491378269973,773.8818600660015,,,,,,,,,154,f,18,2023-04-05_11h10.32.460,RL,2022.2.4,60.00185033948497,
1,81,0,81,0,,,,,,,,,,None,773.8818600660015,773.8818600660015,773.8818600660015,773.8818600660015,773.8818600660015,773.8818600660015,j,0.3832512869994389,774.3013541139953,774.3013541139953,774.3013541139953,774.3013541139953,774.3013541139953,774.3013541139953,774.5707999440056,774.5707999440056,775.4820594199991,775.4820594199991,775.5015489859943,775.5015489859943,775.5015489859943,775.5015489859943,775.5015489859943,775.5015489859943,775.5015489859943,775.5015489859943,775.5015489859943,775.5015489859943,775.5015489859943,775.5015489859943,775.5015489859943,775.5015489859943,775.5015489859943,778.0087552600016,778.0087552600016,778.0087552600016,778.0087552600016,778.0087552600016,54,70,57,30,30,47,2.0,1.1289434390055249,779.1527351630066,781.1006984639971,,,,,,,,,154,f,18,2023-04-05_11h10.32.460,RL,2022.2.4,60.00185033948497,
1,82,0,82,0,,,,,,,,,,None,781.1006984639971,781.1006984639971,781.1006984639971,781.1006984639971,781.1006984639971,781.1006984639971,f,0.2887938860076247,781.4376226099994,781.4376226099994,781.4376226099994,781.4376226099994,781.4376226099994,781.4376226099994,781.7083203130023,781.7083203130023,783.2134854120086,783.2134854120086,783.2510250339983,783.2510250339983,783.2510250339983,783.2510250339983,783.2510250339983,783.2510250339983,783.2510250339983,783.2510250339983,783.2510250339983,783.2510250339983,783.2510250339983,783.2510250339983,783.2510250339983,783.2510250339983,783.2510250339983,785.7559741400037,785.7559741400037,785.7559741400037,785.7559741400037,785.7559741400037,53,67,59,32,67,62,5.0,1.2408101050095866,787.0086764169973,788.9724365650036,,,,,,,,,154,f,18,2023-04-05_11h10.32.460,RL,2022.2.4,60.00185033948497,
1,83,0,83,0,,,,,,,,,,None,788.9724365650036,788.9724365650036,788.9724365650036,788.9724365650036,788.9724365650036,788.9724365650036,f,0.3247692049917532,789.3425163530046,789.3425163530046,789.3425163530046,789.3425163530046,789.3425163530046,789.3425163530046,789.6111842190003,789.6111842190003,790.8520673150051,790.8520673150051,790.891984685004,790.891984685004,790.891984685004,790.891984685004,790.891984685004,790.891984685004,790.891984685004,790.891984685004,790.891984685004,790.891984685004,790.891984685004,790.891984685004,790.891984685004,790.891984685004,790.891984685004,793.4002115140029,793.4002115140029,793.4002115140029,793.4002115140029,793.4002115140029,44,67,59,15,67,32,5.0,0.9991677290090593,794.4126493229996,795.975562756008,,,,,,,,,154,f,18,2023-04-05_11h10.32.460,RL,2022.2.4,60.00185033948497,
1,84,0,84,0,,,,,,,,,,None,795.975562756008,795.975562756008,795.975562756008,795.975562756008,795.975562756008,795.975562756008,f,0.4078509350074455,796.4332990999974,796.4332990999974,796.4332990999974,796.4332990999974,796.4332990999974,796.4332990999974,796.7004054340068,796.7004054340068,798.0364502180018,798.0364502180018,798.0758312770049,798.0758312770049,798.0758312770049,798.0758312770049,798.0758312770049,798.0758312770049,798.0758312770049,798.0758312770049,798.0758312770049,798.0758312770049,798.0758312770049,798.0758312770049,798.0758312770049,798.0758312770049,798.0758312770049,800.5765344810061,800.5765344810061,800.5765344810061,800.5765344810061,800.5765344810061,53,74,56,30,74,45,6.0,1.0925515319977421,801.6813808190054,803.3289451839955,,,,,,,,,154,f,18,2023-04-05_11h10.32.460,RL,2022.2.4,60.00185033948497,
1,85,0,85,0,,,,,,,,,,None,803.3289451839955,803.3289451839955,803.3289451839955,803.3289451839955,803.3289451839955,803.3289451839955,f,0.5116587299999082,803.8868002020026,803.8868002020026,803.8868002020026,803.8868002020026,803.8868002020026,803.8868002020026,804.1547381779965,804.1547381779965,806.0392096139985,806.0392096139985,806.0797824350011,806.0797824350011,806.0797824350011,806.0797824350011,806.0797824350011,806.0797824350011,806.0797824350011,806.0797824350011,806.0797824350011,806.0797824350011,806.0797824350011,806.0797824350011,806.0797824350011,806.0797824350011,806.0797824350011,808.5904244319972,808.5904244319972,808.5904244319972,808.5904244319972,808.5904244319972,49,68,47,27,68,51,5.0,0.7346648429956986,809.337714637004,811.1499269449996,,,,,,,,,154,f,18,2023-04-05_11h10.32.460,RL,2022.2.4,60.00185033948497,
1,86,0,86,0,,,,,,,,,,None,811.1499269449996,811.1499269449996,811.1499269449996,811.1499269449996,811.1499269449996,811.1499269449996,f,0.4098444879928138,811.6072378440003,811.6072378440003,811.6072378440003,811.6072378440003,811.6072378440003,811.6072378440003,811.8887445050059,811.8887445050059,813.4063642270048,813.4063642270048,813.4295572249976,813.4295572249976,813.4295572249976,813.4295572249976,813.4295572249976,813.4295572249976,813.4295572249976,813.4295572249976,813.4295572249976,813.4295572249976,813.4295572249976,813.4295572249976,813.4295572249976,813.4295572249976,813.4295572249976,815.9367624300066,815.9367624300066,815.9367624300066,815.9367624300066,815.9367624300066,47,79,54,37,79,53,6.0,1.4721778020029888,817.4218326669943,818.9362282259972,,,,,,,,,154,f,18,2023-04-05_11h10.32.460,RL,2022.2.4,60.00185033948497,
1,87,0,87,0,,,,,,,,,,None,818.9362282259972,818.9362282259972,818.9362282259972,818.9362282259972,818.9362282259972,818.9362282259972,f,0.35945559400715865,819.3390672200039,819.3390672200039,819.3390672200039,819.3390672200039,819.3390672200039,819.3390672200039,819.608477953996,819.608477953996,821.1493378589948,821.1493378589948,821.1873641569982,821.1873641569982,821.1873641569982,821.1873641569982,821.1873641569982,821.1873641569982,821.1873641569982,821.1873641569982,821.1873641569982,821.1873641569982,821.1873641569982,821.1873641569982,821.1873641569982,821.1873641569982,821.1873641569982,823.6935298610042,823.6935298610042,823.6935298610042,823.6935298610042,823.6935298610042,49,78,50,31,78,59,6.0,1.22795037200558,824.936749297005,826.7901461620058,,,,,,,,,154,f,18,2023-04-05_11h10.32.460,RL,2022.2.4,60.00185033948497,
1,88,0,88,0,,,,,,,,,,None,826.7901461620058,826.7901461620058,826.7901461620058,826.7901461620058,826.7901461620058,826.7901461620058,f,0.8867301039863378,827.7138254260062,827.7138254260062,827.7138254260062,827.7138254260062,827.7138254260062,827.7138254260062,827.9798955790029,827.9798955790029,829.8679960919981,829.8679960919981,829.9079833190044,829.9079833190044,829.9079833190044,829.9079833190044,829.9079833190044,829.9079833190044,829.9079833190044,829.9079833190044,829.9079833190044,829.9079833190044,829.9079833190044,829.9079833190044,829.9079833190044,829.9079833190044,829.9079833190044,832.4147728280077,832.4147728280077,832.4147728280077,832.4147728280077,832.4147728280077,43,65,47,28,65,64,5.0,1.3062828950060066,833.7316200110072,835.627342406995,,,,,,,,,154,f,18,2023-04-05_11h10.32.460,RL,2022.2.4,60.00185033948497,
1,89,0,89,0,,,,,,,,,,None,835.627342406995,835.627342406995,835.627342406995,835.627342406995,835.627342406995,835.627342406995,f,0.37701601699518505,836.0432606620016,836.0432606620016,836.0432606620016,836.0432606620016,836.0432606620016,836.0432606620016,836.3173679269967,836.3173679269967,837.8550794930052,837.8550794930052,837.8946163539949,837.8946163539949,837.8946163539949,837.8946163539949,837.8946163539949,837.8946163539949,837.8946163539949,837.8946163539949,837.8946163539949,837.8946163539949,837.8946163539949,837.8946163539949,837.8946163539949,837.8946163539949,837.8946163539949,840.3906567460072,840.3906567460072,840.3906567460072,840.3906567460072,840.3906567460072,45,78,47,28,78,53,6.0,1.0500423449993832,841.4524694470019,843.1811005240015,,,,,,,,,154,f,18,2023-04-05_11h10.32.460,RL,2022.2.4,60.00185033948497,
1,90,0,90,0,,,,,,,,,,None,843.1811005240015,843.1811005240015,843.1811005240015,843.1811005240015,843.1811005240015,843.1811005240015,r,0.4398878760111984,843.6686853209976,843.6686853209976,843.6686853209976,843.6686853209976,843.6686853209976,843.6686853209976,843.938354236001,843.938354236001,844.9837160500028,844.9837160500028,845.0245168480033,845.0245168480033,845.0245168480033,845.0245168480033,845.0245168480033,845.0245168480033,845.0245168480033,845.0245168480033,845.0245168480033,845.0245168480033,845.0245168480033,845.0245168480033,845.0245168480033,845.0245168480033,845.0245168480033,847.5260074889957,847.5260074889957,847.5260074889957,847.5260074889957,847.5260074889957,48,72,48,30,48,41,4.0,0.8178458250040421,848.3547971259977,850.3353470379952,,,,,,,,,154,f,18,2023-04-05_11h10.32.460,RL,2022.2.4,60.00185033948497,
1,91,0,91,0,,,,,,,,,,None,850.3353470379952,850.3353470379952,850.3353470379952,850.3353470379952,850.3353470379952,850.3353470379952,f,0.4727656220056815,850.8557346409943,850.8557346409943,850.8557346409943,850.8557346409943,850.8557346409943,850.8557346409943,851.1245854239969,851.1245854239969,851.9759321409947,851.9759321409947,852.0134111810039,852.0134111810039,852.0134111810039,852.0134111810039,852.0134111810039,852.0134111810039,852.0134111810039,852.0134111810039,852.0134111810039,852.0134111810039,852.0134111810039,852.0134111810039,852.0134111810039,852.0134111810039,852.0134111810039,854.512149903996,854.512149903996,854.512149903996,854.512149903996,854.512149903996,45,69,51,36,69,29,6.0,0.9018170769995777,855.4265473889973,857.4040411830065,,,,,,,,,154,f,18,2023-04-05_11h10.32.460,RL,2022.2.4,60.00185033948497,
1,92,0,92,0,,,,,,,,,,None,857.4040411830065,857.4040411830065,857.4040411830065,857.4040411830065,857.4040411830065,857.4040411830065,f,0.3885107789974427,857.8410461729945,857.8410461729945,857.8410461729945,857.8410461729945,857.8410461729945,857.8410461729945,858.1104595299985,858.1104595299985,859.5231618779944,859.5231618779944,859.5429930499959,859.5429930499959,859.5429930499959,859.5429930499959,859.5429930499959,859.5429930499959,859.5429930499959,859.5429930499959,859.5429930499959,859.5429930499959,859.5429930499959,859.5429930499959,859.5429930499959,859.5429930499959,859.5429930499959,862.0600891310023,862.0600891310023,862.0600891310023,862.0600891310023,862.0600891310023,42,70,54,43,70,57,6.0,1.1258731560083106,863.1984983059956,864.7580934410071,,,,,,,,,154,f,18,2023-04-05_11h10.32.460,RL,2022.2.4,60.00185033948497,
1,93,0,93,0,,,,,,,,,,None,864.7580934410071,864.7580934410071,864.7580934410071,864.7580934410071,864.7580934410071,864.7580934410071,f,0.31515244900947437,865.1261654779955,865.1261654779955,865.1261654779955,865.1261654779955,865.1261654779955,865.1261654779955,865.3970264640084,865.3970264640084,867.2343845699943,867.2343845699943,867.2573560029996,867.2573560029996,867.2573560029996,867.2573560029996,867.2573560029996,867.2573560029996,867.2573560029996,867.2573560029996,867.2573560029996,867.2573560029996,867.2573560029996,867.2573560029996,867.2573560029996,867.2573560029996,867.2573560029996,869.7558265740081,869.7558265740081,869.7558265740081,869.7558265740081,869.7558265740081,54,75,56,35,75,56,5.0,0.7452538140059914,870.5144364360021,872.3118408510054,,,,,,,,,154,f,18,2023-04-05_11h10.32.460,RL,2022.2.4,60.00185033948497,
1,94,0,94,0,,,,,,,,,,None,872.3118408510054,872.3118408510054,872.3118408510054,872.3118408510054,872.3118408510054,872.3118408510054,f,0.6878896319976775,873.0473630530032,873.0473630530032,873.0473630530032,873.0473630530032,873.0473630530032,873.0473630530032,873.3181892249995,873.3181892249995,875.2603818780044,875.2603818780044,875.3018572449946,875.3018572449946,875.3018572449946,875.3018572449946,875.3018572449946,875.3018572449946,875.3018572449946,875.3018572449946,875.3018572449946,875.3018572449946,875.3018572449946,875.3018572449946,875.3018572449946,875.3018572449946,875.3018572449946,877.8007717389992,877.8007717389992,877.8007717389992,877.8007717389992,877.8007717389992,57,68,51,37,68,59,6.0,0.8555682419973891,878.6695771850063,880.4324344070046,,,,,,,,,154,f,18,2023-04-05_11h10.32.460,RL,2022.2.4,60.00185033948497,
1,95,0,95,0,,,,,,,,,,None,880.4324344070046,880.4324344070046,880.4324344070046,880.4324344070046,880.4324344070046,880.4324344070046,f,0.3281270269944798,880.8076400550053,880.8076400550053,880.8076400550053,880.8076400550053,880.8076400550053,880.8076400550053,881.0898294240033,881.0898294240033,882.6243159699952,882.6243159699952,882.6490757840074,882.6490757840074,882.6490757840074,882.6490757840074,882.6490757840074,882.6490757840074,882.6490757840074,882.6490757840074,882.6490757840074,882.6490757840074,882.6490757840074,882.6490757840074,882.6490757840074,882.6490757840074,882.6490757840074,885.1534271029959,885.1534271029959,885.1534271029959,885.1534271029959,885.1534271029959,58,70,46,26,70,39,6.0,0.9238029690022813,886.090123877002,887.9692941190006,,,,,,,,,154,f,18,2023-04-05_11h10.32.460,RL,2022.2.4,60.00185033948497,
1,96,0,96,0,,,,,,,,,,None,887.9692941190006,887.9692941190006,887.9692941190006,887.9692941190006,887.9692941190006,887.9692941190006,f,0.3527871209953446,888.3592053559987,888.3592053559987,888.3592053559987,888.3592053559987,888.3592053559987,888.3592053559987,888.6280015179946,888.6280015179946,889.9709443049942,889.9709443049942,889.9954212370067,889.9954212370067,889.9954212370067,889.9954212370067,889.9954212370067,889.9954212370067,889.9954212370067,889.9954212370067,889.9954212370067,889.9954212370067,889.9954212370067,889.9954212370067,889.9954212370067,889.9954212370067,889.9954212370067,892.490865875996,892.490865875996,892.490865875996,892.490865875996,892.490865875996,59,71,51,24,71,59,6.0,0.6230009040009463,893.1255666090001,894.905761358008,,,,,,,,,154,f,18,2023-04-05_11h10.32.460,RL,2022.2.4,60.00185033948497,
1,97,0,97,0,,,,,,,,,,None,894.905761358008,894.905761358008,894.905761358008,894.905761358008,894.905761358008,894.905761358008,f,1.0872729380062083,896.0290763350058,896.0290763350058,896.0290763350058,896.0290763350058,896.0290763350058,896.0290763350058,896.2978047560027,896.2978047560027,897.7951045299997,897.7951045299997,897.8190432270057,897.8190432270057,897.8190432270057,897.8190432270057,897.8190432270057,897.8190432270057,897.8190432270057,897.8190432270057,897.8190432270057,897.8190432270057,897.8190432270057,897.8190432270057,897.8190432270057,897.8190432270057,897.8190432270057,900.3268118380074,900.3268118380074,900.3268118380074,900.3268118380074,900.3268118380074,56,69,54,16,69,60,6.0,0.9568161079951096,901.2980610320083,902.8094554660056,,,,,,,,,154,f,18,2023-04-05_11h10.32.460,RL,2022.2.4,60.00185033948497,
1,98,0,98,0,,,,,,,,,,None,902.8094554660056,902.8094554660056,902.8094554660056,902.8094554660056,902.8094554660056,902.8094554660056,f,0.5186773790046573,903.3645701850037,903.3645701850037,903.3645701850037,903.3645701850037,903.3645701850037,903.3645701850037,903.6487089050061,903.6487089050061,904.5849279670074,904.5849279670074,904.6064927819971,904.6064927819971,904.6064927819971,904.6064927819971,904.6064927819971,904.6064927819971,904.6064927819971,904.6064927819971,904.6064927819971,904.6064927819971,904.6064927819971,904.6064927819971,904.6064927819971,904.6064927819971,904.6064927819971,907.1132081670075,907.1132081670075,907.1132081670075,907.1132081670075,907.1132081670075,56,78,56,31,78,61,6.0,0.7749472139985301,907.8987924740068,909.5797255590005,,,,,,,,,154,f,18,2023-04-05_11h10.32.460,RL,2022.2.4,60.00185033948497,
1,99,0,99,0,,,,,,,,,,None,909.5797255590005,909.5797255590005,909.5797255590005,909.5797255590005,909.5797255590005,909.5797255590005,f,0.34817172000475693,909.9798330890044,909.9798330890044,909.9798330890044,909.9798330890044,909.9798330890044,909.9798330890044,910.251920944007,910.251920944007,911.8691881450068,911.8691881450068,911.9086196700082,911.9086196700082,911.9086196700082,911.9086196700082,911.9086196700082,911.9086196700082,911.9086196700082,911.9086196700082,911.9086196700082,911.9086196700082,911.9086196700082,911.9086196700082,911.9086196700082,911.9086196700082,911.9086196700082,914.4213610070001,914.4213610070001,914.4213610070001,914.4213610070001,914.4213610070001,54,75,53,34,75,43,6.0,0.5511916029936401,914.9858965750027,916.4994277240039,,,,,,,,,154,f,18,2023-04-05_11h10.32.460,RL,2022.2.4,60.00185033948497,
1,100,0,100,0,,,,,,,,,,None,916.4994277240039,916.4994277240039,916.4994277240039,916.4994277240039,916.4994277240039,916.4994277240039,f,0.4412432359968079,916.9828654180019,916.9828654180019,916.9828654180019,916.9828654180019,916.9828654180019,916.9828654180019,917.2545012619958,917.2545012619958,918.642102288999,918.642102288999,918.6651485900074,918.6651485900074,918.6651485900074,918.6651485900074,918.6651485900074,918.6651485900074,918.6651485900074,918.6651485900074,918.6651485900074,918.6651485900074,918.6651485900074,918.6651485900074,918.6651485900074,918.6651485900074,918.6651485900074,921.1724759530043,921.1724759530043,921.1724759530043,921.1724759530043,921.1724759530043,48,68,60,34,68,49,5.0,1.2401078680122737,922.4259657829971,924.2861536620039,,,,,,,,,154,f,18,2023-04-05_11h10.32.460,RL,2022.2.4,60.00185033948497,
1,101,0,101,0,,,,,,,,,,None,924.2861536620039,924.2861536620039,924.2861536620039,924.2861536620039,924.2861536620039,924.2861536620039,f,0.9681545210041804,925.3052705989976,925.3052705989976,925.3052705989976,925.3052705989976,925.3052705989976,925.3052705989976,925.5759957389964,925.5759957389964,927.4892455000081,927.4892455000081,927.5309895060054,927.5309895060054,927.5309895060054,927.5309895060054,927.5309895060054,927.5309895060054,927.5309895060054,927.5309895060054,927.5309895060054,927.5309895060054,927.5309895060054,927.5309895060054,927.5309895060054,927.5309895060054,927.5309895060054,930.0313587300043,930.0313587300043,930.0313587300043,930.0313587300043,930.0313587300043,48,74,65,32,74,52,6.0,0.7667013309983304,930.8130263549974,932.507187879004,,,,,,,,,154,f,18,2023-04-05_11h10.32.460,RL,2022.2.4,60.00185033948497,
1,102,0,102,0,,,,,,,,,,None,932.507187879004,932.507187879004,932.507187879004,932.507187879004,932.507187879004,932.507187879004,i,0.3334840500028804,932.8927096630068,932.8927096630068,932.8927096630068,932.8927096630068,932.8927096630068,932.8927096630068,933.1752692250011,933.1752692250011,934.0345568259945,934.0345568259945,934.058129527999,934.058129527999,934.058129527999,934.058129527999,934.058129527999,934.058129527999,934.058129527999,934.058129527999,934.058129527999,934.058129527999,934.058129527999,934.058129527999,934.058129527999,934.058129527999,934.058129527999,936.5581883289997,936.5581883289997,936.5581883289997,936.5581883289997,936.5581883289997,38,81,60,40,60,59,5.0,0.7257775589969242,937.2996685399994,938.8432477470051,,,,,,,,,154,f,18,2023-04-05_11h10.32.460,RL,2022.2.4,60.00185033948497,
1,103,0,103,0,,,,,,,,,,None,938.8432477470051,938.8432477470051,938.8432477470051,938.8432477470051,938.8432477470051,938.8432477470051,j,0.6280596230062656,939.5172902930062,939.5172902930062,939.5172902930062,939.5172902930062,939.5172902930062,939.5172902930062,939.790045650996,939.790045650996,941.1875217220077,941.1875217220077,941.2105613070016,941.2105613070016,941.2105613070016,941.2105613070016,941.2105613070016,941.2105613070016,941.2105613070016,941.2105613070016,941.2105613070016,941.2105613070016,941.2105613070016,941.2105613070016,941.2105613070016,941.2105613070016,941.2105613070016,943.7149699989968,943.7149699989968,943.7149699989968,943.7149699989968,943.7149699989968,42,76,57,40,40,45,3.0,0.857180453996989,944.584467349996,946.2469503080065,,,,,,,,,154,f,18,2023-04-05_11h10.32.460,RL,2022.2.4,60.00185033948497,
1,104,0,104,0,,,,,,,,,,None,946.2469503080065,946.2469503080065,946.2469503080065,946.2469503080065,946.2469503080065,946.2469503080065,r,0.32399743401037995,946.6142323859967,946.6142323859967,946.6142323859967,946.6142323859967,946.6142323859967,946.6142323859967,946.8866244910023,946.8866244910023,948.7814279169979,948.7814279169979,948.8024991790007,948.8024991790007,948.8024991790007,948.8024991790007,948.8024991790007,948.8024991790007,948.8024991790007,948.8024991790007,948.8024991790007,948.8024991790007,948.8024991790007,948.8024991790007,948.8024991790007,948.8024991790007,948.8024991790007,951.3017397689982,951.3017397689982,951.3017397689982,951.3017397689982,951.3017397689982,36,77,65,46,36,73,2.0,1.049235904996749,952.3661647919944,953.9335575110017,,,,,,,,,154,f,18,2023-04-05_11h10.32.460,RL,2022.2.4,60.00185033948497,
1,105,0,105,0,,,,,,,,,,None,953.9335575110017,953.9335575110017,953.9335575110017,953.9335575110017,953.9335575110017,953.9335575110017,i,0.347571442995104,954.3207920389978,954.3207920389978,954.3207920389978,954.3207920389978,954.3207920389978,954.3207920389978,954.5906929979974,954.5906929979974,956.0931326989958,956.0931326989958,956.1295775619947,956.1295775619947,956.1295775619947,956.1295775619947,956.1295775619947,956.1295775619947,956.1295775619947,956.1295775619947,956.1295775619947,956.1295775619947,956.1295775619947,956.1295775619947,956.1295775619947,956.1295775619947,956.1295775619947,958.6387736949982,958.6387736949982,958.6387736949982,958.6387736949982,958.6387736949982,42,66,56,45,56,49,5.0,0.8243686509958934,959.4742431750055,960.9844218960061,,,,,,,,,154,f,18,2023-04-05_11h10.32.460,RL,2022.2.4,60.00185033948497,
1,106,0,106,0,,,,,,,,,,None,960.9844218960061,960.9844218960061,960.9844218960061,960.9844218960061,960.9844218960061,960.9844218960061,i,0.3842947719967924,961.4209284600074,961.4209284600074,961.4209284600074,961.4209284600074,961.4209284600074,961.4209284600074,961.6919617590029,961.6919617590029,963.2965400490066,963.2965400490066,963.3365629390028,963.3365629390028,963.3365629390028,963.3365629390028,963.3365629390028,963.3365629390028,963.3365629390028,963.3365629390028,963.3365629390028,963.3365629390028,963.3365629390028,963.3365629390028,963.3365629390028,963.3365629390028,963.3365629390028,965.8442673069949,965.8442673069949,965.8442673069949,965.8442673069949,965.8442673069949,43,67,43,47,43,83,2.0,0.8069929189950926,966.6622192439972,968.6249128430063,,,,,,,,,154,f,18,2023-04-05_11h10.32.460,RL,2022.2.4,60.00185033948497,
1,107,0,107,0,,,,,,,,,,None,968.6249128430063,968.6249128430063,968.6249128430063,968.6249128430063,968.6249128430063,968.6249128430063,f,0.3973678670008667,969.0630945070006,969.0630945070006,969.0630945070006,969.0630945070006,969.0630945070006,969.0630945070006,969.3301575500082,969.3301575500082,970.8931969240075,970.8931969240075,970.933951376006,970.933951376006,970.933951376006,970.933951376006,970.933951376006,970.933951376006,970.933951376006,970.933951376006,970.933951376006,970.933951376006,970.933951376006,970.933951376006,970.933951376006,970.933951376006,970.933951376006,973.4427581040072,973.4427581040072,973.4427581040072,973.4427581040072,973.4427581040072,39,73,46,52,73,73,5.0,0.8583658340066904,974.3161364980042,976.2438144799962,,,,,,,,,154,f,18,2023-04-05_11h10.32.460,RL,2022.2.4,60.00185033948497,
1,108,0,108,0,,,,,,,,,,None,976.2438144799962,976.2438144799962,976.2438144799962,976.2438144799962,976.2438144799962,976.2438144799962,f,0.339918117999332,976.6354114550049,976.6354114550049,976.6354114550049,976.6354114550049,976.6354114550049,976.6354114550049,976.9163266620017,976.9163266620017,978.6241878889996,978.6241878889996,978.6473604769999,978.6473604769999,978.6473604769999,978.6473604769999,978.6473604769999,978.6473604769999,978.6473604769999,978.6473604769999,978.6473604769999,978.6473604769999,978.6473604769999,978.6473604769999,978.6473604769999,978.6473604769999,978.6473604769999,981.1516968789947,981.1516968789947,981.1516968789947,981.1516968789947,981.1516968789947,46,72,59,47,72,70,5.0,1.33156023400079,982.4972767569998,984.1979368299944,,,,,,,,,154,f,18,2023-04-05_11h10.32.460,RL,2022.2.4,60.00185033948497,
1,109,0,109,0,,,,,,,,,,None,984.1979368299944,984.1979368299944,984.1979368299944,984.1979368299944,984.1979368299944,984.1979368299944,f,0.521436729002744,984.7700188470044,984.7700188470044,984.7700188470044,984.7700188470044,984.7700188470044,984.7700188470044,985.0430005160015,985.0430005160015,986.7093056960002,986.7093056960002,986.7470802870084,986.7470802870084,986.7470802870084,986.7470802870084,986.7470802870084,986.7470802870084,986.7470802870084,986.7470802870084,986.7470802870084,986.7470802870084,986.7470802870084,986.7470802870084,986.7470802870084,986.7470802870084,986.7470802870084,989.2546478989971,989.2546478989971,989.2546478989971,989.2546478989971,989.2546478989971,41,67,42,50,67,72,3.0,1.121683621997363,990.3895531290036,992.2687987120007,,,,,,,,,154,f,18,2023-04-05_11h10.32.460,RL,2022.2.4,60.00185033948497,
1,110,0,110,0,,,,,,,,,,None,992.2687987120007,992.2687987120007,992.2687987120007,992.2687987120007,992.2687987120007,992.2687987120007,f,0.3386456230073236,992.6600147179997,992.6600147179997,992.6600147179997,992.6600147179997,992.6600147179997,992.6600147179997,992.9310759570071,992.9310759570071,993.7916500650026,993.7916500650026,993.829659821,993.829659821,993.829659821,993.829659821,993.829659821,993.829659821,993.829659821,993.829659821,993.829659821,993.829659821,993.829659821,993.829659821,993.829659821,993.829659821,993.829659821,996.329479330001,996.329479330001,996.329479330001,996.329479330001,996.329479330001,47,60,45,44,60,69,3.0,0.8983523540082388,997.2418216890073,998.8719697040069,,,,,,,,,154,f,18,2023-04-05_11h10.32.460,RL,2022.2.4,60.00185033948497,
1,111,0,111,0,,,,,,,,,,None,998.8719697040069,998.8719697040069,998.8719697040069,998.8719697040069,998.8719697040069,998.8719697040069,f,0.3538215449952986,999.2799403210083,999.2799403210083,999.2799403210083,999.2799403210083,999.2799403210083,999.2799403210083,999.5444164740038,999.5444164740038,1001.5346137820015,1001.5346137820015,1001.5739082350046,1001.5739082350046,1001.5739082350046,1001.5739082350046,1001.5739082350046,1001.5739082350046,1001.5739082350046,1001.5739082350046,1001.5739082350046,1001.5739082350046,1001.5739082350046,1001.5739082350046,1001.5739082350046,1001.5739082350046,1001.5739082350046,1004.0741867199977,1004.0741867199977,1004.0741867199977,1004.0741867199977,1004.0741867199977,48,71,58,48,71,51,6.0,0.4734993299935013,1004.559348640003,1006.4254022469977,,,,,,,,,154,f,18,2023-04-05_11h10.32.460,RL,2022.2.4,60.00185033948497,
1,112,0,112,0,,,,,,,,,,None,1006.4254022469977,1006.4254022469977,1006.4254022469977,1006.4254022469977,1006.4254022469977,1006.4254022469977,f,1.0457064750080463,1007.5163060390041,1007.5163060390041,1007.5163060390041,1007.5163060390041,1007.5163060390041,1007.5163060390041,1007.7984181210049,1007.7984181210049,1008.7527912460064,1008.7527912460064,1008.7917602289963,1008.7917602289963,1008.7917602289963,1008.7917602289963,1008.7917602289963,1008.7917602289963,1008.7917602289963,1008.7917602289963,1008.7917602289963,1008.7917602289963,1008.7917602289963,1008.7917602289963,1008.7917602289963,1008.7917602289963,1008.7917602289963,1011.295340555007,1011.295340555007,1011.295340555007,1011.295340555007,1011.295340555007,53,61,46,43,61,45,5.0,0.8229211580037372,1012.131258569003,1013.7626696600055,,,,,,,,,154,f,18,2023-04-05_11h10.32.460,RL,2022.2.4,60.00185033948497,
1,113,0,113,0,,,,,,,,,,None,1013.7626696600055,1013.7626696600055,1013.7626696600055,1013.7626696600055,1013.7626696600055,1013.7626696600055,i,0.503061142997467,1014.314751095997,1014.314751095997,1014.314751095997,1014.314751095997,1014.314751095997,1014.314751095997,1014.590525312,1014.590525312,1016.0217655980086,1016.0217655980086,1016.0456909700006,1016.0456909700006,1016.0456909700006,1016.0456909700006,1016.0456909700006,1016.0456909700006,1016.0456909700006,1016.0456909700006,1016.0456909700006,1016.0456909700006,1016.0456909700006,1016.0456909700006,1016.0456909700006,1016.0456909700006,1016.0456909700006,1018.5465307389968,1018.5465307389968,1018.5465307389968,1018.5465307389968,1018.5465307389968,52,68,53,41,53,74,2.0,0.9975965969933895,1019.5559785299993,1021.4826426549989,,,,,,,,,154,f,18,2023-04-05_11h10.32.460,RL,2022.2.4,60.00185033948497,
1,114,0,114,0,,,,,,,,,,None,1021.4826426549989,1021.4826426549989,1021.4826426549989,1021.4826426549989,1021.4826426549989,1021.4826426549989,None,,,,,,,,,,,,,,,,,,,,,,,,,,,,,,,,49,67,47,35,0,**,None,None,1027.516356320004,1029.2193361329992,,,,1023.0109623309982,1027.516356320004,,,,154,f,18,2023-04-05_11h10.32.460,RL,2022.2.4,60.00185033948497,
1,115,0,115,0,,,,,,,,,,None,1029.2193361329992,1029.2193361329992,1029.2193361329992,1029.2193361329992,1029.2193361329992,1029.2193361329992,f,0.30257705999247264,1029.5560731110018,1029.5560731110018,1029.5560731110018,1029.5560731110018,1029.5560731110018,1029.5560731110018,1029.8253670620034,1029.8253670620034,1031.5927637550049,1031.5927637550049,1031.6311657019978,1031.6311657019978,1031.6311657019978,1031.6311657019978,1031.6311657019978,1031.6311657019978,1031.6311657019978,1031.6311657019978,1031.6311657019978,1031.6311657019978,1031.6311657019978,1031.6311657019978,1031.6311657019978,1031.6311657019978,1031.6311657019978,1034.1327846700005,1034.1327846700005,1034.1327846700005,1034.1327846700005,1034.1327846700005,53,69,55,43,69,71,3.0,0.7643868449958973,1034.9090754070057,1036.8233928940026,,,,,,,,,154,f,18,2023-04-05_11h10.32.460,RL,2022.2.4,60.00185033948497,
