bandit,trials.thisRepN,trials.thisTrialN,trials.thisN,trials.thisIndex,instru_img1.started,instru_resp.started,instru_resp.keys,instru_resp.rt,instru_img2.started,instru_resp2.started,instru_resp2.keys,instru_resp2.rt,fixbefore_2.started,rest_response.keys,red.started,green.started,yellow.started,blue.started,choose_bandit.started,Fixation.started,choose_bandit.keys,choose_bandit.rt,black.started,red_2.started,green_2.started,yellow_2.started,blue_2.started,fixation_2.started,docs.started,image_2.started,black.stopped,red_2.stopped,green_2.stopped,yellow_2.stopped,blue_2.stopped,fixation_2.stopped,docs.stopped,image_2.stopped,black_com.started,reward_sub.started,palyerb.started,reward__sub.started,compare.started,red_compare.started,green_com.started,yellow_com.started,blue_com.started,image_3.started,slider.started,text.started,image_4.started,image_5.started,rewardyellow,rewardred,rewardblue,rewardgreen,subchoose,playerb,slider.response,slider.rt,intertrialfix.started,intertrialfix.stopped,rest_image.started,rest_response.started,rest_response.rt,image.started,key_resp.started,key_resp.keys,participant,Gender,Age,date,expName,psychopyVersion,frameRate,
,,,,,21.268718500155956,21.268718500155956,space,1.2790063999127597,,,,,,,,,,,,,,,,,,,,,,,,,,,,,,,,,,,,,,,,,,,,,,,,,,,,,,,,,,,,,155,f,26,2023-04-03_14h43.39.608,RL,2022.2.4,60.01990261150946,
,,,,,,,,,22.574301900109276,22.574301900109276,y,13.951844099909067,,,,,,,,,,,,,,,,,,,,,,,,,,,,,,,,,,,,,,,,,,,,,,,,,,,,,,,,,155,f,26,2023-04-03_14h43.39.608,RL,2022.2.4,60.01990261150946,
1,0,0,0,0,,,,,,,,,36.5423859001603,None,37.561726700048894,37.561726700048894,37.561726700048894,37.561726700048894,37.561726700048894,37.561726700048894,f,0.552519200136885,38.150315300095826,38.150315300095826,38.150315300095826,38.150315300095826,38.150315300095826,38.150315300095826,38.43829970015213,38.43829970015213,39.90558030013926,39.90558030013926,39.90558030013926,39.90558030013926,39.90558030013926,39.90558030013926,39.90558030013926,39.90558030013926,39.90558030013926,39.90558030013926,39.90558030013926,39.90558030013926,39.90558030013926,39.90558030013926,39.90558030013926,39.90558030013926,39.90558030013926,42.410533300135285,42.410533300135285,42.410533300135285,42.410533300135285,42.410533300135285,49,73,47,28,73,61,6.0,1.6782947999890894,44.15083450009115,46.15027430001646,,,,,,,155,f,26,2023-04-03_14h43.39.608,RL,2022.2.4,60.01990261150946,
1,1,0,1,0,,,,,,,,,,None,46.15027430001646,46.15027430001646,46.15027430001646,46.15027430001646,46.15027430001646,46.15027430001646,j,0.8322112001478672,47.01641079992987,47.01641079992987,47.01641079992987,47.01641079992987,47.01641079992987,47.01641079992987,47.314372800057754,47.314372800057754,49.125729399966076,49.125729399966076,49.125729399966076,49.125729399966076,49.125729399966076,49.125729399966076,49.1092467000708,49.1092467000708,49.125729399966076,49.125729399966076,49.125729399966076,49.125729399966076,49.125729399966076,49.125729399966076,49.125729399966076,49.125729399966076,49.125729399966076,51.63455840013921,51.63455840013921,51.63455840013921,51.63455840013921,51.63455840013921,49,72,30,30,30,59,1.0,1.6111574999522418,53.26377740013413,54.793552400078624,,,,,,,155,f,26,2023-04-03_14h43.39.608,RL,2022.2.4,60.01990261150946,
1,2,0,2,0,,,,,,,,,,None,54.793552400078624,54.793552400078624,54.793552400078624,54.793552400078624,54.793552400078624,54.793552400078624,i,0.646433399990201,55.46032560011372,55.46032560011372,55.46032560011372,55.46032560011372,55.46032560011372,55.46032560011372,55.757658099988475,55.757658099988475,57.30316360015422,57.30316360015422,57.30316360015422,57.30316360015422,57.30316360015422,57.30316360015422,57.30316360015422,57.30316360015422,57.30316360015422,57.30316360015422,57.30316360015422,57.30316360015422,57.30316360015422,57.30316360015422,57.30316360015422,57.30316360015422,57.30316360015422,59.81244380003773,59.81244380003773,59.81244380003773,59.81244380003773,59.81244380003773,60,73,39,41,39,47,1.0,0.7968912001233548,60.627298100152984,62.55565809994005,,,,,,,155,f,26,2023-04-03_14h43.39.608,RL,2022.2.4,60.01990261150946,
1,3,0,3,0,,,,,,,,,,None,62.55565809994005,62.55565809994005,62.55565809994005,62.55565809994005,62.55565809994005,62.55565809994005,r,0.3883715998381376,62.971986500080675,62.971986500080675,62.971986500080675,62.971986500080675,62.971986500080675,62.971986500080675,63.27078040014021,63.27078040014021,64.81622779997997,64.81622779997997,64.81622779997997,64.81622779997997,64.81622779997997,64.81622779997997,64.81622779997997,64.81622779997997,64.81622779997997,64.81622779997997,64.81622779997997,64.81622779997997,64.81622779997997,64.81622779997997,64.81622779997997,64.81622779997997,64.81622779997997,67.32546090008691,67.32546090008691,67.32546090008691,67.32546090008691,67.32546090008691,54,82,34,43,54,60,4.0,1.843941300176084,69.18715210002847,70.80017760000192,,,,,,,155,f,26,2023-04-03_14h43.39.608,RL,2022.2.4,60.01990261150946,
1,4,0,4,0,,,,,,,,,,None,70.80017760000192,70.80017760000192,70.80017760000192,70.80017760000192,70.80017760000192,70.80017760000192,f,0.706555699929595,71.53314159996808,71.53314159996808,71.53314159996808,71.53314159996808,71.53314159996808,71.53314159996808,71.83073309995234,71.83073309995234,73.55892050010152,73.55892050010152,73.55892050010152,73.55892050010152,73.55892050010152,73.55892050010152,73.55892050010152,73.55892050010152,73.55892050010152,73.55892050010152,73.55892050010152,73.55892050010152,73.55892050010152,73.55892050010152,73.55892050010152,73.55892050010152,73.55892050010152,76.06806050008163,76.06806050008163,76.06806050008163,76.06806050008163,76.06806050008163,47,79,42,46,79,61,7.0,1.0795903000980616,77.16557950014248,78.76133939996362,,,,,,,155,f,26,2023-04-03_14h43.39.608,RL,2022.2.4,60.01990261150946,
1,5,0,5,0,,,,,,,,,,None,78.76133939996362,78.76133939996362,78.76133939996362,78.76133939996362,78.76133939996362,78.76133939996362,f,0.6242836001329124,79.41210910002701,79.41210910002701,79.41210910002701,79.41210910002701,79.41210910002701,79.41210910002701,79.70901819993742,79.70901819993742,81.23807610012591,81.23807610012591,81.23807610012591,81.23807610012591,81.23807610012591,81.23807610012591,81.23807610012591,81.23807610012591,81.23807610012591,81.23807610012591,81.23807610012591,81.23807610012591,81.23807610012591,81.23807610012591,81.23807610012591,81.23807610012591,81.23807610012591,83.7473627999425,83.7473627999425,83.7473627999425,83.7473627999425,83.7473627999425,51,80,36,41,80,55,7.0,0.6475847000256181,84.41188949998468,86.22423160006292,,,,,,,155,f,26,2023-04-03_14h43.39.608,RL,2022.2.4,60.01990261150946,
1,6,0,6,0,,,,,,,,,,None,86.22423160006292,86.22423160006292,86.22423160006292,86.22423160006292,86.22423160006292,86.22423160006292,r,0.5359366000629961,86.78988700010814,86.78988700010814,86.78988700010814,86.78988700010814,86.78988700010814,86.78988700010814,87.08869579993188,87.08869579993188,88.102940000128,88.102940000128,88.102940000128,88.102940000128,88.102940000128,88.102940000128,88.102940000128,88.102940000128,88.102940000128,88.102940000128,88.102940000128,88.102940000128,88.102940000128,88.102940000128,88.102940000128,88.102940000128,88.102940000128,90.61200490011834,90.61200490011834,90.61200490011834,90.61200490011834,90.61200490011834,49,76,32,36,49,41,6.0,1.1124880998395383,91.74209229997359,93.5045231000986,,,,,,,155,f,26,2023-04-03_14h43.39.608,RL,2022.2.4,60.01990261150946,
1,7,0,7,0,,,,,,,,,,None,93.5045231000986,93.5045231000986,93.5045231000986,93.5045231000986,93.5045231000986,93.5045231000986,f,0.46821650001220405,94.00342800002545,94.00342800002545,94.00342800002545,94.00342800002545,94.00342800002545,94.00342800002545,94.30303750000894,94.30303750000894,95.33262800006196,95.33262800006196,95.33262800006196,95.33262800006196,95.33262800006196,95.33262800006196,95.33262800006196,95.33262800006196,95.33262800006196,95.33262800006196,95.33262800006196,95.33262800006196,95.33262800006196,95.33262800006196,95.33262800006196,95.33262800006196,95.33262800006196,97.84206759999506,97.84206759999506,97.84206759999506,97.84206759999506,97.84206759999506,48,75,40,42,75,53,7.0,0.8298305999487638,98.68993730004877,100.45227689994499,,,,,,,155,f,26,2023-04-03_14h43.39.608,RL,2022.2.4,60.01990261150946,
1,8,0,8,0,,,,,,,,,,None,100.45227689994499,100.45227689994499,100.45227689994499,100.45227689994499,100.45227689994499,100.45227689994499,j,0.48438409995287657,100.96795319998637,100.96795319998637,100.96795319998637,100.96795319998637,100.96795319998637,100.96795319998637,101.2669550999999,101.2669550999999,103.1784511001315,103.1784511001315,103.1784511001315,103.1784511001315,103.1784511001315,103.1784511001315,103.16187770012766,103.16187770012766,103.1784511001315,103.1784511001315,103.1784511001315,103.1784511001315,103.1784511001315,103.1784511001315,103.1784511001315,103.1784511001315,103.1784511001315,105.68770930008031,105.68770930008031,105.68770930008031,105.68770930008031,105.68770930008031,53,75,41,41,41,59,1.0,0.7470491998828948,106.45198459993117,107.99822890013456,,,,,,,155,f,26,2023-04-03_14h43.39.608,RL,2022.2.4,60.01990261150946,
1,9,0,9,0,,,,,,,,,,None,107.99822890013456,107.99822890013456,107.99822890013456,107.99822890013456,107.99822890013456,107.99822890013456,i,0.6471196000929922,108.66544559993781,108.66544559993781,108.66544559993781,108.66544559993781,108.66544559993781,108.66544559993781,108.96245400002226,108.96245400002226,110.69104599999264,110.69104599999264,110.69104599999264,110.69104599999264,110.69104599999264,110.69104599999264,110.67450439999811,110.67450439999811,110.69104599999264,110.69104599999264,110.69104599999264,110.69104599999264,110.69104599999264,110.69104599999264,110.69104599999264,110.69104599999264,110.69104599999264,113.20001190016046,113.20001190016046,113.20001190016046,113.20001190016046,113.20001190016046,47,79,38,41,38,31,2.0,0.5642675999552011,113.78182399994694,115.44458790007047,,,,,,,155,f,26,2023-04-03_14h43.39.608,RL,2022.2.4,60.01990261150946,
1,10,0,10,0,,,,,,,,,,None,115.44458790007047,115.44458790007047,115.44458790007047,115.44458790007047,115.44458790007047,115.44458790007047,f,0.5297020000871271,115.99457400012761,115.99457400012761,115.99457400012761,115.99457400012761,115.99457400012761,115.99457400012761,116.29280379996635,116.29280379996635,117.87092150002718,117.87092150002718,117.87092150002718,117.87092150002718,117.87092150002718,117.87092150002718,117.87092150002718,117.87092150002718,117.87092150002718,117.87092150002718,117.87092150002718,117.87092150002718,117.87092150002718,117.87092150002718,117.87092150002718,117.87092150002718,117.87092150002718,120.38072789995931,120.38072789995931,120.38072789995931,120.38072789995931,120.38072789995931,58,85,38,41,85,52,7.0,1.4116742999758571,121.81021540006623,123.80528810014948,,,,,,,155,f,26,2023-04-03_14h43.39.608,RL,2022.2.4,60.01990261150946,
1,11,0,11,0,,,,,,,,,,None,123.80528810014948,123.80528810014948,123.80528810014948,123.80528810014948,123.80528810014948,123.80528810014948,r,0.4071412000339478,124.23920950014144,124.23920950014144,124.23920950014144,124.23920950014144,124.23920950014144,124.23920950014144,124.53650079993531,124.53650079993531,126.49806330003776,126.49806330003776,126.49806330003776,126.49806330003776,126.49806330003776,126.49806330003776,126.49806330003776,126.49806330003776,126.49806330003776,126.49806330003776,126.49806330003776,126.49806330003776,126.49806330003776,126.49806330003776,126.49806330003776,126.49806330003776,126.49806330003776,129.00727239996195,129.00727239996195,129.00727239996195,129.00727239996195,129.00727239996195,50,88,44,38,50,83,2.0,0.946654099971056,129.97101090010256,131.5176538999658,,,,,,,155,f,26,2023-04-03_14h43.39.608,RL,2022.2.4,60.01990261150946,
1,12,0,12,0,,,,,,,,,,None,131.5176538999658,131.5176538999658,131.5176538999658,131.5176538999658,131.5176538999658,131.5176538999658,f,0.4527834998443723,132.0016036001034,132.0016036001034,132.0016036001034,132.0016036001034,132.0016036001034,132.0016036001034,132.29864119994454,132.29864119994454,133.51195570011623,133.51195570011623,133.51195570011623,133.51195570011623,133.51195570011623,133.51195570011623,133.51195570011623,133.51195570011623,133.51195570011623,133.51195570011623,133.51195570011623,133.51195570011623,133.51195570011623,133.51195570011623,133.51195570011623,133.51195570011623,133.51195570011623,136.02132569998503,136.02132569998503,136.02132569998503,136.02132569998503,136.02132569998503,47,79,34,30,79,56,7.0,1.5614491000305861,137.6001051000785,139.2133045999799,,,,,,,155,f,26,2023-04-03_14h43.39.608,RL,2022.2.4,60.01990261150946,
1,13,0,13,0,,,,,,,,,,None,139.2133045999799,139.2133045999799,139.2133045999799,139.2133045999799,139.2133045999799,139.2133045999799,f,0.3795808998402208,139.61405800003558,139.61405800003558,139.61405800003558,139.61405800003558,139.61405800003558,139.61405800003558,139.91127889999188,139.91127889999188,141.4406473999843,141.4406473999843,141.4406473999843,141.4406473999843,141.4406473999843,141.4406473999843,141.4406473999843,141.4406473999843,141.4406473999843,141.4406473999843,141.4406473999843,141.4406473999843,141.4406473999843,141.4406473999843,141.4406473999843,141.4406473999843,141.4406473999843,143.94932240014896,143.94932240014896,143.94932240014896,143.94932240014896,143.94932240014896,39,87,41,37,87,76,7.0,0.9301902998704463,144.89698620000854,146.85881450003944,,,,,,,155,f,26,2023-04-03_14h43.39.608,RL,2022.2.4,60.01990261150946,
1,14,0,14,0,,,,,,,,,,None,146.85881450003944,146.85881450003944,146.85881450003944,146.85881450003944,146.85881450003944,146.85881450003944,f,0.3921535999979824,147.2768129000906,147.2768129000906,147.2768129000906,147.2768129000906,147.2768129000906,147.2768129000906,147.5742454000283,147.5742454000283,149.50129809998907,149.50129809998907,149.50129809998907,149.50129809998907,149.50129809998907,149.50129809998907,149.50129809998907,149.50129809998907,149.50129809998907,149.50129809998907,149.50129809998907,149.50129809998907,149.50129809998907,149.50129809998907,149.50129809998907,149.50129809998907,149.50129809998907,152.01118080015294,152.01118080015294,152.01118080015294,152.01118080015294,152.01118080015294,32,92,41,37,92,53,7.0,0.5481713998597115,152.57607650011778,154.13873130013235,,,,,,,155,f,26,2023-04-03_14h43.39.608,RL,2022.2.4,60.01990261150946,
1,15,0,15,0,,,,,,,,,,None,154.13873130013235,154.13873130013235,154.13873130013235,154.13873130013235,154.13873130013235,154.13873130013235,f,0.3002977001015097,154.47210360015742,154.47210360015742,154.47210360015742,154.47210360015742,154.47210360015742,154.47210360015742,154.77099060011096,154.77099060011096,156.28367800009437,156.28367800009437,156.28367800009437,156.28367800009437,156.28367800009437,156.28367800009437,156.28367800009437,156.28367800009437,156.28367800009437,156.28367800009437,156.28367800009437,156.28367800009437,156.28367800009437,156.28367800009437,156.28367800009437,156.28367800009437,156.28367800009437,158.79248409997672,158.79248409997672,158.79248409997672,158.79248409997672,158.79248409997672,37,92,41,45,92,30,7.0,0.6143164001405239,159.4241394000128,161.33620020002127,,,,,,,155,f,26,2023-04-03_14h43.39.608,RL,2022.2.4,60.01990261150946,
1,16,0,16,0,,,,,,,,,,None,161.33620020002127,161.33620020002127,161.33620020002127,161.33620020002127,161.33620020002127,161.33620020002127,f,0.48135160002857447,161.83519000001252,161.83519000001252,161.83519000001252,161.83519000001252,161.83519000001252,161.83519000001252,162.13395879999734,162.13395879999734,163.16486990009435,163.16486990009435,163.16486990009435,163.16486990009435,163.16486990009435,163.16486990009435,163.16486990009435,163.16486990009435,163.16486990009435,163.16486990009435,163.16486990009435,163.16486990009435,163.16486990009435,163.16486990009435,163.16486990009435,163.16486990009435,163.16486990009435,165.67388650006615,165.67388650006615,165.67388650006615,165.67388650006615,165.67388650006615,37,85,39,34,85,78,7.0,0.7641955998260528,166.45493669994175,168.05102459993213,,,,,,,155,f,26,2023-04-03_14h43.39.608,RL,2022.2.4,60.01990261150946,
1,17,0,17,0,,,,,,,,,,None,168.05102459993213,168.05102459993213,168.05102459993213,168.05102459993213,168.05102459993213,168.05102459993213,f,0.466036600060761,168.54985240008682,168.54985240008682,168.54985240008682,168.54985240008682,168.54985240008682,168.54985240008682,168.84912230004556,168.84912230004556,170.61093430011533,170.61093430011533,170.61093430011533,170.61093430011533,170.61093430011533,170.61093430011533,170.61093430011533,170.61093430011533,170.61093430011533,170.61093430011533,170.61093430011533,170.61093430011533,170.61093430011533,170.61093430011533,170.61093430011533,170.61093430011533,170.61093430011533,173.11980769992806,173.11980769992806,173.11980769992806,173.11980769992806,173.11980769992806,45,78,37,39,78,66,7.0,0.5306923999451101,173.66854450013489,175.44771380000748,,,,,,,155,f,26,2023-04-03_14h43.39.608,RL,2022.2.4,60.01990261150946,
1,18,0,18,0,,,,,,,,,,None,175.44771380000748,175.44771380000748,175.44771380000748,175.44771380000748,175.44771380000748,175.44771380000748,f,0.39266929985024035,175.86519200005569,175.86519200005569,175.86519200005569,175.86519200005569,175.86519200005569,175.86519200005569,176.16269010002725,176.16269010002725,177.84115410014056,177.84115410014056,177.84115410014056,177.84115410014056,177.84115410014056,177.84115410014056,177.84115410014056,177.84115410014056,177.84115410014056,177.84115410014056,177.84115410014056,177.84115410014056,177.84115410014056,177.84115410014056,177.84115410014056,177.84115410014056,177.84115410014056,180.34948560013436,180.34948560013436,180.34948560013436,180.34948560013436,180.34948560013436,42,79,35,33,79,51,7.0,1.1799621998798102,181.54752540006302,183.2261443999596,,,,,,,155,f,26,2023-04-03_14h43.39.608,RL,2022.2.4,60.01990261150946,
1,19,0,19,0,,,,,,,,,,None,183.2261443999596,183.2261443999596,183.2261443999596,183.2261443999596,183.2261443999596,183.2261443999596,f,0.5316435000859201,183.77559440000914,183.77559440000914,183.77559440000914,183.77559440000914,183.77559440000914,183.77559440000914,184.074376600096,184.074376600096,185.35419390001334,185.35419390001334,185.35419390001334,185.35419390001334,185.35419390001334,185.35419390001334,185.35419390001334,185.35419390001334,185.35419390001334,185.35419390001334,185.35419390001334,185.35419390001334,185.35419390001334,185.35419390001334,185.35419390001334,185.35419390001334,185.35419390001334,187.86316980002448,187.86316980002448,187.86316980002448,187.86316980002448,187.86316980002448,35,81,26,32,81,61,7.0,1.1465114001184702,189.02636030013673,190.97197850001976,,,,,,,155,f,26,2023-04-03_14h43.39.608,RL,2022.2.4,60.01990261150946,
1,20,0,20,0,,,,,,,,,,None,190.97197850001976,190.97197850001976,190.97197850001976,190.97197850001976,190.97197850001976,190.97197850001976,f,0.38367550005204976,191.38986700004898,191.38986700004898,191.38986700004898,191.38986700004898,191.38986700004898,191.38986700004898,191.68725720001385,191.68725720001385,193.4985641001258,193.4985641001258,193.4985641001258,193.4985641001258,193.4985641001258,193.4985641001258,193.4985641001258,193.4985641001258,193.4985641001258,193.4985641001258,193.4985641001258,193.4985641001258,193.4985641001258,193.4985641001258,193.4985641001258,193.4985641001258,193.4985641001258,196.00759169994853,196.00759169994853,196.00759169994853,196.00759169994853,196.00759169994853,39,80,25,38,80,44,7.0,0.7140461001545191,196.73891009995714,198.68442840012722,,,,,,,155,f,26,2023-04-03_14h43.39.608,RL,2022.2.4,60.01990261150946,
1,21,0,21,0,,,,,,,,,,None,198.68442840012722,198.68442840012722,198.68442840012722,198.68442840012722,198.68442840012722,198.68442840012722,f,0.274296100018546,198.98643620009534,198.98643620009534,198.98643620009534,198.98643620009534,198.98643620009534,198.98643620009534,199.28289390006103,199.28289390006103,200.56253450014628,200.56253450014628,200.56253450014628,200.56253450014628,200.56253450014628,200.56253450014628,200.54591610003263,200.54591610003263,200.56253450014628,200.56253450014628,200.56253450014628,200.56253450014628,200.56253450014628,200.56253450014628,200.56253450014628,200.56253450014628,200.56253450014628,203.07147670001723,203.07147670001723,203.07147670001723,203.07147670001723,203.07147670001723,48,70,23,36,70,52,7.0,0.6310213999822736,203.71992049994878,205.66472940007225,,,,,,,155,f,26,2023-04-03_14h43.39.608,RL,2022.2.4,60.01990261150946,
1,22,0,22,0,,,,,,,,,,None,205.66472940007225,205.66472940007225,205.66472940007225,205.66472940007225,205.66472940007225,205.66472940007225,f,0.42843460012227297,206.11564330011606,206.11564330011606,206.11564330011606,206.11564330011606,206.11564330011606,206.11564330011606,206.41337710013613,206.41337710013613,207.3940014000982,207.3940014000982,207.3940014000982,207.3940014000982,207.3940014000982,207.3940014000982,207.3940014000982,207.3940014000982,207.3940014000982,207.3940014000982,207.3940014000982,207.3940014000982,207.3940014000982,207.3940014000982,207.3940014000982,207.3940014000982,207.3940014000982,209.9025153000839,209.9025153000839,209.9025153000839,209.9025153000839,209.9025153000839,38,70,27,48,70,67,7.0,0.5811241001356393,210.50144740007818,212.13050259999,,,,,,,155,f,26,2023-04-03_14h43.39.608,RL,2022.2.4,60.01990261150946,
1,23,0,23,0,,,,,,,,,,None,212.13050259999,212.13050259999,212.13050259999,212.13050259999,212.13050259999,212.13050259999,f,0.416652400046587,212.58011090010405,212.58011090010405,212.58011090010405,212.58011090010405,212.58011090010405,212.58011090010405,212.8789373000618,212.8789373000618,213.7266641999595,213.7266641999595,213.7266641999595,213.7266641999595,213.7266641999595,213.7266641999595,213.7266641999595,213.7266641999595,213.7266641999595,213.7266641999595,213.7266641999595,213.7266641999595,213.7266641999595,213.7266641999595,213.7266641999595,213.7266641999595,213.7266641999595,216.23555819992907,216.23555819992907,216.23555819992907,216.23555819992907,216.23555819992907,40,79,23,39,79,67,7.0,0.4138073001522571,216.66761799994856,218.21433600015007,,,,,,,155,f,26,2023-04-03_14h43.39.608,RL,2022.2.4,60.01990261150946,
1,24,0,24,0,,,,,,,,,,None,218.21433600015007,218.21433600015007,218.21433600015007,218.21433600015007,218.21433600015007,218.21433600015007,f,0.8666164998430759,219.11452460009605,219.11452460009605,219.11452460009605,219.11452460009605,219.11452460009605,219.11452460009605,219.4113896000199,219.4113896000199,220.6575096999295,220.6575096999295,220.6575096999295,220.6575096999295,220.6575096999295,220.6575096999295,220.6575096999295,220.6575096999295,220.6575096999295,220.6575096999295,220.6575096999295,220.6575096999295,220.6575096999295,220.6575096999295,220.6575096999295,220.6575096999295,220.6575096999295,223.16688319994137,223.16688319994137,223.16688319994137,223.16688319994137,223.16688319994137,44,74,35,30,74,64,6.0,1.261812400072813,224.4466155001428,226.02635820000432,,,,,,,155,f,26,2023-04-03_14h43.39.608,RL,2022.2.4,60.01990261150946,
1,25,0,25,0,,,,,,,,,,None,226.02635820000432,226.02635820000432,226.02635820000432,226.02635820000432,226.02635820000432,226.02635820000432,f,0.41791080008260906,226.47748810006306,226.47748810006306,226.47748810006306,226.47748810006306,226.47748810006306,226.47748810006306,226.77463870006613,226.77463870006613,228.4698010000866,228.4698010000866,228.4698010000866,228.4698010000866,228.4698010000866,228.4698010000866,228.4698010000866,228.4698010000866,228.4698010000866,228.4698010000866,228.4698010000866,228.4698010000866,228.4698010000866,228.4698010000866,228.4698010000866,228.4698010000866,228.4698010000866,230.9788587000221,230.9788587000221,230.9788587000221,230.9788587000221,230.9788587000221,38,79,40,27,79,62,6.0,0.36511210002936423,231.36135990009643,233.0568884999957,,,,,,,155,f,26,2023-04-03_14h43.39.608,RL,2022.2.4,60.01990261150946,
1,26,0,26,0,,,,,,,,,,None,233.0568884999957,233.0568884999957,233.0568884999957,233.0568884999957,233.0568884999957,233.0568884999957,f,0.5969372000545263,233.67557279998437,233.67557279998437,233.67557279998437,233.67557279998437,233.67557279998437,233.67557279998437,233.97160669998266,233.97160669998266,235.18459179997444,235.18459179997444,235.18459179997444,235.18459179997444,235.18459179997444,235.18459179997444,235.18459179997444,235.18459179997444,235.18459179997444,235.18459179997444,235.18459179997444,235.18459179997444,235.18459179997444,235.18459179997444,235.18459179997444,235.18459179997444,235.18459179997444,237.69364330009557,237.69364330009557,237.69364330009557,237.69364330009557,237.69364330009557,40,71,32,36,71,64,5.0,0.8302492999937385,238.54099850007333,240.1374458000064,,,,,,,155,f,26,2023-04-03_14h43.39.608,RL,2022.2.4,60.01990261150946,
1,27,0,27,0,,,,,,,,,,None,240.1374458000064,240.1374458000064,240.1374458000064,240.1374458000064,240.1374458000064,240.1374458000064,f,0.37375529995188117,240.53869970003143,240.53869970003143,240.53869970003143,240.53869970003143,240.53869970003143,240.53869970003143,240.8360820999369,240.8360820999369,242.39856220013462,242.39856220013462,242.39856220013462,242.39856220013462,242.39856220013462,242.39856220013462,242.39856220013462,242.39856220013462,242.39856220013462,242.39856220013462,242.39856220013462,242.39856220013462,242.39856220013462,242.39856220013462,242.39856220013462,242.39856220013462,242.39856220013462,244.9075792999938,244.9075792999938,244.9075792999938,244.9075792999938,244.9075792999938,39,71,37,31,71,71,3.0,1.0287790999282151,245.9546735000331,247.86669660010375,,,,,,,155,f,26,2023-04-03_14h43.39.608,RL,2022.2.4,60.01990261150946,
1,28,0,28,0,,,,,,,,,,None,247.86669660010375,247.86669660010375,247.86669660010375,247.86669660010375,247.86669660010375,247.86669660010375,r,0.3035651999525726,248.2026544001419,248.2026544001419,248.2026544001419,248.2026544001419,248.2026544001419,248.2026544001419,248.49833060009405,248.49833060009405,249.99430939997546,249.99430939997546,249.99430939997546,249.99430939997546,249.99430939997546,249.99430939997546,249.99430939997546,249.99430939997546,249.99430939997546,249.99430939997546,249.99430939997546,249.99430939997546,249.99430939997546,249.99430939997546,249.99430939997546,249.99430939997546,249.99430939997546,252.50335300015286,252.50335300015286,252.50335300015286,252.50335300015286,252.50335300015286,38,73,36,38,38,67,1.0,0.8803736998233944,253.4010147000663,255.31287190015428,,,,,,,155,f,26,2023-04-03_14h43.39.608,RL,2022.2.4,60.01990261150946,
1,29,0,29,0,,,,,,,,,,None,255.31287190015428,255.31287190015428,255.31287190015428,255.31287190015428,255.31287190015428,255.31287190015428,f,0.30698520014993846,255.64842019998468,255.64842019998468,255.64842019998468,255.64842019998468,255.64842019998468,255.64842019998468,255.9448132000398,255.9448132000398,257.07508839992806,257.07508839992806,257.07508839992806,257.07508839992806,257.07508839992806,257.07508839992806,257.05841249995865,257.05841249995865,257.07508839992806,257.07508839992806,257.07508839992806,257.07508839992806,257.07508839992806,257.07508839992806,257.07508839992806,257.07508839992806,257.07508839992806,259.58393019996583,259.58393019996583,259.58393019996583,259.58393019996583,259.58393019996583,33,75,36,35,75,71,4.0,0.7636838001199067,260.36528680007905,262.31042980006896,,,,,,,155,f,26,2023-04-03_14h43.39.608,RL,2022.2.4,60.01990261150946,
1,30,0,30,0,,,,,,,,,,None,262.31042980006896,262.31042980006896,262.31042980006896,262.31042980006896,262.31042980006896,262.31042980006896,f,0.29274200019426644,262.6282484999392,262.6282484999392,262.6282484999392,262.6282484999392,262.6282484999392,262.6282484999392,262.9260346000083,262.9260346000083,264.5379749001004,264.5379749001004,264.5379749001004,264.5379749001004,264.5379749001004,264.5379749001004,264.5379749001004,264.5379749001004,264.5379749001004,264.5379749001004,264.5379749001004,264.5379749001004,264.5379749001004,264.5379749001004,264.5379749001004,264.5379749001004,264.5379749001004,267.0467425000388,267.0467425000388,267.0467425000388,267.0467425000388,267.0467425000388,37,79,32,32,79,75,5.0,0.6130627999082208,267.6787328000646,269.47430190001614,,,,,,,155,f,26,2023-04-03_14h43.39.608,RL,2022.2.4,60.01990261150946,
1,31,0,31,0,,,,,,,,,,None,269.47430190001614,269.47430190001614,269.47430190001614,269.47430190001614,269.47430190001614,269.47430190001614,f,0.30072800000198185,269.8068415001035,269.8068415001035,269.8068415001035,269.8068415001035,269.8068415001035,269.8068415001035,270.10599169996567,270.10599169996567,271.0701795001514,271.0701795001514,271.0701795001514,271.0701795001514,271.0701795001514,271.0701795001514,271.0701795001514,271.0701795001514,271.0701795001514,271.0701795001514,271.0701795001514,271.0701795001514,271.0701795001514,271.0701795001514,271.0701795001514,271.0701795001514,271.0701795001514,273.57947860006243,273.57947860006243,273.57947860006243,273.57947860006243,273.57947860006243,39,78,30,43,78,75,4.0,1.2620524999219924,274.8589099000674,276.5219616999384,,,,,,,155,f,26,2023-04-03_14h43.39.608,RL,2022.2.4,60.01990261150946,
1,32,0,32,0,,,,,,,,,,None,276.5219616999384,276.5219616999384,276.5219616999384,276.5219616999384,276.5219616999384,276.5219616999384,f,0.29672649991698563,276.8382480000146,276.8382480000146,276.8382480000146,276.8382480000146,276.8382480000146,276.8382480000146,277.13675089995377,277.13675089995377,278.96546720014885,278.96546720014885,278.96546720014885,278.96546720014885,278.96546720014885,278.96546720014885,278.96546720014885,278.96546720014885,278.96546720014885,278.96546720014885,278.96546720014885,278.96546720014885,278.96546720014885,278.96546720014885,278.96546720014885,278.96546720014885,278.96546720014885,281.47419580002315,281.47419580002315,281.47419580002315,281.47419580002315,281.47419580002315,34,70,32,37,70,62,5.0,0.38147299992851913,281.87331840000115,283.8683218001388,,,,,,,155,f,26,2023-04-03_14h43.39.608,RL,2022.2.4,60.01990261150946,
1,33,0,33,0,,,,,,,,,,None,283.8683218001388,283.8683218001388,283.8683218001388,283.8683218001388,283.8683218001388,283.8683218001388,f,0.26858179992996156,284.1688626999967,284.1688626999967,284.1688626999967,284.1688626999967,284.1688626999967,284.1688626999967,284.4671933001373,284.4671933001373,285.4808499000501,285.4808499000501,285.4808499000501,285.4808499000501,285.4808499000501,285.4808499000501,285.4808499000501,285.4808499000501,285.4808499000501,285.4808499000501,285.4808499000501,285.4808499000501,285.4808499000501,285.4808499000501,285.4808499000501,285.4808499000501,285.4808499000501,287.99007700011134,287.99007700011134,287.99007700011134,287.99007700011134,287.99007700011134,38,68,30,39,68,72,3.0,0.614114300115034,288.6214257001411,290.53331140009686,,,,,,,155,f,26,2023-04-03_14h43.39.608,RL,2022.2.4,60.01990261150946,
1,34,0,34,0,,,,,,,,,,None,290.53331140009686,290.53331140009686,290.53331140009686,290.53331140009686,290.53331140009686,290.53331140009686,j,0.4182551000267267,290.98380249994807,290.98380249994807,290.98380249994807,290.98380249994807,290.98380249994807,290.98380249994807,291.28218930005096,291.28218930005096,292.7609608999919,292.7609608999919,292.7609608999919,292.7609608999919,292.7609608999919,292.7609608999919,292.7609608999919,292.7609608999919,292.7609608999919,292.7609608999919,292.7609608999919,292.7609608999919,292.7609608999919,292.7609608999919,292.7609608999919,292.7609608999919,292.7609608999919,295.27008659997955,295.27008659997955,295.27008659997955,295.27008659997955,295.27008659997955,35,72,34,35,35,74,1.0,0.7138016999233514,296.0015362999402,297.96332080010325,,,,,,,155,f,26,2023-04-03_14h43.39.608,RL,2022.2.4,60.01990261150946,
1,35,0,35,0,,,,,,,,,,None,297.96332080010325,297.96332080010325,297.96332080010325,297.96332080010325,297.96332080010325,297.96332080010325,f,0.46196560002863407,298.44693690002896,298.44693690002896,298.44693690002896,298.44693690002896,298.44693690002896,298.44693690002896,298.74471260001883,298.74471260001883,299.957792900037,299.957792900037,299.957792900037,299.957792900037,299.957792900037,299.957792900037,299.957792900037,299.957792900037,299.957792900037,299.957792900037,299.957792900037,299.957792900037,299.957792900037,299.957792900037,299.957792900037,299.957792900037,299.957792900037,302.46691139996983,302.46691139996983,302.46691139996983,302.46691139996983,302.46691139996983,30,65,29,32,65,65,3.0,1.2448009999934584,303.7300849999301,305.6092284999322,,,,,,,155,f,26,2023-04-03_14h43.39.608,RL,2022.2.4,60.01990261150946,
1,36,0,36,0,,,,,,,,,,None,305.6092284999322,305.6092284999322,305.6092284999322,305.6092284999322,305.6092284999322,305.6092284999322,f,0.3189711000304669,305.96125950012356,305.96125950012356,305.96125950012356,305.96125950012356,305.96125950012356,305.96125950012356,306.2575962000992,306.2575962000992,307.6202573000919,307.6202573000919,307.6202573000919,307.6202573000919,307.6202573000919,307.6202573000919,307.6202573000919,307.6202573000919,307.6202573000919,307.6202573000919,307.6202573000919,307.6202573000919,307.6202573000919,307.6202573000919,307.6202573000919,307.6202573000919,307.6202573000919,310.1294867999386,310.1294867999386,310.1294867999386,310.1294867999386,310.1294867999386,32,65,36,35,65,70,2.0,1.1787883001379669,311.32650520000607,313.3050170999486,,,,,,,155,f,26,2023-04-03_14h43.39.608,RL,2022.2.4,60.01990261150946,
1,37,0,37,0,,,,,,,,,,None,313.3050170999486,313.3050170999486,313.3050170999486,313.3050170999486,313.3050170999486,313.3050170999486,i,0.591293300036341,313.9219211000018,313.9219211000018,313.9219211000018,313.9219211000018,313.9219211000018,313.9219211000018,314.21879950002767,314.21879950002767,315.53232550015673,315.53232550015673,315.53232550015673,315.53232550015673,315.53232550015673,315.53232550015673,315.51544460002333,315.51544460002333,315.53232550015673,315.53232550015673,315.53232550015673,315.53232550015673,315.53232550015673,315.53232550015673,315.53232550015673,315.53232550015673,315.53232550015673,318.0414549000561,318.0414549000561,318.0414549000561,318.0414549000561,318.0414549000561,35,73,25,24,25,70,1.0,0.7966430999804288,318.85582650010474,320.6675263000652,,,,,,,155,f,26,2023-04-03_14h43.39.608,RL,2022.2.4,60.01990261150946,
1,38,0,38,0,,,,,,,,,,None,320.6675263000652,320.6675263000652,320.6675263000652,320.6675263000652,320.6675263000652,320.6675263000652,f,0.3927766000851989,321.08396279998124,321.08396279998124,321.08396279998124,321.08396279998124,321.08396279998124,321.08396279998124,321.3828195000533,321.3828195000533,322.54646350000985,322.54646350000985,322.54646350000985,322.54646350000985,322.54646350000985,322.54646350000985,322.54646350000985,322.54646350000985,322.54646350000985,322.54646350000985,322.54646350000985,322.54646350000985,322.54646350000985,322.54646350000985,322.54646350000985,322.54646350000985,322.54646350000985,325.0553876000922,325.0553876000922,325.0553876000922,325.0553876000922,325.0553876000922,36,61,28,29,61,67,1.0,0.9798985000234097,326.05273370002396,327.8320563000161,,,,,,,155,f,26,2023-04-03_14h43.39.608,RL,2022.2.4,60.01990261150946,
1,39,0,39,0,,,,,,,,,,None,327.8320563000161,327.8320563000161,327.8320563000161,327.8320563000161,327.8320563000161,327.8320563000161,f,0.3016269998624921,328.16495859995484,328.16495859995484,328.16495859995484,328.16495859995484,328.16495859995484,328.16495859995484,328.4636558999773,328.4636558999773,330.07587709999643,330.07587709999643,330.07587709999643,330.07587709999643,330.07587709999643,330.07587709999643,330.07587709999643,330.07587709999643,330.07587709999643,330.07587709999643,330.07587709999643,330.07587709999643,330.07587709999643,330.07587709999643,330.07587709999643,330.07587709999643,330.07587709999643,332.58497460000217,332.58497460000217,332.58497460000217,332.58497460000217,332.58497460000217,39,60,29,35,60,75,1.0,1.1960626000072807,333.7983039000537,335.54410209995694,,,,,,,155,f,26,2023-04-03_14h43.39.608,RL,2022.2.4,60.01990261150946,
1,40,0,40,0,,,,,,,,,,None,335.54410209995694,335.54410209995694,335.54410209995694,335.54410209995694,335.54410209995694,335.54410209995694,f,0.45723719988018274,336.02705080015585,336.02705080015585,336.02705080015585,336.02705080015585,336.02705080015585,336.02705080015585,336.3252866000403,336.3252866000403,338.0209171001334,338.0209171001334,338.0209171001334,338.0209171001334,338.0209171001334,338.0209171001334,338.0209171001334,338.0209171001334,338.0209171001334,338.0209171001334,338.0209171001334,338.0209171001334,338.0209171001334,338.0209171001334,338.0209171001334,338.0209171001334,338.0209171001334,340.52979920012876,340.52979920012876,340.52979920012876,340.52979920012876,340.52979920012876,29,58,32,39,58,68,1.0,0.4981501998845488,341.0450170999393,342.90722630009986,,,,,,,155,f,26,2023-04-03_14h43.39.608,RL,2022.2.4,60.01990261150946,
1,41,0,41,0,,,,,,,,,,None,342.90722630009986,342.90722630009986,342.90722630009986,342.90722630009986,342.90722630009986,342.90722630009986,r,0.2823956999927759,343.2235520000104,343.2235520000104,343.2235520000104,343.2235520000104,343.2235520000104,343.2235520000104,343.5226517000701,343.5226517000701,344.76908540003933,344.76908540003933,344.76908540003933,344.76908540003933,344.76908540003933,344.76908540003933,344.76908540003933,344.76908540003933,344.76908540003933,344.76908540003933,344.76908540003933,344.76908540003933,344.76908540003933,344.76908540003933,344.76908540003933,344.76908540003933,344.76908540003933,347.27786080003716,347.27786080003716,347.27786080003716,347.27786080003716,347.27786080003716,32,62,30,32,32,70,1.0,0.3973042001016438,347.6938047001604,349.6886941001285,,,,,,,155,f,26,2023-04-03_14h43.39.608,RL,2022.2.4,60.01990261150946,
1,42,0,42,0,,,,,,,,,,None,349.6886941001285,349.6886941001285,349.6886941001285,349.6886941001285,349.6886941001285,349.6886941001285,f,0.29005379998125136,350.0075685000047,350.0075685000047,350.0075685000047,350.0075685000047,350.0075685000047,350.0075685000047,350.3035828000866,350.3035828000866,351.84979350003414,351.84979350003414,351.84979350003414,351.84979350003414,351.84979350003414,351.84979350003414,351.84979350003414,351.84979350003414,351.84979350003414,351.84979350003414,351.84979350003414,351.84979350003414,351.84979350003414,351.84979350003414,351.84979350003414,351.84979350003414,351.84979350003414,354.35847269999795,354.35847269999795,354.35847269999795,354.35847269999795,354.35847269999795,31,58,35,26,58,81,1.0,0.6474225001875311,355.0236271000467,356.9357255001087,,,,,,,155,f,26,2023-04-03_14h43.39.608,RL,2022.2.4,60.01990261150946,
1,43,0,43,0,,,,,,,,,,None,356.9357255001087,356.9357255001087,356.9357255001087,356.9357255001087,356.9357255001087,356.9357255001087,f,0.33631489984691143,357.3037709000055,357.3037709000055,357.3037709000055,357.3037709000055,357.3037709000055,357.3037709000055,357.6007282999344,357.6007282999344,359.09666030015796,359.09666030015796,359.09666030015796,359.09666030015796,359.09666030015796,359.09666030015796,359.07994189998135,359.07994189998135,359.09666030015796,359.09666030015796,359.09666030015796,359.09666030015796,359.09666030015796,359.09666030015796,359.09666030015796,359.09666030015796,359.09666030015796,361.60568960011005,361.60568960011005,361.60568960011005,361.60568960011005,361.60568960011005,27,55,24,34,55,66,1.0,0.6307089000474662,362.25388230010867,363.9333115001209,,,,,,,155,f,26,2023-04-03_14h43.39.608,RL,2022.2.4,60.01990261150946,
1,44,0,44,0,,,,,,,,,,None,363.9333115001209,363.9333115001209,363.9333115001209,363.9333115001209,363.9333115001209,363.9333115001209,i,0.42799759982153773,364.38352259993553,364.38352259993553,364.38352259993553,364.38352259993553,364.38352259993553,364.38352259993553,364.68129490013234,364.68129490013234,366.50984110007994,366.50984110007994,366.50984110007994,366.50984110007994,366.50984110007994,366.50984110007994,366.50984110007994,366.50984110007994,366.50984110007994,366.50984110007994,366.50984110007994,366.50984110007994,366.50984110007994,366.50984110007994,366.50984110007994,366.50984110007994,366.50984110007994,369.0188297999557,369.0188297999557,369.0188297999557,369.0188297999557,369.0188297999557,33,67,27,25,27,67,1.0,0.7797981000039726,369.8167159999721,371.64553480013274,,,,,,,155,f,26,2023-04-03_14h43.39.608,RL,2022.2.4,60.01990261150946,
1,45,0,45,0,,,,,,,,,,None,371.64553480013274,371.64553480013274,371.64553480013274,371.64553480013274,371.64553480013274,371.64553480013274,j,0.7478279999922961,372.41152369999327,372.41152369999327,372.41152369999327,372.41152369999327,372.41152369999327,372.41152369999327,372.70961090014316,372.70961090014316,374.35491160000674,374.35491160000674,374.35491160000674,374.35491160000674,374.35491160000674,374.35491160000674,374.35491160000674,374.35491160000674,374.35491160000674,374.35491160000674,374.35491160000674,374.35491160000674,374.35491160000674,374.35491160000674,374.35491160000674,374.35491160000674,374.35491160000674,376.86408630013466,376.86408630013466,376.86408630013466,376.86408630013466,376.86408630013466,27,63,32,20,20,66,1.0,0.5476634001825005,377.4292866999749,379.04215340013616,,,,,,,155,f,26,2023-04-03_14h43.39.608,RL,2022.2.4,60.01990261150946,
1,46,0,46,0,,,,,,,,,,None,379.04215340013616,379.04215340013616,379.04215340013616,379.04215340013616,379.04215340013616,379.04215340013616,f,0.29991429997608066,379.3758249001112,379.3758249001112,379.3758249001112,379.3758249001112,379.3758249001112,379.3758249001112,379.67395590012893,379.67395590012893,381.5687482000794,381.5687482000794,381.5687482000794,381.5687482000794,381.5687482000794,381.5687482000794,381.5687482000794,381.5687482000794,381.5687482000794,381.5687482000794,381.5687482000794,381.5687482000794,381.5687482000794,381.5687482000794,381.5687482000794,381.5687482000794,381.5687482000794,384.07783690001816,384.07783690001816,384.07783690001816,384.07783690001816,384.07783690001816,24,63,35,33,63,61,5.0,0.581211999990046,384.67585100000724,386.23859159997664,,,,,,,155,f,26,2023-04-03_14h43.39.608,RL,2022.2.4,60.01990261150946,
1,47,0,47,0,,,,,,,,,,None,386.23859159997664,386.23859159997664,386.23859159997664,386.23859159997664,386.23859159997664,386.23859159997664,f,0.511432999977842,386.7725684000179,386.7725684000179,386.7725684000179,386.7725684000179,386.7725684000179,386.7725684000179,387.0705864999909,387.0705864999909,387.9345377001446,387.9345377001446,387.9345377001446,387.9345377001446,387.9345377001446,387.9345377001446,387.9345377001446,387.9345377001446,387.9345377001446,387.9345377001446,387.9345377001446,387.9345377001446,387.9345377001446,387.9345377001446,387.9345377001446,387.9345377001446,387.9345377001446,390.443561000051,390.443561000051,390.443561000051,390.443561000051,390.443561000051,24,63,32,35,63,68,4.0,0.6302449000068009,391.09197680000216,392.7374317999929,,,,,,,155,f,26,2023-04-03_14h43.39.608,RL,2022.2.4,60.01990261150946,
1,48,0,48,0,,,,,,,,,,None,392.7374317999929,392.7374317999929,392.7374317999929,392.7374317999929,392.7374317999929,392.7374317999929,r,0.3511356001254171,393.1203225001227,393.1203225001227,393.1203225001227,393.1203225001227,393.1203225001227,393.1203225001227,393.4193955999799,393.4193955999799,394.76577279996127,394.76577279996127,394.76577279996127,394.76577279996127,394.76577279996127,394.76577279996127,394.76577279996127,394.76577279996127,394.76577279996127,394.76577279996127,394.76577279996127,394.76577279996127,394.76577279996127,394.76577279996127,394.76577279996127,394.76577279996127,394.76577279996127,397.27466380014084,397.27466380014084,397.27466380014084,397.27466380014084,397.27466380014084,20,66,29,29,20,71,1.0,1.0796990999951959,398.37170449993573,399.98492310009897,,,,,,,155,f,26,2023-04-03_14h43.39.608,RL,2022.2.4,60.01990261150946,
1,49,0,49,0,,,,,,,,,,None,399.98492310009897,399.98492310009897,399.98492310009897,399.98492310009897,399.98492310009897,399.98492310009897,f,0.35172469983808696,400.3693693999667,400.3693693999667,400.3693693999667,400.3693693999667,400.3693693999667,400.3693693999667,400.6666155999992,400.6666155999992,402.52825910015963,402.52825910015963,402.52825910015963,402.52825910015963,402.52825910015963,402.52825910015963,402.52825910015963,402.52825910015963,402.52825910015963,402.52825910015963,402.52825910015963,402.52825910015963,402.52825910015963,402.52825910015963,402.52825910015963,402.52825910015963,402.52825910015963,405.0371465999633,405.0371465999633,405.0371465999633,405.0371465999633,405.0371465999633,29,61,37,31,61,66,3.0,1.3285789000801742,406.383140000049,407.89630450005643,,,,,,,155,f,26,2023-04-03_14h43.39.608,RL,2022.2.4,60.01990261150946,
1,50,0,50,0,,,,,,,,,,None,407.89630450005643,407.89630450005643,407.89630450005643,407.89630450005643,407.89630450005643,407.89630450005643,f,0.3476360000204295,408.26446989993565,408.26446989993565,408.26446989993565,408.26446989993565,408.26446989993565,408.26446989993565,408.5615529001225,408.5615529001225,410.5392557999585,410.5392557999585,410.5392557999585,410.5392557999585,410.5392557999585,410.5392557999585,410.5392557999585,410.5392557999585,410.5392557999585,410.5392557999585,410.5392557999585,410.5392557999585,410.5392557999585,410.5392557999585,410.5392557999585,410.5392557999585,410.5392557999585,413.04853150015697,413.04853150015697,413.04853150015697,413.04853150015697,413.04853150015697,24,65,39,28,65,73,2.0,0.4808223000727594,413.54734060005285,415.22647210001014,,,,,,,155,f,26,2023-04-03_14h43.39.608,RL,2022.2.4,60.01990261150946,
1,51,0,51,0,,,,,,,,,,None,415.22647210001014,415.22647210001014,415.22647210001014,415.22647210001014,415.22647210001014,415.22647210001014,f,0.5501429999712855,415.81014710012823,415.81014710012823,415.81014710012823,415.81014710012823,415.81014710012823,415.81014710012823,416.10760440002196,416.10760440002196,416.93890419998206,416.93890419998206,416.93890419998206,416.93890419998206,416.93890419998206,416.93890419998206,416.93890419998206,416.93890419998206,416.93890419998206,416.93890419998206,416.93890419998206,416.93890419998206,416.93890419998206,416.93890419998206,416.93890419998206,416.93890419998206,416.93890419998206,419.4476067000069,419.4476067000069,419.4476067000069,419.4476067000069,419.4476067000069,27,65,37,33,65,66,4.0,0.6306402001064271,420.0960434000008,421.65912460000254,,,,,,,155,f,26,2023-04-03_14h43.39.608,RL,2022.2.4,60.01990261150946,
1,52,0,52,0,,,,,,,,,,None,421.65912460000254,421.65912460000254,421.65912460000254,421.65912460000254,421.65912460000254,421.65912460000254,f,0.3515088998246938,422.0445815999992,422.0445815999992,422.0445815999992,422.0445815999992,422.0445815999992,422.0445815999992,422.340933999978,422.340933999978,423.2218550001271,423.2218550001271,423.2218550001271,423.2218550001271,423.2218550001271,423.2218550001271,423.2218550001271,423.2218550001271,423.2218550001271,423.2218550001271,423.2218550001271,423.2218550001271,423.2218550001271,423.2218550001271,423.2218550001271,423.2218550001271,423.2218550001271,425.73029040009715,425.73029040009715,425.73029040009715,425.73029040009715,425.73029040009715,28,70,44,30,70,61,6.0,0.5974860000424087,426.34557340014726,428.3072037000675,,,,,,,155,f,26,2023-04-03_14h43.39.608,RL,2022.2.4,60.01990261150946,
1,53,0,53,0,,,,,,,,,,None,428.3072037000675,428.3072037000675,428.3072037000675,428.3072037000675,428.3072037000675,428.3072037000675,f,0.24244110006839037,428.57398680015467,428.57398680015467,428.57398680015467,428.57398680015467,428.57398680015467,428.57398680015467,428.8728712000884,428.8728712000884,430.867408500053,430.867408500053,430.867408500053,430.867408500053,430.867408500053,430.867408500053,430.867408500053,430.867408500053,430.867408500053,430.867408500053,430.867408500053,430.867408500053,430.867408500053,430.867408500053,430.867408500053,430.867408500053,430.867408500053,433.3763030001428,433.3763030001428,433.3763030001428,433.3763030001428,433.3763030001428,15,64,39,35,64,72,2.0,0.68056849995628,434.0748352999799,435.90319770015776,,,,,,,155,f,26,2023-04-03_14h43.39.608,RL,2022.2.4,60.01990261150946,
1,54,0,54,0,,,,,,,,,,None,435.90319770015776,435.90319770015776,435.90319770015776,435.90319770015776,435.90319770015776,435.90319770015776,f,0.9084793999791145,436.83500860002823,436.83500860002823,436.83500860002823,436.83500860002823,436.83500860002823,436.83500860002823,437.1338855000213,437.1338855000213,438.82872850005515,438.82872850005515,438.82872850005515,438.82872850005515,438.82872850005515,438.82872850005515,438.82872850005515,438.82872850005515,438.82872850005515,438.82872850005515,438.82872850005515,438.82872850005515,438.82872850005515,438.82872850005515,438.82872850005515,438.82872850005515,438.82872850005515,441.3381350999698,441.3381350999698,441.3381350999698,441.3381350999698,441.3381350999698,21,62,35,34,62,72,1.0,0.6644303000066429,442.0196881000884,443.8818866999354,,,,,,,155,f,26,2023-04-03_14h43.39.608,RL,2022.2.4,60.01990261150946,
1,55,0,55,0,,,,,,,,,,None,443.8818866999354,443.8818866999354,443.8818866999354,443.8818866999354,443.8818866999354,443.8818866999354,f,0.3420026998501271,444.2487041000277,444.2487041000277,444.2487041000277,444.2487041000277,444.2487041000277,444.2487041000277,444.54686400014907,444.54686400014907,445.6603562000673,445.6603562000673,445.6603562000673,445.6603562000673,445.6603562000673,445.6603562000673,445.6603562000673,445.6603562000673,445.6603562000673,445.6603562000673,445.6603562000673,445.6603562000673,445.6603562000673,445.6603562000673,445.6603562000673,445.6603562000673,445.6603562000673,448.16956400009803,448.16956400009803,448.16956400009803,448.16956400009803,448.16956400009803,31,62,35,34,62,73,2.0,0.7305954000912607,448.91708970000036,450.54664780013263,,,,,,,155,f,26,2023-04-03_14h43.39.608,RL,2022.2.4,60.01990261150946,
1,56,0,56,0,,,,,,,,,,None,450.54664780013263,450.54664780013263,450.54664780013263,450.54664780013263,450.54664780013263,450.54664780013263,f,0.4804584002122283,451.04767100000754,451.04767100000754,451.04767100000754,451.04767100000754,451.04767100000754,451.04767100000754,451.3449430000037,451.3449430000037,452.2257616999559,452.2257616999559,452.2257616999559,452.2257616999559,452.2257616999559,452.2257616999559,452.2257616999559,452.2257616999559,452.2257616999559,452.2257616999559,452.2257616999559,452.2257616999559,452.2257616999559,452.2257616999559,452.2257616999559,452.2257616999559,452.2257616999559,454.73460850003175,454.73460850003175,454.73460850003175,454.73460850003175,454.73460850003175,25,60,36,32,60,65,2.0,0.38106520008295774,455.1340264000464,457.12862280011177,,,,,,,155,f,26,2023-04-03_14h43.39.608,RL,2022.2.4,60.01990261150946,
1,57,0,57,0,,,,,,,,,,None,457.12862280011177,457.12862280011177,457.12862280011177,457.12862280011177,457.12862280011177,457.12862280011177,f,0.2632019999437034,457.41418730001897,457.41418730001897,457.41418730001897,457.41418730001897,457.41418730001897,457.41418730001897,457.71064419997856,457.71064419997856,459.4560486001428,459.4560486001428,459.4560486001428,459.4560486001428,459.4560486001428,459.4560486001428,459.4560486001428,459.4560486001428,459.4560486001428,459.4560486001428,459.4560486001428,459.4560486001428,459.4560486001428,459.4560486001428,459.4560486001428,459.4560486001428,459.4560486001428,461.9648415001575,461.9648415001575,461.9648415001575,461.9648415001575,461.9648415001575,30,65,38,33,65,65,4.0,0.3809795998968184,462.36424050014466,464.34247349994257,,,,,,,155,f,26,2023-04-03_14h43.39.608,RL,2022.2.4,60.01990261150946,
1,58,0,58,0,,,,,,,,,,None,464.34247349994257,464.34247349994257,464.34247349994257,464.34247349994257,464.34247349994257,464.34247349994257,f,0.2807978999335319,464.64393300004303,464.64393300004303,464.64393300004303,464.64393300004303,464.64393300004303,464.64393300004303,464.94085280015133,464.94085280015133,465.9881563000381,465.9881563000381,465.9881563000381,465.9881563000381,465.9881563000381,465.9881563000381,465.9715821000282,465.9715821000282,465.9881563000381,465.9881563000381,465.9881563000381,465.9881563000381,465.9881563000381,465.9881563000381,465.9881563000381,465.9881563000381,465.9881563000381,468.4971279001329,468.4971279001329,468.4971279001329,468.4971279001329,468.4971279001329,26,65,37,31,65,74,3.0,0.46474780002608895,468.97902130009606,470.6753301001154,,,,,,,155,f,26,2023-04-03_14h43.39.608,RL,2022.2.4,60.01990261150946,
1,59,0,59,0,,,,,,,,,,None,470.6753301001154,470.6753301001154,470.6753301001154,470.6753301001154,470.6753301001154,470.6753301001154,f,0.2770352999214083,470.9764469000511,470.9764469000511,470.9764469000511,470.9764469000511,470.9764469000511,470.9764469000511,471.2737742001191,471.2737742001191,472.37064480013214,472.37064480013214,472.37064480013214,472.37064480013214,472.37064480013214,472.37064480013214,472.37064480013214,472.37064480013214,472.37064480013214,472.37064480013214,472.37064480013214,472.37064480013214,472.37064480013214,472.37064480013214,472.37064480013214,472.37064480013214,472.37064480013214,474.8795727000106,474.8795727000106,474.8795727000106,474.8795727000106,474.8795727000106,30,51,39,31,51,73,1.0,0.647009699838236,475.54533990006894,477.5561019999441,,,,,,,155,f,26,2023-04-03_14h43.39.608,RL,2022.2.4,60.01990261150946,
1,60,0,60,0,,,,,,,,,,None,477.5561019999441,477.5561019999441,477.5561019999441,477.5561019999441,477.5561019999441,477.5561019999441,r,0.3897125998046249,477.97488540015183,477.97488540015183,477.97488540015183,477.97488540015183,477.97488540015183,477.97488540015183,478.2714047001209,478.2714047001209,479.1190045999829,479.1190045999829,479.1190045999829,479.1190045999829,479.1190045999829,479.1190045999829,479.1190045999829,479.1190045999829,479.1190045999829,479.1190045999829,479.1190045999829,479.1190045999829,479.1190045999829,479.1190045999829,479.1190045999829,479.1190045999829,479.1190045999829,481.627912200056,481.627912200056,481.627912200056,481.627912200056,481.627912200056,26,62,40,37,26,66,1.0,0.7966655001509935,482.4426109001506,484.08864520001225,,,,,,,155,f,26,2023-04-03_14h43.39.608,RL,2022.2.4,60.01990261150946,
1,61,0,61,0,,,,,,,,,,None,484.08864520001225,484.08864520001225,484.08864520001225,484.08864520001225,484.08864520001225,484.08864520001225,f,0.2513777001295239,484.3717221999541,484.3717221999541,484.3717221999541,484.3717221999541,484.3717221999541,484.3717221999541,484.65423720004037,484.65423720004037,486.1831193000544,486.1831193000544,486.1831193000544,486.1831193000544,486.1831193000544,486.1831193000544,486.1661869001109,486.1661869001109,486.1831193000544,486.1831193000544,486.1831193000544,486.1831193000544,486.1831193000544,486.1831193000544,486.1831193000544,486.1831193000544,486.1831193000544,488.6921004001051,488.6921004001051,488.6921004001051,488.6921004001051,488.6921004001051,34,66,38,35,66,70,3.0,1.1792261998634785,489.8887325001415,491.81767160003074,,,,,,,155,f,26,2023-04-03_14h43.39.608,RL,2022.2.4,60.01990261150946,
1,62,0,62,0,,,,,,,,,,None,491.81767160003074,491.81767160003074,491.81767160003074,491.81767160003074,491.81767160003074,491.81767160003074,f,0.7031809999607503,492.55059360014275,492.55059360014275,492.55059360014275,492.55059360014275,492.55059360014275,492.55059360014275,492.8481582000386,492.8481582000386,494.7763811999466,494.7763811999466,494.7763811999466,494.7763811999466,494.7763811999466,494.7763811999466,494.7763811999466,494.7763811999466,494.7763811999466,494.7763811999466,494.7763811999466,494.7763811999466,494.7763811999466,494.7763811999466,494.7763811999466,494.7763811999466,494.7763811999466,497.28554160008207,497.28554160008207,497.28554160008207,497.28554160008207,497.28554160008207,42,63,35,32,63,71,2.0,0.6968423000071198,498.00007860013284,499.7458614001516,,,,,,,155,f,26,2023-04-03_14h43.39.608,RL,2022.2.4,60.01990261150946,
1,63,0,63,0,,,,,,,,,,None,499.7458614001516,499.7458614001516,499.7458614001516,499.7458614001516,499.7458614001516,499.7458614001516,f,1.077154900180176,500.8435369001236,500.8435369001236,500.8435369001236,500.8435369001236,500.8435369001236,500.8435369001236,501.14218450011685,501.14218450011685,502.8041763000656,502.8041763000656,502.8041763000656,502.8041763000656,502.8041763000656,502.8041763000656,502.7878068999853,502.7878068999853,502.8041763000656,502.8041763000656,502.8041763000656,502.8041763000656,502.8041763000656,502.8041763000656,502.8041763000656,502.8041763000656,502.8041763000656,505.3136716000736,505.3136716000736,505.3136716000736,505.3136716000736,505.3136716000736,38,59,37,31,59,56,5.0,0.812693800078705,506.14443129999563,508.0398367000744,,,,,,,155,f,26,2023-04-03_14h43.39.608,RL,2022.2.4,60.01990261150946,
1,64,0,64,0,,,,,,,,,,None,508.0398367000744,508.0398367000744,508.0398367000744,508.0398367000744,508.0398367000744,508.0398367000744,f,0.6743727000430226,508.73830490000546,508.73830490000546,508.73830490000546,508.73830490000546,508.73830490000546,508.73830490000546,509.0374094999861,509.0374094999861,510.1179254001472,510.1179254001472,510.1179254001472,510.1179254001472,510.1179254001472,510.1179254001472,510.1179254001472,510.1179254001472,510.1179254001472,510.1179254001472,510.1179254001472,510.1179254001472,510.1179254001472,510.1179254001472,510.1179254001472,510.1179254001472,510.1179254001472,512.6265476001427,512.6265476001427,512.6265476001427,512.6265476001427,512.6265476001427,38,59,36,24,59,65,1.0,0.7141187998931855,513.358242199989,515.2538263001479,,,,,,,155,f,26,2023-04-03_14h43.39.608,RL,2022.2.4,60.01990261150946,
1,65,0,65,0,,,,,,,,,,None,515.2538263001479,515.2538263001479,515.2538263001479,515.2538263001479,515.2538263001479,515.2538263001479,f,0.6193623000290245,515.9029538000468,515.9029538000468,515.9029538000468,515.9029538000468,515.9029538000468,515.9029538000468,516.2012925001327,516.2012925001327,517.2983240000904,517.2983240000904,517.2983240000904,517.2983240000904,517.2983240000904,517.2983240000904,517.2983240000904,517.2983240000904,517.2983240000904,517.2983240000904,517.2983240000904,517.2983240000904,517.2983240000904,517.2983240000904,517.2983240000904,517.2983240000904,517.2983240000904,519.8072943000589,519.8072943000589,519.8072943000589,519.8072943000589,519.8072943000589,29,65,31,11,65,60,7.0,0.4806078001856804,520.3063028000761,522.0017544000875,,,,,,,155,f,26,2023-04-03_14h43.39.608,RL,2022.2.4,60.01990261150946,
1,66,0,66,0,,,,,,,,,,None,522.0017544000875,522.0017544000875,522.0017544000875,522.0017544000875,522.0017544000875,522.0017544000875,f,0.7242363998666406,522.752960300073,522.752960300073,522.752960300073,522.752960300073,522.752960300073,522.752960300073,523.0489867001306,523.0489867001306,524.893933699932,524.893933699932,524.893933699932,524.893933699932,524.893933699932,524.893933699932,524.893933699932,524.893933699932,524.893933699932,524.893933699932,524.893933699932,524.893933699932,524.893933699932,524.893933699932,524.893933699932,524.893933699932,524.893933699932,527.4031277999748,527.4031277999748,527.4031277999748,527.4031277999748,527.4031277999748,38,62,46,14,62,58,5.0,1.047042999882251,528.467268000124,530.1296874000691,,,,,,,155,f,26,2023-04-03_14h43.39.608,RL,2022.2.4,60.01990261150946,
1,67,0,67,0,,,,,,,,,,None,530.1296874000691,530.1296874000691,530.1296874000691,530.1296874000691,530.1296874000691,530.1296874000691,f,0.4291618999559432,530.5810654000379,530.5810654000379,530.5810654000379,530.5810654000379,530.5810654000379,530.5810654000379,530.8775257000234,530.8775257000234,532.1080194001552,532.1080194001552,532.1080194001552,532.1080194001552,532.1080194001552,532.1080194001552,532.1080194001552,532.1080194001552,532.1080194001552,532.1080194001552,532.1080194001552,532.1080194001552,532.1080194001552,532.1080194001552,532.1080194001552,532.1080194001552,532.1080194001552,534.6167222999502,534.6167222999502,534.6167222999502,534.6167222999502,534.6167222999502,33,59,39,15,59,57,4.0,1.328899399843067,535.9628189001232,537.5092317999806,,,,,,,155,f,26,2023-04-03_14h43.39.608,RL,2022.2.4,60.01990261150946,
1,68,0,68,0,,,,,,,,,,None,537.5092317999806,537.5092317999806,537.5092317999806,537.5092317999806,537.5092317999806,537.5092317999806,f,1.1865580000448972,538.7246284000576,538.7246284000576,538.7246284000576,538.7246284000576,538.7246284000576,538.7246284000576,539.0223920000717,539.0223920000717,540.7505667000078,540.7505667000078,540.7505667000078,540.7505667000078,540.7505667000078,540.7505667000078,540.7505667000078,540.7505667000078,540.7505667000078,540.7505667000078,540.7505667000078,540.7505667000078,540.7505667000078,540.7505667000078,540.7505667000078,540.7505667000078,540.7505667000078,543.2599094000179,543.2599094000179,543.2599094000179,543.2599094000179,543.2599094000179,32,62,47,25,62,58,5.0,0.6475770000834018,543.92472310015,545.8702893999871,,,,,,,155,f,26,2023-04-03_14h43.39.608,RL,2022.2.4,60.01990261150946,
1,69,0,69,0,,,,,,,,,,None,545.8702893999871,545.8702893999871,545.8702893999871,545.8702893999871,545.8702893999871,545.8702893999871,f,0.3945098998956382,546.2875222000293,546.2875222000293,546.2875222000293,546.2875222000293,546.2875222000293,546.2875222000293,546.5851255001035,546.5851255001035,548.4301638000179,548.4301638000179,548.4301638000179,548.4301638000179,548.4301638000179,548.4301638000179,548.4301638000179,548.4301638000179,548.4301638000179,548.4301638000179,548.4301638000179,548.4301638000179,548.4301638000179,548.4301638000179,548.4301638000179,548.4301638000179,548.4301638000179,550.9390982999466,550.9390982999466,550.9390982999466,550.9390982999466,550.9390982999466,30,64,43,18,64,64,4.0,0.5476023000665009,551.5037303999998,553.2168434001505,,,,,,,155,f,26,2023-04-03_14h43.39.608,RL,2022.2.4,60.01990261150946,
1,70,0,70,0,,,,,,,,,,None,553.2168434001505,553.2168434001505,553.2168434001505,553.2168434001505,553.2168434001505,553.2168434001505,f,0.3038488000165671,553.5511825999711,553.5511825999711,553.5511825999711,553.5511825999711,553.5511825999711,553.5511825999711,553.8481787000783,553.8481787000783,555.1116633999627,555.1116633999627,555.1116633999627,555.1116633999627,555.1116633999627,555.1116633999627,555.1116633999627,555.1116633999627,555.1116633999627,555.1116633999627,555.1116633999627,555.1116633999627,555.1116633999627,555.1116633999627,555.1116633999627,555.1116633999627,555.1116633999627,557.6207143999636,557.6207143999636,557.6207143999636,557.6207143999636,557.6207143999636,31,56,48,23,56,55,6.0,1.080428099958226,558.7178563000634,560.3472478000913,,,,,,,155,f,26,2023-04-03_14h43.39.608,RL,2022.2.4,60.01990261150946,
1,71,0,71,0,,,,,,,,,,None,560.3472478000913,560.3472478000913,560.3472478000913,560.3472478000913,560.3472478000913,560.3472478000913,f,0.4309050999581814,560.7984991001431,560.7984991001431,560.7984991001431,560.7984991001431,560.7984991001431,560.7984991001431,561.095147700049,561.095147700049,561.9266528999433,561.9266528999433,561.9266528999433,561.9266528999433,561.9266528999433,561.9266528999433,561.9266528999433,561.9266528999433,561.9266528999433,561.9266528999433,561.9266528999433,561.9266528999433,561.9266528999433,561.9266528999433,561.9266528999433,561.9266528999433,561.9266528999433,564.4356486001052,564.4356486001052,564.4356486001052,564.4356486001052,564.4356486001052,33,63,49,25,63,55,7.0,0.7138260998763144,565.1667539000046,566.7964310001116,,,,,,,155,f,26,2023-04-03_14h43.39.608,RL,2022.2.4,60.01990261150946,
1,72,0,72,0,,,,,,,,,,None,566.7964310001116,566.7964310001116,566.7964310001116,566.7964310001116,566.7964310001116,566.7964310001116,f,0.41058659995906055,567.2311536001507,567.2311536001507,567.2311536001507,567.2311536001507,567.2311536001507,567.2311536001507,567.528169499943,567.528169499943,569.0897794000339,569.0897794000339,569.0897794000339,569.0897794000339,569.0897794000339,569.0897794000339,569.0734649000224,569.0734649000224,569.0897794000339,569.0897794000339,569.0897794000339,569.0897794000339,569.0897794000339,569.0897794000339,569.0897794000339,569.0897794000339,569.0897794000339,571.599397999933,571.599397999933,571.599397999933,571.599397999933,571.599397999933,30,67,46,17,67,64,7.0,0.44796259980648756,572.0646307000425,573.8274449000601,,,,,,,155,f,26,2023-04-03_14h43.39.608,RL,2022.2.4,60.01990261150946,
1,73,0,73,0,,,,,,,,,,None,573.8274449000601,573.8274449000601,573.8274449000601,573.8274449000601,573.8274449000601,573.8274449000601,f,0.4383399998769164,574.294066700153,574.294066700153,574.294066700153,574.294066700153,574.294066700153,574.294066700153,574.592190900119,574.592190900119,575.9048862999771,575.9048862999771,575.9048862999771,575.9048862999771,575.9048862999771,575.9048862999771,575.9048862999771,575.9048862999771,575.9048862999771,575.9048862999771,575.9048862999771,575.9048862999771,575.9048862999771,575.9048862999771,575.9048862999771,575.9048862999771,575.9048862999771,578.4141963000875,578.4141963000875,578.4141963000875,578.4141963000875,578.4141963000875,32,71,50,29,71,71,4.0,0.5641039998736233,578.9956525000744,580.5917734000832,,,,,,,155,f,26,2023-04-03_14h43.39.608,RL,2022.2.4,60.01990261150946,
1,74,0,74,0,,,,,,,,,,None,580.5917734000832,580.5917734000832,580.5917734000832,580.5917734000832,580.5917734000832,580.5917734000832,f,0.4312024998944253,581.041469699936,581.041469699936,581.041469699936,581.041469699936,581.041469699936,581.041469699936,581.3403231000993,581.3403231000993,582.3204306000844,582.3204306000844,582.3204306000844,582.3204306000844,582.3204306000844,582.3204306000844,582.3204306000844,582.3204306000844,582.3204306000844,582.3204306000844,582.3204306000844,582.3204306000844,582.3204306000844,582.3204306000844,582.3204306000844,582.3204306000844,582.3204306000844,584.829840300139,584.829840300139,584.829840300139,584.829840300139,584.829840300139,35,66,50,24,66,61,7.0,0.6637744000181556,585.5115918000229,587.1239432999864,,,,,,,155,f,26,2023-04-03_14h43.39.608,RL,2022.2.4,60.01990261150946,
1,75,0,75,0,,,,,,,,,,q,618.1893075001426,618.1893075001426,618.1893075001426,618.1893075001426,618.1893075001426,618.1893075001426,f,0.8171292999759316,619.0386673000176,619.0386673000176,619.0386673000176,619.0386673000176,619.0386673000176,619.0386673000176,619.3368298001587,619.3368298001587,621.281523700105,621.281523700105,621.281523700105,621.281523700105,621.281523700105,621.281523700105,621.281523700105,621.281523700105,621.281523700105,621.281523700105,621.281523700105,621.281523700105,621.281523700105,621.281523700105,621.281523700105,621.281523700105,621.281523700105,623.7901554000564,623.7901554000564,623.7901554000564,623.7901554000564,623.7901554000564,29,67,44,21,67,51,7.0,0.8973055998794734,624.7042358000763,626.5665856001433,587.1239432999864,587.1239432999864,31.038432199973613,,,,155,f,26,2023-04-03_14h43.39.608,RL,2022.2.4,60.01990261150946,
1,76,0,76,0,,,,,,,,,,None,626.5665856001433,626.5665856001433,626.5665856001433,626.5665856001433,626.5665856001433,626.5665856001433,r,0.36319159995764494,626.9516034000553,626.9516034000553,626.9516034000553,626.9516034000553,626.9516034000553,626.9516034000553,627.2483000000939,627.2483000000939,628.7604628000408,628.7604628000408,628.7604628000408,628.7604628000408,628.7604628000408,628.7604628000408,628.7604628000408,628.7604628000408,628.7604628000408,628.7604628000408,628.7604628000408,628.7604628000408,628.7604628000408,628.7604628000408,628.7604628000408,628.7604628000408,628.7604628000408,631.269917299971,631.269917299971,631.269917299971,631.269917299971,631.269917299971,22,73,46,23,22,36,1.0,0.6636533001437783,631.9510453999974,633.9461153999437,,,,,,,155,f,26,2023-04-03_14h43.39.608,RL,2022.2.4,60.01990261150946,
1,77,0,77,0,,,,,,,,,,None,633.9461153999437,633.9461153999437,633.9461153999437,633.9461153999437,633.9461153999437,633.9461153999437,f,0.32264270004816353,634.2983522999566,634.2983522999566,634.2983522999566,634.2983522999566,634.2983522999566,634.2983522999566,634.594883600017,634.594883600017,636.4063337999396,636.4063337999396,636.4063337999396,636.4063337999396,636.4063337999396,636.4063337999396,636.4063337999396,636.4063337999396,636.4063337999396,636.4063337999396,636.4063337999396,636.4063337999396,636.4063337999396,636.4063337999396,636.4063337999396,636.4063337999396,636.4063337999396,638.9155367000494,638.9155367000494,638.9155367000494,638.9155367000494,638.9155367000494,22,66,41,14,66,57,7.0,0.5643337999936193,639.4973927000538,641.0270567999687,,,,,,,155,f,26,2023-04-03_14h43.39.608,RL,2022.2.4,60.01990261150946,
1,78,0,78,0,,,,,,,,,,None,641.0270567999687,641.0270567999687,641.0270567999687,641.0270567999687,641.0270567999687,641.0270567999687,j,0.3333835999947041,641.3936106001493,641.3936106001493,641.3936106001493,641.3936106001493,641.3936106001493,641.3936106001493,641.6923512001522,641.6923512001522,643.5701085999608,643.5701085999608,643.5701085999608,643.5701085999608,643.5701085999608,643.5701085999608,643.5701085999608,643.5701085999608,643.5701085999608,643.5701085999608,643.5701085999608,643.5701085999608,643.5701085999608,643.5701085999608,643.5701085999608,643.5701085999608,643.5701085999608,646.0792865001131,646.0792865001131,646.0792865001131,646.0792865001131,646.0792865001131,28,60,52,17,17,60,1.0,0.6473276999313384,646.7441209000535,648.7227728001308,,,,,,,155,f,26,2023-04-03_14h43.39.608,RL,2022.2.4,60.01990261150946,
1,79,0,79,0,,,,,,,,,,None,648.7227728001308,648.7227728001308,648.7227728001308,648.7227728001308,648.7227728001308,648.7227728001308,i,0.3608769001439214,649.1061881000642,649.1061881000642,649.1061881000642,649.1061881000642,649.1061881000642,649.1061881000642,649.4047529001255,649.4047529001255,650.6012999000959,650.6012999000959,650.6012999000959,650.6012999000959,650.6012999000959,650.6012999000959,650.5844455999322,650.5844455999322,650.6012999000959,650.6012999000959,650.6012999000959,650.6012999000959,650.6012999000959,650.6012999000959,650.6012999000959,650.6012999000959,650.6012999000959,653.1099879001267,653.1099879001267,653.1099879001267,653.1099879001267,653.1099879001267,28,66,50,17,50,58,3.0,1.2126510001253337,654.3402960000094,656.0691285999492,,,,,,,155,f,26,2023-04-03_14h43.39.608,RL,2022.2.4,60.01990261150946,
1,80,0,80,0,,,,,,,,,,None,656.0691285999492,656.0691285999492,656.0691285999492,656.0691285999492,656.0691285999492,656.0691285999492,i,0.4425251998472959,656.5371606000699,656.5371606000699,656.5371606000699,656.5371606000699,656.5371606000699,656.5371606000699,656.8342279000208,656.8342279000208,658.1638595999684,658.1638595999684,658.1638595999684,658.1638595999684,658.1638595999684,658.1638595999684,658.1638595999684,658.1638595999684,658.1638595999684,658.1638595999684,658.1638595999684,658.1638595999684,658.1638595999684,658.1638595999684,658.1638595999684,658.1638595999684,658.1638595999684,660.6727553000674,660.6727553000674,660.6727553000674,660.6727553000674,660.6727553000674,23,53,49,16,49,61,1.0,0.5637020999565721,661.2547657999676,663.2334116999991,,,,,,,155,f,26,2023-04-03_14h43.39.608,RL,2022.2.4,60.01990261150946,
1,81,0,81,0,,,,,,,,,,None,663.2334116999991,663.2334116999991,663.2334116999991,663.2334116999991,663.2334116999991,663.2334116999991,f,0.6213358999229968,663.8820809000172,663.8820809000172,663.8820809000172,663.8820809000172,663.8820809000172,663.8820809000172,664.1810292000882,664.1810292000882,665.4273880999535,665.4273880999535,665.4273880999535,665.4273880999535,665.4273880999535,665.4273880999535,665.4273880999535,665.4273880999535,665.4273880999535,665.4273880999535,665.4273880999535,665.4273880999535,665.4273880999535,665.4273880999535,665.4273880999535,665.4273880999535,665.4273880999535,667.9363427001517,667.9363427001517,667.9363427001517,667.9363427001517,667.9363427001517,25,55,52,16,55,70,2.0,0.813756899908185,668.7678787999321,670.3133499999531,,,,,,,155,f,26,2023-04-03_14h43.39.608,RL,2022.2.4,60.01990261150946,
1,82,0,82,0,,,,,,,,,,None,670.3133499999531,670.3133499999531,670.3133499999531,670.3133499999531,670.3133499999531,670.3133499999531,f,0.34462239989079535,670.6820668999571,670.6820668999571,670.6820668999571,670.6820668999571,670.6820668999571,670.6820668999571,670.9789444000926,670.9789444000926,671.8429116001353,671.8429116001353,671.8429116001353,671.8429116001353,671.8429116001353,671.8429116001353,671.8429116001353,671.8429116001353,671.8429116001353,671.8429116001353,671.8429116001353,671.8429116001353,671.8429116001353,671.8429116001353,671.8429116001353,671.8429116001353,671.8429116001353,674.3523220000789,674.3523220000789,674.3523220000789,674.3523220000789,674.3523220000789,30,54,54,20,54,43,6.0,0.6463095000945032,675.0170839000493,676.9620032000821,,,,,,,155,f,26,2023-04-03_14h43.39.608,RL,2022.2.4,60.01990261150946,
1,83,0,83,0,,,,,,,,,,None,676.9620032000821,676.9620032000821,676.9620032000821,676.9620032000821,676.9620032000821,676.9620032000821,f,0.27495689992792904,677.2640162000898,677.2640162000898,677.2640162000898,677.2640162000898,677.2640162000898,677.2640162000898,677.5606565999333,677.5606565999333,679.5056272000074,679.5056272000074,679.5056272000074,679.5056272000074,679.5056272000074,679.5056272000074,679.5056272000074,679.5056272000074,679.5056272000074,679.5056272000074,679.5056272000074,679.5056272000074,679.5056272000074,679.5056272000074,679.5056272000074,679.5056272000074,679.5056272000074,682.014418900013,682.014418900013,682.014418900013,682.014418900013,682.014418900013,32,58,57,24,58,67,2.0,0.6482349999714643,682.6795173999853,684.4249022000004,,,,,,,155,f,26,2023-04-03_14h43.39.608,RL,2022.2.4,60.01990261150946,
1,84,0,84,0,,,,,,,,,,None,684.4249022000004,684.4249022000004,684.4249022000004,684.4249022000004,684.4249022000004,684.4249022000004,i,0.3838349999859929,684.8421122999862,684.8421122999862,684.8421122999862,684.8421122999862,684.8421122999862,684.8421122999862,685.1403046001215,685.1403046001215,686.6860660000239,686.6860660000239,686.6860660000239,686.6860660000239,686.6860660000239,686.6860660000239,686.6693570001516,686.6693570001516,686.6860660000239,686.6860660000239,686.6860660000239,686.6860660000239,686.6860660000239,686.6860660000239,686.6860660000239,686.6860660000239,686.6860660000239,689.1950918000657,689.1950918000657,689.1950918000657,689.1950918000657,689.1950918000657,28,55,58,21,58,63,4.0,1.294812300009653,690.5081533000339,692.2539190000389,,,,,,,155,f,26,2023-04-03_14h43.39.608,RL,2022.2.4,60.01990261150946,
1,85,0,85,0,,,,,,,,,,None,692.2539190000389,692.2539190000389,692.2539190000389,692.2539190000389,692.2539190000389,692.2539190000389,i,0.3814377998933196,692.655941199977,692.655941199977,692.655941199977,692.655941199977,692.655941199977,692.655941199977,692.9523698999546,692.9523698999546,694.4317467999645,694.4317467999645,694.4317467999645,694.4317467999645,694.4317467999645,694.4317467999645,694.4148222999647,694.4148222999647,694.4317467999645,694.4317467999645,694.4317467999645,694.4317467999645,694.4317467999645,694.4317467999645,694.4317467999645,694.4317467999645,694.4317467999645,696.9404299999587,696.9404299999587,696.9404299999587,696.9404299999587,696.9404299999587,29,48,56,31,56,53,6.0,0.514459399972111,697.4722223000135,699.2682616000529,,,,,,,155,f,26,2023-04-03_14h43.39.608,RL,2022.2.4,60.01990261150946,
1,86,0,86,0,,,,,,,,,,None,699.2682616000529,699.2682616000529,699.2682616000529,699.2682616000529,699.2682616000529,699.2682616000529,f,0.40548000019043684,699.7026440000627,699.7026440000627,699.7026440000627,699.7026440000627,699.7026440000627,699.7026440000627,699.9996516001411,699.9996516001411,701.0466418999713,701.0466418999713,701.0466418999713,701.0466418999713,701.0466418999713,701.0466418999713,701.0466418999713,701.0466418999713,701.0466418999713,701.0466418999713,701.0466418999713,701.0466418999713,701.0466418999713,701.0466418999713,701.0466418999713,701.0466418999713,701.0466418999713,703.5556379000191,703.5556379000191,703.5556379000191,703.5556379000191,703.5556379000191,37,53,62,32,53,61,1.0,1.8609852998051792,705.4339908000547,707.1465998000931,,,,,,,155,f,26,2023-04-03_14h43.39.608,RL,2022.2.4,60.01990261150946,
1,87,0,87,0,,,,,,,,,,None,707.1465998000931,707.1465998000931,707.1465998000931,707.1465998000931,707.1465998000931,707.1465998000931,j,0.3798193000257015,707.5480381001253,707.5480381001253,707.5480381001253,707.5480381001253,707.5480381001253,707.5480381001253,707.8451050000731,707.8451050000731,709.0582670001313,709.0582670001313,709.0582670001313,709.0582670001313,709.0582670001313,709.0582670001313,709.0582670001313,709.0582670001313,709.0582670001313,709.0582670001313,709.0582670001313,709.0582670001313,709.0582670001313,709.0582670001313,709.0582670001313,709.0582670001313,709.0582670001313,711.5671037000138,711.5671037000138,711.5671037000138,711.5671037000138,711.5671037000138,33,54,58,38,38,65,1.0,1.7612485999707133,713.3459582000505,714.8588121000212,,,,,,,155,f,26,2023-04-03_14h43.39.608,RL,2022.2.4,60.01990261150946,
1,88,0,88,0,,,,,,,,,,None,714.8588121000212,714.8588121000212,714.8588121000212,714.8588121000212,714.8588121000212,714.8588121000212,r,0.3550305999815464,715.2440842001233,715.2440842001233,715.2440842001233,715.2440842001233,715.2440842001233,715.2440842001233,715.5405067000538,715.5405067000538,716.5045151000377,716.5045151000377,716.5045151000377,716.5045151000377,716.5045151000377,716.5045151000377,716.4876362001523,716.4876362001523,716.5045151000377,716.5045151000377,716.5045151000377,716.5045151000377,716.5045151000377,716.5045151000377,716.5045151000377,716.5045151000377,716.5045151000377,719.0137909001205,719.0137909001205,719.0137909001205,719.0137909001205,719.0137909001205,35,55,62,41,35,49,1.0,1.7609443000983447,720.7921645001043,722.754015600076,,,,,,,155,f,26,2023-04-03_14h43.39.608,RL,2022.2.4,60.01990261150946,
1,89,0,89,0,,,,,,,,,,None,722.754015600076,722.754015600076,722.754015600076,722.754015600076,722.754015600076,722.754015600076,f,0.3479669999796897,723.121170300059,723.121170300059,723.121170300059,723.121170300059,723.121170300059,723.121170300059,723.419130400056,723.419130400056,724.3833626999985,724.3833626999985,724.3833626999985,724.3833626999985,724.3833626999985,724.3833626999985,724.3833626999985,724.3833626999985,724.3833626999985,724.3833626999985,724.3833626999985,724.3833626999985,724.3833626999985,724.3833626999985,724.3833626999985,724.3833626999985,724.3833626999985,726.892258200096,726.892258200096,726.892258200096,726.892258200096,726.892258200096,30,64,65,35,64,49,7.0,0.564189599826932,727.4739538000431,729.1037439999636,,,,,,,155,f,26,2023-04-03_14h43.39.608,RL,2022.2.4,60.01990261150946,
1,90,0,90,0,,,,,,,,,,None,729.1037439999636,729.1037439999636,729.1037439999636,729.1037439999636,729.1037439999636,729.1037439999636,f,0.376153799938038,729.5039162000176,729.5039162000176,729.5039162000176,729.5039162000176,729.5039162000176,729.5039162000176,729.8017758999486,729.8017758999486,731.164535399992,731.164535399992,731.164535399992,731.164535399992,731.164535399992,731.164535399992,731.164535399992,731.164535399992,731.164535399992,731.164535399992,731.164535399992,731.164535399992,731.164535399992,731.164535399992,731.164535399992,731.164535399992,731.164535399992,733.673630699981,733.673630699981,733.673630699981,733.673630699981,733.673630699981,28,54,54,35,54,70,2.0,0.5141050000675023,734.2053207000718,736.0844277001452,,,,,,,155,f,26,2023-04-03_14h43.39.608,RL,2022.2.4,60.01990261150946,
1,91,0,91,0,,,,,,,,,,None,736.0844277001452,736.0844277001452,736.0844277001452,736.0844277001452,736.0844277001452,736.0844277001452,i,0.4239211000967771,736.5354023999535,736.5354023999535,736.5354023999535,736.5354023999535,736.5354023999535,736.5354023999535,736.8324335000943,736.8324335000943,738.0125977999996,738.0125977999996,738.0125977999996,738.0125977999996,738.0125977999996,738.0125977999996,738.0125977999996,738.0125977999996,738.0125977999996,738.0125977999996,738.0125977999996,738.0125977999996,738.0125977999996,738.0125977999996,738.0125977999996,738.0125977999996,738.0125977999996,740.5216306000948,740.5216306000948,740.5216306000948,740.5216306000948,740.5216306000948,35,63,55,30,55,53,5.0,0.4802155999932438,741.0203235000372,742.9822116999421,,,,,,,155,f,26,2023-04-03_14h43.39.608,RL,2022.2.4,60.01990261150946,
1,92,0,92,0,,,,,,,,,,None,742.9822116999421,742.9822116999421,742.9822116999421,742.9822116999421,742.9822116999421,742.9822116999421,i,0.42963550006970763,743.4332119999453,743.4332119999453,743.4332119999453,743.4332119999453,743.4332119999453,743.4332119999453,743.7305469000712,743.7305469000712,744.844104600139,744.844104600139,744.844104600139,744.844104600139,744.844104600139,744.844104600139,744.844104600139,744.844104600139,744.844104600139,744.844104600139,744.844104600139,744.844104600139,744.844104600139,744.844104600139,744.844104600139,744.844104600139,744.844104600139,747.3527300001588,747.3527300001588,747.3527300001588,747.3527300001588,747.3527300001588,35,61,54,29,54,48,6.0,0.3648165001068264,747.73525170004,749.4149184001144,,,,,,,155,f,26,2023-04-03_14h43.39.608,RL,2022.2.4,60.01990261150946,
1,93,0,93,0,,,,,,,,,,None,749.4149184001144,749.4149184001144,749.4149184001144,749.4149184001144,749.4149184001144,749.4149184001144,i,0.30107959988527,749.7487602001056,749.7487602001056,749.7487602001056,749.7487602001056,749.7487602001056,749.7487602001056,750.0465349000879,750.0465349000879,751.9911861999426,751.9911861999426,751.9911861999426,751.9911861999426,751.9911861999426,751.9911861999426,751.9911861999426,751.9911861999426,751.9911861999426,751.9911861999426,751.9911861999426,751.9911861999426,751.9911861999426,751.9911861999426,751.9911861999426,751.9911861999426,751.9911861999426,754.5002953000367,754.5002953000367,754.5002953000367,754.5002953000367,754.5002953000367,32,53,51,26,51,53,4.0,0.4648871999233961,754.9821049999446,756.5453494000249,,,,,,,155,f,26,2023-04-03_14h43.39.608,RL,2022.2.4,60.01990261150946,
1,94,0,94,0,,,,,,,,,,None,756.5453494000249,756.5453494000249,756.5453494000249,756.5453494000249,756.5453494000249,756.5453494000249,i,0.36800540005788207,756.946202600142,756.946202600142,756.946202600142,756.946202600142,756.946202600142,756.946202600142,757.2433484001085,757.2433484001085,759.2380611000117,759.2380611000117,759.2380611000117,759.2380611000117,759.2380611000117,759.2380611000117,759.2380611000117,759.2380611000117,759.2380611000117,759.2380611000117,759.2380611000117,759.2380611000117,759.2380611000117,759.2380611000117,759.2380611000117,759.2380611000117,759.2380611000117,761.747179799946,761.747179799946,761.747179799946,761.747179799946,761.747179799946,26,58,56,33,56,57,4.0,0.5306144999340177,762.2953013000078,763.9251820000354,,,,,,,155,f,26,2023-04-03_14h43.39.608,RL,2022.2.4,60.01990261150946,
1,95,0,95,0,,,,,,,,,,None,763.9251820000354,763.9251820000354,763.9251820000354,763.9251820000354,763.9251820000354,763.9251820000354,f,0.3063368999864906,764.2603112000506,764.2603112000506,764.2603112000506,764.2603112000506,764.2603112000506,764.2603112000506,764.5571552999318,764.5571552999318,766.0197163999546,766.0197163999546,766.0197163999546,766.0197163999546,766.0197163999546,766.0197163999546,766.0197163999546,766.0197163999546,766.0197163999546,766.0197163999546,766.0197163999546,766.0197163999546,766.0197163999546,766.0197163999546,766.0197163999546,766.0197163999546,766.0197163999546,768.5281104999594,768.5281104999594,768.5281104999594,768.5281104999594,768.5281104999594,45,55,57,34,55,55,5.0,0.5471195001155138,769.093455699971,770.7729100000579,,,,,,,155,f,26,2023-04-03_14h43.39.608,RL,2022.2.4,60.01990261150946,
1,96,0,96,0,,,,,,,,,,None,770.7729100000579,770.7729100000579,770.7729100000579,770.7729100000579,770.7729100000579,770.7729100000579,f,0.436934299999848,771.2411933001131,771.2411933001131,771.2411933001131,771.2411933001131,771.2411933001131,771.2411933001131,771.5377567000687,771.5377567000687,773.3493405000772,773.3493405000772,773.3493405000772,773.3493405000772,773.3493405000772,773.3493405000772,773.3326070001349,773.3326070001349,773.3493405000772,773.3493405000772,773.3493405000772,773.3493405000772,773.3493405000772,773.3493405000772,773.3493405000772,773.3493405000772,773.3493405000772,775.8586486999411,775.8586486999411,775.8586486999411,775.8586486999411,775.8586486999411,31,51,60,32,51,48,6.0,0.6478083999827504,776.5233036000282,778.418533799937,,,,,,,155,f,26,2023-04-03_14h43.39.608,RL,2022.2.4,60.01990261150946,
1,97,0,97,0,,,,,,,,,,None,778.418533799937,778.418533799937,778.418533799937,778.418533799937,778.418533799937,778.418533799937,f,0.3042077000718564,778.752901500091,778.752901500091,778.752901500091,778.752901500091,778.752901500091,778.752901500091,779.0506253000349,779.0506253000349,780.4634577000979,780.4634577000979,780.4634577000979,780.4634577000979,780.4634577000979,780.4634577000979,780.4634577000979,780.4634577000979,780.4634577000979,780.4634577000979,780.4634577000979,780.4634577000979,780.4634577000979,780.4634577000979,780.4634577000979,780.4634577000979,780.4634577000979,782.9719992999453,782.9719992999453,782.9719992999453,782.9719992999453,782.9719992999453,33,54,49,30,54,51,7.0,0.3637759000994265,783.354758700123,784.9675944000483,,,,,,,155,f,26,2023-04-03_14h43.39.608,RL,2022.2.4,60.01990261150946,
1,98,0,98,0,,,,,,,,,,None,784.9675944000483,784.9675944000483,784.9675944000483,784.9675944000483,784.9675944000483,784.9675944000483,f,0.24766159988939762,785.2362905000336,785.2362905000336,785.2362905000336,785.2362905000336,785.2362905000336,785.2362905000336,785.5332096000202,785.5332096000202,787.2616950999945,787.2616950999945,787.2616950999945,787.2616950999945,787.2616950999945,787.2616950999945,787.2451754000504,787.2451754000504,787.2616950999945,787.2616950999945,787.2616950999945,787.2616950999945,787.2616950999945,787.2616950999945,787.2616950999945,787.2616950999945,787.2616950999945,789.7704577001277,789.7704577001277,789.7704577001277,789.7704577001277,789.7704577001277,39,58,52,27,58,52,7.0,0.4978914000093937,790.2858260001522,792.2477011000738,,,,,,,155,f,26,2023-04-03_14h43.39.608,RL,2022.2.4,60.01990261150946,
1,99,0,99,0,,,,,,,,,,None,792.2477011000738,792.2477011000738,792.2477011000738,792.2477011000738,792.2477011000738,792.2477011000738,f,0.27612289995886385,792.5500758001581,792.5500758001581,792.5500758001581,792.5500758001581,792.5500758001581,792.5500758001581,792.8463709999342,792.8463709999342,793.8434059999418,793.8434059999418,793.8434059999418,793.8434059999418,793.8434059999418,793.8434059999418,793.8434059999418,793.8434059999418,793.8434059999418,793.8434059999418,793.8434059999418,793.8434059999418,793.8434059999418,793.8434059999418,793.8434059999418,793.8434059999418,793.8434059999418,796.3523649000563,796.3523649000563,796.3523649000563,796.3523649000563,796.3523649000563,38,59,51,21,59,54,7.0,0.6472270998638123,797.0169140000362,798.8797447001562,,,,,,,155,f,26,2023-04-03_14h43.39.608,RL,2022.2.4,60.01990261150946,
1,100,0,100,0,,,,,,,,,,None,798.8797447001562,798.8797447001562,798.8797447001562,798.8797447001562,798.8797447001562,798.8797447001562,f,0.42150639998726547,799.3308164000046,799.3308164000046,799.3308164000046,799.3308164000046,799.3308164000046,799.3308164000046,799.6275498999748,799.6275498999748,800.5256153000519,800.5256153000519,800.5256153000519,800.5256153000519,800.5256153000519,800.5256153000519,800.5256153000519,800.5256153000519,800.5256153000519,800.5256153000519,800.5256153000519,800.5256153000519,800.5256153000519,800.5256153000519,800.5256153000519,800.5256153000519,800.5256153000519,803.0344508001581,803.0344508001581,803.0344508001581,803.0344508001581,803.0344508001581,42,58,47,21,58,67,1.0,0.5313276001252234,803.5830246000551,805.1624203000683,,,,,,,155,f,26,2023-04-03_14h43.39.608,RL,2022.2.4,60.01990261150946,
1,101,0,101,0,,,,,,,,,,None,805.1624203000683,805.1624203000683,805.1624203000683,805.1624203000683,805.1624203000683,805.1624203000683,i,0.3819758000317961,805.5631635999307,805.5631635999307,805.5631635999307,805.5631635999307,805.5631635999307,805.5631635999307,805.8607960999943,805.8607960999943,806.974417099962,806.974417099962,806.974417099962,806.974417099962,806.974417099962,806.974417099962,806.9578092999291,806.9578092999291,806.974417099962,806.974417099962,806.974417099962,806.974417099962,806.974417099962,806.974417099962,806.974417099962,806.974417099962,806.974417099962,809.4835082001518,809.4835082001518,809.4835082001518,809.4835082001518,809.4835082001518,37,59,52,26,52,51,5.0,0.6151177999563515,810.1152618001215,812.0765955001116,,,,,,,155,f,26,2023-04-03_14h43.39.608,RL,2022.2.4,60.01990261150946,
1,102,0,102,0,,,,,,,,,,None,812.0765955001116,812.0765955001116,812.0765955001116,812.0765955001116,812.0765955001116,812.0765955001116,i,0.3410638999193907,812.4453388000838,812.4453388000838,812.4453388000838,812.4453388000838,812.4453388000838,812.4453388000838,812.7422498001251,812.7422498001251,813.5897721000947,813.5897721000947,813.5897721000947,813.5897721000947,813.5897721000947,813.5897721000947,813.5897721000947,813.5897721000947,813.5897721000947,813.5897721000947,813.5897721000947,813.5897721000947,813.5897721000947,813.5897721000947,813.5897721000947,813.5897721000947,813.5897721000947,816.0987136000767,816.0987136000767,816.0987136000767,816.0987136000767,816.0987136000767,37,65,48,23,48,50,2.0,0.3478910999838263,816.463836299954,818.4263415001333,,,,,,,155,f,26,2023-04-03_14h43.39.608,RL,2022.2.4,60.01990261150946,
1,103,0,103,0,,,,,,,,,,None,818.4263415001333,818.4263415001333,818.4263415001333,818.4263415001333,818.4263415001333,818.4263415001333,f,0.45998060004785657,818.9111524000764,818.9111524000764,818.9111524000764,818.9111524000764,818.9111524000764,818.9111524000764,819.2076361000072,819.2076361000072,820.6370119999629,820.6370119999629,820.6370119999629,820.6370119999629,820.6370119999629,820.6370119999629,820.6370119999629,820.6370119999629,820.6370119999629,820.6370119999629,820.6370119999629,820.6370119999629,820.6370119999629,820.6370119999629,820.6370119999629,820.6370119999629,820.6370119999629,823.1459868999664,823.1459868999664,823.1459868999664,823.1459868999664,823.1459868999664,43,70,51,22,70,61,7.0,0.48115050001069903,823.6450072999578,825.3407668999862,,,,,,,155,f,26,2023-04-03_14h43.39.608,RL,2022.2.4,60.01990261150946,
1,104,0,104,0,,,,,,,,,,None,825.3407668999862,825.3407668999862,825.3407668999862,825.3407668999862,825.3407668999862,825.3407668999862,f,0.28328739991411567,825.6591902000364,825.6591902000364,825.6591902000364,825.6591902000364,825.6591902000364,825.6591902000364,825.9557126001455,825.9557126001455,827.7678577001207,827.7678577001207,827.7678577001207,827.7678577001207,827.7678577001207,827.7678577001207,827.7678577001207,827.7678577001207,827.7678577001207,827.7678577001207,827.7678577001207,827.7678577001207,827.7678577001207,827.7678577001207,827.7678577001207,827.7678577001207,827.7678577001207,830.2767286000308,830.2767286000308,830.2767286000308,830.2767286000308,830.2767286000308,36,67,47,21,67,47,7.0,0.7632212000899017,831.0575178000145,832.6043460001238,,,,,,,155,f,26,2023-04-03_14h43.39.608,RL,2022.2.4,60.01990261150946,
1,105,0,105,0,,,,,,,,,,None,832.6043460001238,832.6043460001238,832.6043460001238,832.6043460001238,832.6043460001238,832.6043460001238,f,0.2880738000385463,832.9228095000144,832.9228095000144,832.9228095000144,832.9228095000144,832.9228095000144,832.9228095000144,833.2195651000366,833.2195651000366,834.9310067000333,834.9310067000333,834.9310067000333,834.9310067000333,834.9310067000333,834.9310067000333,834.9310067000333,834.9310067000333,834.9310067000333,834.9310067000333,834.9310067000333,834.9310067000333,834.9310067000333,834.9310067000333,834.9310067000333,834.9310067000333,834.9310067000333,837.4401945001446,837.4401945001446,837.4401945001446,837.4401945001446,837.4401945001446,45,60,57,21,60,60,5.0,0.3986739998217672,837.8560349999461,839.3856763001531,,,,,,,155,f,26,2023-04-03_14h43.39.608,RL,2022.2.4,60.01990261150946,
1,106,0,106,0,,,,,,,,,,None,839.3856763001531,839.3856763001531,839.3856763001531,839.3856763001531,839.3856763001531,839.3856763001531,f,0.2608628000598401,839.6706296999473,839.6706296999473,839.6706296999473,839.6706296999473,839.6706296999473,839.6706296999473,839.9680701999459,839.9680701999459,841.1644359999336,841.1644359999336,841.1644359999336,841.1644359999336,841.1644359999336,841.1644359999336,841.1644359999336,841.1644359999336,841.1644359999336,841.1644359999336,841.1644359999336,841.1644359999336,841.1644359999336,841.1644359999336,841.1644359999336,841.1644359999336,841.1644359999336,843.6734905000776,843.6734905000776,843.6734905000776,843.6734905000776,843.6734905000776,38,69,49,19,69,49,7.0,0.5296062000561506,844.2212358999532,846.0502077001147,,,,,,,155,f,26,2023-04-03_14h43.39.608,RL,2022.2.4,60.01990261150946,
1,107,0,107,0,,,,,,,,,,None,846.0502077001147,846.0502077001147,846.0502077001147,846.0502077001147,846.0502077001147,846.0502077001147,f,0.25886780000291765,846.333582600113,846.333582600113,846.333582600113,846.333582600113,846.333582600113,846.333582600113,846.6321034999564,846.6321034999564,847.8952647000551,847.8952647000551,847.8952647000551,847.8952647000551,847.8952647000551,847.8952647000551,847.8952647000551,847.8952647000551,847.8952647000551,847.8952647000551,847.8952647000551,847.8952647000551,847.8952647000551,847.8952647000551,847.8952647000551,847.8952647000551,847.8952647000551,850.4052436000202,850.4052436000202,850.4052436000202,850.4052436000202,850.4052436000202,52,67,58,21,67,67,5.0,0.7309869001619518,851.1532024999615,853.0321732999291,,,,,,,155,f,26,2023-04-03_14h43.39.608,RL,2022.2.4,60.01990261150946,
1,108,0,108,0,,,,,,,,,,None,853.0321732999291,853.0321732999291,853.0321732999291,853.0321732999291,853.0321732999291,853.0321732999291,f,0.26526609994471073,853.3158059001435,853.3158059001435,853.3158059001435,853.3158059001435,853.3158059001435,853.3158059001435,853.6139663001522,853.6139663001522,854.6943537001498,854.6943537001498,854.6943537001498,854.6943537001498,854.6943537001498,854.6943537001498,854.6943537001498,854.6943537001498,854.6943537001498,854.6943537001498,854.6943537001498,854.6943537001498,854.6943537001498,854.6943537001498,854.6943537001498,854.6943537001498,854.6943537001498,857.2030279999599,857.2030279999599,857.2030279999599,857.2030279999599,857.2030279999599,47,60,60,15,60,52,7.0,0.5314173998776823,857.7516062001232,859.5809019000735,,,,,,,155,f,26,2023-04-03_14h43.39.608,RL,2022.2.4,60.01990261150946,
1,109,0,109,0,,,,,,,,,,None,859.5809019000735,859.5809019000735,859.5809019000735,859.5809019000735,859.5809019000735,859.5809019000735,f,0.28009629994630814,859.8825936999638,859.8825936999638,859.8825936999638,859.8825936999638,859.8825936999638,859.8825936999638,860.1795604999643,860.1795604999643,861.8580422999803,861.8580422999803,861.8580422999803,861.8580422999803,861.8580422999803,861.8580422999803,861.8580422999803,861.8580422999803,861.8580422999803,861.8580422999803,861.8580422999803,861.8580422999803,861.8580422999803,861.8580422999803,861.8580422999803,861.8580422999803,861.8580422999803,864.367293599993,864.367293599993,864.367293599993,864.367293599993,864.367293599993,44,58,53,16,58,71,1.0,0.6808456000871956,865.0652042999864,867.0101222000085,,,,,,,155,f,26,2023-04-03_14h43.39.608,RL,2022.2.4,60.01990261150946,
1,110,0,110,0,,,,,,,,,,None,867.0101222000085,867.0101222000085,867.0101222000085,867.0101222000085,867.0101222000085,867.0101222000085,f,0.39903460000641644,867.4293907000683,867.4293907000683,867.4293907000683,867.4293907000683,867.4293907000683,867.4293907000683,867.7251867000014,867.7251867000014,869.204642200144,869.204642200144,869.204642200144,869.204642200144,869.204642200144,869.204642200144,869.1877761001233,869.1877761001233,869.204642200144,869.204642200144,869.204642200144,869.204642200144,869.204642200144,869.204642200144,869.204642200144,869.204642200144,869.204642200144,871.7135857001413,871.7135857001413,871.7135857001413,871.7135857001413,871.7135857001413,41,62,54,15,62,62,4.0,0.3475705001037568,872.0794925999362,873.8751700001303,,,,,,,155,f,26,2023-04-03_14h43.39.608,RL,2022.2.4,60.01990261150946,
1,111,0,111,0,,,,,,,,,,None,873.8751700001303,873.8751700001303,873.8751700001303,873.8751700001303,873.8751700001303,873.8751700001303,i,0.42637609993107617,874.3259903001599,874.3259903001599,874.3259903001599,874.3259903001599,874.3259903001599,874.3259903001599,874.6236263001338,874.6236263001338,875.4710288001224,875.4710288001224,875.4710288001224,875.4710288001224,875.4710288001224,875.4710288001224,875.4710288001224,875.4710288001224,875.4710288001224,875.4710288001224,875.4710288001224,875.4710288001224,875.4710288001224,875.4710288001224,875.4710288001224,875.4710288001224,875.4710288001224,877.9797938000411,877.9797938000411,877.9797938000411,877.9797938000411,877.9797938000411,45,57,60,4,60,69,1.0,0.6467598001472652,878.6447350999806,880.4570013999473,,,,,,,155,f,26,2023-04-03_14h43.39.608,RL,2022.2.4,60.01990261150946,
1,112,0,112,0,,,,,,,,,,None,880.4570013999473,880.4570013999473,880.4570013999473,880.4570013999473,880.4570013999473,880.4570013999473,f,0.3182189001236111,880.8072999001015,880.8072999001015,880.8072999001015,880.8072999001015,880.8072999001015,880.8072999001015,881.1057091001421,881.1057091001421,882.6180257999804,882.6180257999804,882.6180257999804,882.6180257999804,882.6180257999804,882.6180257999804,882.6180257999804,882.6180257999804,882.6180257999804,882.6180257999804,882.6180257999804,882.6180257999804,882.6180257999804,882.6180257999804,882.6180257999804,882.6180257999804,882.6180257999804,885.1267132000066,885.1267132000066,885.1267132000066,885.1267132000066,885.1267132000066,41,69,66,18,69,59,7.0,0.5146153001114726,885.6589256001171,887.3381269001402,,,,,,,155,f,26,2023-04-03_14h43.39.608,RL,2022.2.4,60.01990261150946,
1,113,0,113,0,,,,,,,,,,None,887.3381269001402,887.3381269001402,887.3381269001402,887.3381269001402,887.3381269001402,887.3381269001402,f,0.29534910013899207,887.6577405000571,887.6577405000571,887.6577405000571,887.6577405000571,887.6577405000571,887.6577405000571,887.9532326001208,887.9532326001208,889.6991656001192,889.6991656001192,889.6991656001192,889.6991656001192,889.6991656001192,889.6991656001192,889.6991656001192,889.6991656001192,889.6991656001192,889.6991656001192,889.6991656001192,889.6991656001192,889.6991656001192,889.6991656001192,889.6991656001192,889.6991656001192,889.6991656001192,892.2076373000164,892.2076373000164,892.2076373000164,892.2076373000164,892.2076373000164,42,63,62,18,63,57,6.0,0.44752309983596206,892.6725572999567,894.4689238001592,,,,,,,155,f,26,2023-04-03_14h43.39.608,RL,2022.2.4,60.01990261150946,
1,114,0,114,0,,,,,,,,,,None,894.4689238001592,894.4689238001592,894.4689238001592,894.4689238001592,894.4689238001592,894.4689238001592,f,0.26235370012000203,894.7542878000531,894.7542878000531,894.7542878000531,894.7542878000531,894.7542878000531,894.7542878000531,895.0510625999887,895.0510625999887,896.5635134000331,896.5635134000331,896.5635134000331,896.5635134000331,896.5635134000331,896.5635134000331,896.5635134000331,896.5635134000331,896.5635134000331,896.5635134000331,896.5635134000331,896.5635134000331,896.5635134000331,896.5635134000331,896.5635134000331,896.5635134000331,896.5635134000331,899.0724442000501,899.0724442000501,899.0724442000501,899.0724442000501,899.0724442000501,43,45,60,6,45,48,3.0,0.51492780004628,899.6040845001116,901.4664175999351,,,,,,,155,f,26,2023-04-03_14h43.39.608,RL,2022.2.4,60.01990261150946,
