bandit,trials.thisRepN,trials.thisTrialN,trials.thisN,trials.thisIndex,instru_img1.started,instru_resp.started,instru_resp.keys,instru_resp.rt,instru_img2.started,instru_resp2.started,instru_resp2.keys,instru_resp2.rt,fixbefore_2.started,rest_response.keys,red.started,green.started,yellow.started,blue.started,choose_bandit.started,Fixation.started,choose_bandit.keys,choose_bandit.rt,black.started,red_2.started,green_2.started,yellow_2.started,blue_2.started,fixation_2.started,docs.started,image_2.started,docs.stopped,image_2.stopped,black.stopped,red_2.stopped,green_2.stopped,yellow_2.stopped,blue_2.stopped,fixation_2.stopped,black_com.started,reward_sub.started,palyerb.started,reward__sub.started,compare.started,red_compare.started,green_com.started,yellow_com.started,blue_com.started,image_3.started,slider.started,text.started,image_4.started,image_5.started,rewardyellow,rewardred,rewardblue,rewardgreen,subchoose,playerb,slider.response,slider.rt,intertrialfix.started,intertrialfix.stopped,bigx.started,bigx.stopped,rest_image.started,rest_response.started,rest_response.rt,image.started,key_resp.started,key_resp.keys,participant,Gender,Age,date,expName,psychopyVersion,frameRate,
,,,,,39.70552529899578,39.70552529899578,space,2.455112689996895,,,,,,,,,,,,,,,,,,,,,,,,,,,,,,,,,,,,,,,,,,,,,,,,,,,,,,,,,,,,,,,156,f,21,2023-04-03_14h43.26.171,RL,2022.2.4,60.03324304732931,
,,,,,,,,,42.21935566799948,42.21935566799948,y,22.504920576000586,,,,,,,,,,,,,,,,,,,,,,,,,,,,,,,,,,,,,,,,,,,,,,,,,,,,,,,,,,,156,f,21,2023-04-03_14h43.26.171,RL,2022.2.4,60.03324304732931,
1,0,0,0,0,,,,,,,,,64.7505539279955,None,65.763521088993,65.763521088993,65.763521088993,65.763521088993,65.763521088993,65.763521088993,i,0.6355400829997961,66.46009095899353,66.46009095899353,66.46009095899353,66.46009095899353,66.46009095899353,66.46009095899353,66.7250414309965,66.7250414309965,68.62790823999967,68.62790823999967,68.67121655399387,68.67121655399387,68.67121655399387,68.67121655399387,68.67121655399387,68.67121655399387,68.67121655399387,68.67121655399387,68.67121655399387,68.67121655399387,68.67121655399387,68.67121655399387,68.67121655399387,68.67121655399387,68.67121655399387,71.17841146899445,71.17841146899445,71.17841146899445,71.17841146899445,71.17841146899445,41,40,61,48,61,45,6.0,1.2344469230010873,72.42727218899381,74.32187309599976,,,,,,,,,156,f,21,2023-04-03_14h43.26.171,RL,2022.2.4,60.03324304732931,
1,1,0,1,0,,,,,,,,,,None,74.32187309599976,74.32187309599976,74.32187309599976,74.32187309599976,74.32187309599976,74.32187309599976,i,0.7317724109962,75.09356575299898,75.09356575299898,75.09356575299898,75.09356575299898,75.09356575299898,75.09356575299898,75.36145601099997,75.36145601099997,77.09705731199938,77.09705731199938,77.14210515199375,77.14210515199375,77.14210515199375,77.14210515199375,77.14210515199375,77.14210515199375,77.14210515199375,77.14210515199375,77.14210515199375,77.14210515199375,77.14210515199375,77.14210515199375,77.14210515199375,77.14210515199375,77.14210515199375,79.63595420099591,79.63595420099591,79.63595420099591,79.63595420099591,79.63595420099591,46,48,63,52,63,26,6.0,0.9994683490003808,80.64819769299356,82.6592459359963,,,,,,,,,156,f,21,2023-04-03_14h43.26.171,RL,2022.2.4,60.03324304732931,
1,2,0,2,0,,,,,,,,,,None,82.6592459359963,82.6592459359963,82.6592459359963,82.6592459359963,82.6592459359963,82.6592459359963,i,0.57206958700408,83.27970858499611,83.27970858499611,83.27970858499611,83.27970858499611,83.27970858499611,83.27970858499611,83.54903501199442,83.54903501199442,84.46919750899542,84.46919750899542,84.5105411379991,84.5105411379991,84.5105411379991,84.5105411379991,84.5105411379991,84.5105411379991,84.5105411379991,84.5105411379991,84.5105411379991,84.5105411379991,84.5105411379991,84.5105411379991,84.5105411379991,84.5105411379991,84.5105411379991,87.01229853399855,87.01229853399855,87.01229853399855,87.01229853399855,87.01229853399855,53,45,56,57,56,30,5.0,1.3618043620008393,88.38934267999866,89.9961511549991,,,,,,,,,156,f,21,2023-04-03_14h43.26.171,RL,2022.2.4,60.03324304732931,
1,3,0,3,0,,,,,,,,,,None,89.9961511549991,89.9961511549991,89.9961511549991,89.9961511549991,89.9961511549991,89.9961511549991,i,0.7915953529955004,90.8350664009995,90.8350664009995,90.8350664009995,90.8350664009995,90.8350664009995,90.8350664009995,91.10199841199938,91.10199841199938,92.4241832819971,92.4241832819971,92.46459371699893,92.46459371699893,92.46459371699893,92.46459371699893,92.46459371699893,92.46459371699893,92.46459371699893,92.46459371699893,92.46459371699893,92.46459371699893,92.46459371699893,92.46459371699893,92.46459371699893,92.46459371699893,92.46459371699893,94.97504065499379,94.97504065499379,94.97504065499379,94.97504065499379,94.97504065499379,56,49,65,53,65,52,5.0,0.7352548780036159,95.72433858299337,97.69883020599809,,,,,,,,,156,f,21,2023-04-03_14h43.26.171,RL,2022.2.4,60.03324304732931,
1,4,0,4,0,,,,,,,,,,None,97.69883020599809,97.69883020599809,97.69883020599809,97.69883020599809,97.69883020599809,97.69883020599809,r,0.5323031770021771,98.27498771399405,98.27498771399405,98.27498771399405,98.27498771399405,98.27498771399405,98.27498771399405,98.55506389799848,98.55506389799848,100.52536174999841,100.52536174999841,100.55253369299317,100.55253369299317,100.55253369299317,100.55253369299317,100.55253369299317,100.55253369299317,100.55253369299317,100.55253369299317,100.55253369299317,100.55253369299317,100.55253369299317,100.55253369299317,100.55253369299317,100.55253369299317,100.55253369299317,103.05514392199984,103.05514392199984,103.05514392199984,103.05514392199984,103.05514392199984,47,41,58,42,47,61,3.0,0.8940494299968123,103.96151315599855,105.55372701199667,,,,,,,,,156,f,21,2023-04-03_14h43.26.171,RL,2022.2.4,60.03324304732931,
1,5,0,5,0,,,,,,,,,,None,105.55372701199667,105.55372701199667,105.55372701199667,105.55372701199667,105.55372701199667,105.55372701199667,i,0.6707787490013288,106.28104770799837,106.28104770799837,106.28104770799837,106.28104770799837,106.28104770799837,106.28104770799837,106.55912129499484,106.55912129499484,108.34548639399873,108.34548639399873,108.37230901099974,108.37230901099974,108.37230901099974,108.37230901099974,108.37230901099974,108.37230901099974,108.37230901099974,108.37230901099974,108.37230901099974,108.37230901099974,108.37230901099974,108.37230901099974,108.37230901099974,108.37230901099974,108.37230901099974,110.86564324199571,110.86564324199571,110.86564324199571,110.86564324199571,110.86564324199571,47,43,61,42,61,59,4.0,1.4339254410006106,112.31352424099896,114.22421919099725,,,,,,,,,156,f,21,2023-04-03_14h43.26.171,RL,2022.2.4,60.03324304732931,
1,6,0,6,0,,,,,,,,,,None,114.22421919099725,114.22421919099725,114.22421919099725,114.22421919099725,114.22421919099725,114.22421919099725,f,0.42421004499919945,114.6920265499939,114.6920265499939,114.6920265499939,114.6920265499939,114.6920265499939,114.6920265499939,114.96405219799635,114.96405219799635,115.89127323299908,115.89127323299908,115.9124617569978,115.9124617569978,115.9124617569978,115.9124617569978,115.9124617569978,115.9124617569978,115.9124617569978,115.9124617569978,115.9124617569978,115.9124617569978,115.9124617569978,115.9124617569978,115.9124617569978,115.9124617569978,115.9124617569978,118.41896648299735,118.41896648299735,118.41896648299735,118.41896648299735,118.41896648299735,47,40,57,46,40,59,2.0,0.7335974009984056,119.16455775899522,120.81103704299312,,,,,,,,,156,f,21,2023-04-03_14h43.26.171,RL,2022.2.4,60.03324304732931,
1,7,0,7,0,,,,,,,,,,None,120.81103704299312,120.81103704299312,120.81103704299312,120.81103704299312,120.81103704299312,120.81103704299312,i,0.34708242699707625,121.19804037099675,121.19804037099675,121.19804037099675,121.19804037099675,121.19804037099675,121.19804037099675,121.4660494359996,121.4660494359996,122.52082985099696,122.52082985099696,122.55743419099599,122.55743419099599,122.55743419099599,122.55743419099599,122.55743419099599,122.55743419099599,122.55743419099599,122.55743419099599,122.55743419099599,122.55743419099599,122.55743419099599,122.55743419099599,122.55743419099599,122.55743419099599,122.55743419099599,125.07088143299916,125.07088143299916,125.07088143299916,125.07088143299916,125.07088143299916,51,45,61,49,61,66,4.0,0.7060082079988206,125.79159083699778,127.69777148299909,,,,,,,,,156,f,21,2023-04-03_14h43.26.171,RL,2022.2.4,60.03324304732931,
1,8,0,8,0,,,,,,,,,,None,127.69777148299909,127.69777148299909,127.69777148299909,127.69777148299909,127.69777148299909,127.69777148299909,j,0.31185780800296925,128.05432358899998,128.05432358899998,128.05432358899998,128.05432358899998,128.05432358899998,128.05432358899998,128.3363768059935,128.3363768059935,130.2303698869946,130.2303698869946,130.25769210899307,130.25769210899307,130.25769210899307,130.25769210899307,130.25769210899307,130.25769210899307,130.25769210899307,130.25769210899307,130.25769210899307,130.25769210899307,130.25769210899307,130.25769210899307,130.25769210899307,130.25769210899307,130.25769210899307,132.7610341279942,132.7610341279942,132.7610341279942,132.7610341279942,132.7610341279942,54,42,60,53,53,66,4.0,0.5341284789974452,133.30777898099768,135.26766672999656,,,,,,,,,156,f,21,2023-04-03_14h43.26.171,RL,2022.2.4,60.03324304732931,
1,9,0,9,0,,,,,,,,,,None,135.26766672999656,135.26766672999656,135.26766672999656,135.26766672999656,135.26766672999656,135.26766672999656,i,0.2608537550040637,135.5775846789984,135.5775846789984,135.5775846789984,135.5775846789984,135.5775846789984,135.5775846789984,135.84123633799754,135.84123633799754,137.29354507199605,137.29354507199605,137.3313899479981,137.3313899479981,137.3313899479981,137.3313899479981,137.3313899479981,137.3313899479981,137.3313899479981,137.3313899479981,137.3313899479981,137.3313899479981,137.3313899479981,137.3313899479981,137.3313899479981,137.3313899479981,137.3313899479981,139.83303721999982,139.83303721999982,139.83303721999982,139.83303721999982,139.83303721999982,46,45,52,55,52,59,2.0,0.7069426079979166,140.55606140899908,142.43766429399693,,,,,,,,,156,f,21,2023-04-03_14h43.26.171,RL,2022.2.4,60.03324304732931,
1,10,0,10,0,,,,,,,,,,None,142.43766429399693,142.43766429399693,142.43766429399693,142.43766429399693,142.43766429399693,142.43766429399693,r,0.2832673029988655,142.7608372379982,142.7608372379982,142.7608372379982,142.7608372379982,142.7608372379982,142.7608372379982,143.02673528099695,143.02673528099695,144.69763964199956,144.69763964199956,144.7367548849943,144.7367548849943,144.7367548849943,144.7367548849943,144.7367548849943,144.7367548849943,144.7367548849943,144.7367548849943,144.7367548849943,144.7367548849943,144.7367548849943,144.7367548849943,144.7367548849943,144.7367548849943,144.7367548849943,147.23490116499306,147.23490116499306,147.23490116499306,147.23490116499306,147.23490116499306,56,45,59,44,56,42,5.0,0.6164591560009285,147.865290128997,149.5413367959991,,,,,,,,,156,f,21,2023-04-03_14h43.26.171,RL,2022.2.4,60.03324304732931,
1,11,0,11,0,,,,,,,,,,None,149.5413367959991,149.5413367959991,149.5413367959991,149.5413367959991,149.5413367959991,149.5413367959991,r,0.36236084700067295,149.9452477819941,149.9452477819941,149.9452477819941,149.9452477819941,149.9452477819941,149.9452477819941,150.21233635199314,150.21233635199314,152.13344595199305,152.13344595199305,152.1696633629981,152.1696633629981,152.1696633629981,152.1696633629981,152.1696633629981,152.1696633629981,152.1696633629981,152.1696633629981,152.1696633629981,152.1696633629981,152.1696633629981,152.1696633629981,152.1696633629981,152.1696633629981,152.1696633629981,154.67209665599512,154.67209665599512,154.67209665599512,154.67209665599512,154.67209665599512,57,48,65,50,57,63,2.0,0.650422956001421,155.33819927999866,157.32849931599776,,,,,,,,,156,f,21,2023-04-03_14h43.26.171,RL,2022.2.4,60.03324304732931,
1,12,0,12,0,,,,,,,,,,None,157.32849931599776,157.32849931599776,157.32849931599776,157.32849931599776,157.32849931599776,157.32849931599776,f,0.4669346930022584,157.84490905499842,157.84490905499842,157.84490905499842,157.84490905499842,157.84490905499842,157.84490905499842,158.11246133099485,158.11246133099485,159.9217529239977,159.9217529239977,159.9452920659969,159.9452920659969,159.9452920659969,159.9452920659969,159.9452920659969,159.9452920659969,159.9452920659969,159.9452920659969,159.9452920659969,159.9452920659969,159.9452920659969,159.9452920659969,159.9452920659969,159.9452920659969,159.9452920659969,162.4417257679961,162.4417257679961,162.4417257679961,162.4417257679961,162.4417257679961,52,44,61,43,44,44,4.0,0.7287234470059047,163.18370616799803,164.94857627099555,,,,,,,,,156,f,21,2023-04-03_14h43.26.171,RL,2022.2.4,60.03324304732931,
1,13,0,13,0,,,,,,,,,,None,164.94857627099555,164.94857627099555,164.94857627099555,164.94857627099555,164.94857627099555,164.94857627099555,i,0.3393638160050614,165.3349753329967,165.3349753329967,165.3349753329967,165.3349753329967,165.3349753329967,165.3349753329967,165.6040340699983,165.6040340699983,167.24145456999395,167.24145456999395,167.28094793499622,167.28094793499622,167.28094793499622,167.28094793499622,167.28094793499622,167.28094793499622,167.28094793499622,167.28094793499622,167.28094793499622,167.28094793499622,167.28094793499622,167.28094793499622,167.28094793499622,167.28094793499622,167.28094793499622,169.794742880993,169.794742880993,169.794742880993,169.794742880993,169.794742880993,57,45,64,45,64,61,5.0,0.7660602610048954,170.5727864069995,172.38540856199688,,,,,,,,,156,f,21,2023-04-03_14h43.26.171,RL,2022.2.4,60.03324304732931,
1,14,0,14,0,,,,,,,,,,None,172.38540856199688,172.38540856199688,172.38540856199688,172.38540856199688,172.38540856199688,172.38540856199688,i,0.243113323005673,172.67199117199925,172.67199117199925,172.67199117199925,172.67199117199925,172.67199117199925,172.67199117199925,172.94071804399573,172.94071804399573,174.9114956639969,174.9114956639969,174.9486921839998,174.9486921839998,174.9486921839998,174.9486921839998,174.9486921839998,174.9486921839998,174.9486921839998,174.9486921839998,174.9486921839998,174.9486921839998,174.9486921839998,174.9486921839998,174.9486921839998,174.9486921839998,174.9486921839998,177.4499521329999,177.4499521329999,177.4499521329999,177.4499521329999,177.4499521329999,57,47,62,54,62,53,5.0,0.5844473990000552,178.04957108199596,179.93886006599496,,,,,,,,,156,f,21,2023-04-03_14h43.26.171,RL,2022.2.4,60.03324304732931,
1,15,0,15,0,,,,,,,,,,None,179.93886006599496,179.93886006599496,179.93886006599496,179.93886006599496,179.93886006599496,179.93886006599496,j,0.30342525799642317,180.29156186499313,180.29156186499313,180.29156186499313,180.29156186499313,180.29156186499313,180.29156186499313,180.5570526599986,180.5570526599986,182.0151129109945,182.0151129109945,182.0542471009976,182.0542471009976,182.0542471009976,182.0542471009976,182.0542471009976,182.0542471009976,182.0542471009976,182.0542471009976,182.0542471009976,182.0542471009976,182.0542471009976,182.0542471009976,182.0542471009976,182.0542471009976,182.0542471009976,184.56698949899874,184.56698949899874,184.56698949899874,184.56698949899874,184.56698949899874,49,62,63,49,49,41,3.0,0.5176900109945564,185.09893895799905,186.82460607299436,,,,,,,,,156,f,21,2023-04-03_14h43.26.171,RL,2022.2.4,60.03324304732931,
1,16,0,16,0,,,,,,,,,,None,186.82460607299436,186.82460607299436,186.82460607299436,186.82460607299436,186.82460607299436,186.82460607299436,i,0.29228188400156796,187.16106398199918,187.16106398199918,187.16106398199918,187.16106398199918,187.16106398199918,187.16106398199918,187.43033342799754,187.43033342799754,188.96622016299807,188.96622016299807,189.00570083899947,189.00570083899947,189.00570083899947,189.00570083899947,189.00570083899947,189.00570083899947,189.00570083899947,189.00570083899947,189.00570083899947,189.00570083899947,189.00570083899947,189.00570083899947,189.00570083899947,189.00570083899947,189.00570083899947,191.51942815299844,191.51942815299844,191.51942815299844,191.51942815299844,191.51942815299844,53,48,55,53,55,56,4.0,0.6328282479953486,192.16569378799613,193.92891248099477,,,,,,,,,156,f,21,2023-04-03_14h43.26.171,RL,2022.2.4,60.03324304732931,
1,17,0,17,0,,,,,,,,,,None,193.92891248099477,193.92891248099477,193.92891248099477,193.92891248099477,193.92891248099477,193.92891248099477,i,0.2755930869971053,194.25287433599442,194.25287433599442,194.25287433599442,194.25287433599442,194.25287433599442,194.25287433599442,194.53367241499654,194.53367241499654,195.85172486199735,195.85172486199735,195.87374647999968,195.87374647999968,195.87374647999968,195.87374647999968,195.87374647999968,195.87374647999968,195.87374647999968,195.87374647999968,195.87374647999968,195.87374647999968,195.87374647999968,195.87374647999968,195.87374647999968,195.87374647999968,195.87374647999968,198.37292710399925,198.37292710399925,198.37292710399925,198.37292710399925,198.37292710399925,64,40,66,52,66,31,5.0,0.5702292420028243,198.95692444399901,200.63112529199861,,,,,,,,,156,f,21,2023-04-03_14h43.26.171,RL,2022.2.4,60.03324304732931,
1,18,0,18,0,,,,,,,,,,None,200.63112529199861,200.63112529199861,200.63112529199861,200.63112529199861,200.63112529199861,200.63112529199861,i,0.2729954509995878,200.951652042997,200.951652042997,200.951652042997,200.951652042997,200.951652042997,200.951652042997,201.2209401939981,201.2209401939981,202.4779859239934,202.4779859239934,202.51866415399854,202.51866415399854,202.51866415399854,202.51866415399854,202.51866415399854,202.51866415399854,202.51866415399854,202.51866415399854,202.51866415399854,202.51866415399854,202.51866415399854,202.51866415399854,202.51866415399854,202.51866415399854,202.51866415399854,205.0156363549977,205.0156363549977,205.0156363549977,205.0156363549977,205.0156363549977,55,41,56,58,56,41,5.0,0.530647947001853,205.55824477999704,207.56796316299733,,,,,,,,,156,f,21,2023-04-03_14h43.26.171,RL,2022.2.4,60.03324304732931,
1,19,0,19,0,,,,,,,,,,None,207.56796316299733,207.56796316299733,207.56796316299733,207.56796316299733,207.56796316299733,207.56796316299733,i,0.3097575029969448,207.92417632199795,207.92417632199795,207.92417632199795,207.92417632199795,207.92417632199795,207.92417632199795,208.19133755399525,208.19133755399525,210.14426516499952,210.14426516499952,210.18426490799902,210.18426490799902,210.18426490799902,210.18426490799902,210.18426490799902,210.18426490799902,210.18426490799902,210.18426490799902,210.18426490799902,210.18426490799902,210.18426490799902,210.18426490799902,210.18426490799902,210.18426490799902,210.18426490799902,212.69442074399558,212.69442074399558,212.69442074399558,212.69442074399558,212.69442074399558,61,50,65,60,65,50,5.0,0.6209931039993535,213.32939834799618,215.3055414449991,,,,,,,,,156,f,21,2023-04-03_14h43.26.171,RL,2022.2.4,60.03324304732931,
1,20,0,20,0,,,,,,,,,,None,215.3055414449991,215.3055414449991,215.3055414449991,215.3055414449991,215.3055414449991,215.3055414449991,i,0.8768464350068825,216.2281076309955,216.2281076309955,216.2281076309955,216.2281076309955,216.2281076309955,216.2281076309955,216.49500593899575,216.49500593899575,217.35062705999735,217.35062705999735,217.3923831659995,217.3923831659995,217.3923831659995,217.3923831659995,217.3923831659995,217.3923831659995,217.3923831659995,217.3923831659995,217.3923831659995,217.3923831659995,217.3923831659995,217.3923831659995,217.3923831659995,217.3923831659995,217.3923831659995,219.89944350199949,219.89944350199949,219.89944350199949,219.89944350199949,219.89944350199949,64,61,67,59,67,76,4.0,0.5509331860012026,220.46269196999492,222.09160397099913,,,,,,,,,156,f,21,2023-04-03_14h43.26.171,RL,2022.2.4,60.03324304732931,
1,21,0,21,0,,,,,,,,,,None,222.09160397099913,222.09160397099913,222.09160397099913,222.09160397099913,222.09160397099913,222.09160397099913,r,0.9674394440007745,223.10077843099862,223.10077843099862,223.10077843099862,223.10077843099862,223.10077843099862,223.10077843099862,223.3646737759991,223.3646737759991,224.25020422599482,224.25020422599482,224.28854774799402,224.28854774799402,224.28854774799402,224.28854774799402,224.28854774799402,224.28854774799402,224.28854774799402,224.28854774799402,224.28854774799402,224.28854774799402,224.28854774799402,224.28854774799402,224.28854774799402,224.28854774799402,224.28854774799402,226.78860354699282,226.78860354699282,226.78860354699282,226.78860354699282,226.78860354699282,61,57,67,65,61,47,4.0,0.9840824200000498,227.78747189099522,229.54586541799654,,,,,,,,,156,f,21,2023-04-03_14h43.26.171,RL,2022.2.4,60.03324304732931,
1,22,0,22,0,,,,,,,,,,None,229.54586541799654,229.54586541799654,229.54586541799654,229.54586541799654,229.54586541799654,229.54586541799654,r,0.5707268410042161,230.17116532399814,230.17116532399814,230.17116532399814,230.17116532399814,230.17116532399814,230.17116532399814,230.451011293997,230.451011293997,232.00730216699594,232.00730216699594,232.0300104909984,232.0300104909984,232.0300104909984,232.0300104909984,232.0300104909984,232.0300104909984,232.0300104909984,232.0300104909984,232.0300104909984,232.0300104909984,232.0300104909984,232.0300104909984,232.0300104909984,232.0300104909984,232.0300104909984,234.53088106099312,234.53088106099312,234.53088106099312,234.53088106099312,234.53088106099312,63,57,61,67,63,77,3.0,0.6165766910053208,235.1587417519986,237.09905660399818,,,,,,,,,156,f,21,2023-04-03_14h43.26.171,RL,2022.2.4,60.03324304732931,
1,23,0,23,0,,,,,,,,,,None,237.09905660399818,237.09905660399818,237.09905660399818,237.09905660399818,237.09905660399818,237.09905660399818,f,0.36228729999857023,237.50892582899542,237.50892582899542,237.50892582899542,237.50892582899542,237.50892582899542,237.50892582899542,237.78730818399345,237.78730818399345,239.6583069039989,239.6583069039989,239.69639515699964,239.69639515699964,239.69639515699964,239.69639515699964,239.69639515699964,239.69639515699964,239.69639515699964,239.69639515699964,239.69639515699964,239.69639515699964,239.69639515699964,239.69639515699964,239.69639515699964,239.69639515699964,239.69639515699964,242.20666857899778,242.20666857899778,242.20666857899778,242.20666857899778,242.20666857899778,66,59,63,58,59,50,4.0,0.6559307040006388,242.87313921799796,244.7191241219989,,,,,,,,,156,f,21,2023-04-03_14h43.26.171,RL,2022.2.4,60.03324304732931,
1,24,0,24,0,,,,,,,,,,None,244.7191241219989,244.7191241219989,244.7191241219989,244.7191241219989,244.7191241219989,244.7191241219989,j,0.382740549997834,245.15848937799456,245.15848937799456,245.15848937799456,245.15848937799456,245.15848937799456,245.15848937799456,245.42517137899995,245.42517137899995,247.20237223199365,247.20237223199365,247.24093279799854,247.24093279799854,247.24093279799854,247.24093279799854,247.24093279799854,247.24093279799854,247.24093279799854,247.24093279799854,247.24093279799854,247.24093279799854,247.24093279799854,247.24093279799854,247.24093279799854,247.24093279799854,247.24093279799854,249.75478713699704,249.75478713699704,249.75478713699704,249.75478713699704,249.75478713699704,60,56,64,69,69,68,4.0,0.6088910739999847,250.3773465169943,252.00600967499486,,,,,,,,,156,f,21,2023-04-03_14h43.26.171,RL,2022.2.4,60.03324304732931,
1,25,0,25,0,,,,,,,,,,None,252.00600967499486,252.00600967499486,252.00600967499486,252.00600967499486,252.00600967499486,252.00600967499486,j,0.4691120729985414,252.51485862699337,252.51485862699337,252.51485862699337,252.51485862699337,252.51485862699337,252.51485862699337,252.7787613019973,252.7787613019973,254.21779128299386,254.21779128299386,254.25681453599827,254.25681453599827,254.25681453599827,254.25681453599827,254.25681453599827,254.25681453599827,254.25681453599827,254.25681453599827,254.25681453599827,254.25681453599827,254.25681453599827,254.25681453599827,254.25681453599827,254.25681453599827,254.25681453599827,256.756099704995,256.756099704995,256.756099704995,256.756099704995,256.756099704995,62,69,57,62,62,34,5.0,0.5470924740002374,257.314013763993,259.0598456029984,,,,,,,,,156,f,21,2023-04-03_14h43.26.171,RL,2022.2.4,60.03324304732931,
1,26,0,26,0,,,,,,,,,,None,259.0598456029984,259.0598456029984,259.0598456029984,259.0598456029984,259.0598456029984,259.0598456029984,i,0.4987036770035047,259.61632260599436,259.61632260599436,259.61632260599436,259.61632260599436,259.61632260599436,259.61632260599436,259.881818296999,259.881818296999,261.3030198549968,261.3030198549968,261.3427288019957,261.3427288019957,261.3427288019957,261.3427288019957,261.3427288019957,261.3427288019957,261.3427288019957,261.3427288019957,261.3427288019957,261.3427288019957,261.3427288019957,261.3427288019957,261.3427288019957,261.3427288019957,261.3427288019957,263.8408629349942,263.8408629349942,263.8408629349942,263.8408629349942,263.8408629349942,61,58,56,66,56,71,3.0,0.581895096001972,264.4370405009977,265.99642468199454,,,,,,,,,156,f,21,2023-04-03_14h43.26.171,RL,2022.2.4,60.03324304732931,
1,27,0,27,0,,,,,,,,,,None,265.99642468199454,265.99642468199454,265.99642468199454,265.99642468199454,265.99642468199454,265.99642468199454,j,0.3297745390009368,266.3835053599978,266.3835053599978,266.3835053599978,266.3835053599978,266.3835053599978,266.3835053599978,266.65141946199583,266.65141946199583,267.76997037899855,267.76997037899855,267.8093153009977,267.8093153009977,267.8093153009977,267.8093153009977,267.8093153009977,267.8093153009977,267.8093153009977,267.8093153009977,267.8093153009977,267.8093153009977,267.8093153009977,267.8093153009977,267.8093153009977,267.8093153009977,267.8093153009977,270.3105963939961,270.3105963939961,270.3105963939961,270.3105963939961,270.3105963939961,62,55,63,64,64,78,3.0,0.638962122000521,270.963111043995,272.7830243389981,,,,,,,,,156,f,21,2023-04-03_14h43.26.171,RL,2022.2.4,60.03324304732931,
1,28,0,28,0,,,,,,,,,,None,272.7830243389981,272.7830243389981,272.7830243389981,272.7830243389981,272.7830243389981,272.7830243389981,r,0.3979417279988411,273.22039742299967,273.22039742299967,273.22039742299967,273.22039742299967,273.22039742299967,273.22039742299967,273.48815881899645,273.48815881899645,275.3929564239952,275.3929564239952,275.4321661639988,275.4321661639988,275.4321661639988,275.4321661639988,275.4321661639988,275.4321661639988,275.4321661639988,275.4321661639988,275.4321661639988,275.4321661639988,275.4321661639988,275.4321661639988,275.4321661639988,275.4321661639988,275.4321661639988,277.9405390219981,277.9405390219981,277.9405390219981,277.9405390219981,277.9405390219981,75,58,62,59,75,76,5.0,0.7076731220004149,278.6618298969988,280.5033242079953,,,,,,,,,156,f,21,2023-04-03_14h43.26.171,RL,2022.2.4,60.03324304732931,
1,29,0,29,0,,,,,,,,,,None,280.5033242079953,280.5033242079953,280.5033242079953,280.5033242079953,280.5033242079953,280.5033242079953,f,0.45269843600544846,281.00731260099565,281.00731260099565,281.00731260099565,281.00731260099565,281.00731260099565,281.00731260099565,281.2745746329965,281.2745746329965,282.5284174949993,282.5284174949993,282.5686954039993,282.5686954039993,282.5686954039993,282.5686954039993,282.5686954039993,282.5686954039993,282.5686954039993,282.5686954039993,282.5686954039993,282.5686954039993,282.5686954039993,282.5686954039993,282.5686954039993,282.5686954039993,282.5686954039993,285.07102520899934,285.07102520899934,285.07102520899934,285.07102520899934,285.07102520899934,69,55,56,57,55,84,3.0,0.7143300169991562,285.79882077999355,287.5564389259962,,,,,,,,,156,f,21,2023-04-03_14h43.26.171,RL,2022.2.4,60.03324304732931,
1,30,0,30,0,,,,,,,,,,None,287.5564389259962,287.5564389259962,287.5564389259962,287.5564389259962,287.5564389259962,287.5564389259962,i,0.4781901719979942,288.0820534009981,288.0820534009981,288.0820534009981,288.0820534009981,288.0820534009981,288.0820534009981,288.3614544319935,288.3614544319935,290.1154273739958,290.1154273739958,290.15561754499504,290.15561754499504,290.15561754499504,290.15561754499504,290.15561754499504,290.15561754499504,290.15561754499504,290.15561754499504,290.15561754499504,290.15561754499504,290.15561754499504,290.15561754499504,290.15561754499504,290.15561754499504,290.15561754499504,292.65674561099877,292.65674561099877,292.65674561099877,292.65674561099877,292.65674561099877,67,56,59,55,59,80,2.0,0.7784260150001501,293.4486233199932,295.1766566849983,,,,,,,,,156,f,21,2023-04-03_14h43.26.171,RL,2022.2.4,60.03324304732931,
1,31,0,31,0,,,,,,,,,,None,295.1766566849983,295.1766566849983,295.1766566849983,295.1766566849983,295.1766566849983,295.1766566849983,j,0.3236698330001673,295.5475464229967,295.5475464229967,295.5475464229967,295.5475464229967,295.5475464229967,295.5475464229967,295.8148953869968,295.8148953869968,296.9039588809974,296.9039588809974,296.94347625899536,296.94347625899536,296.94347625899536,296.94347625899536,296.94347625899536,296.94347625899536,296.94347625899536,296.94347625899536,296.94347625899536,296.94347625899536,296.94347625899536,296.94347625899536,296.94347625899536,296.94347625899536,296.94347625899536,299.45589018499595,299.45589018499595,299.45589018499595,299.45589018499595,299.45589018499595,62,60,55,62,62,76,2.0,0.5357621139992261,300.00533034899854,301.5801649049972,,,,,,,,,156,f,21,2023-04-03_14h43.26.171,RL,2022.2.4,60.03324304732931,
1,32,0,32,0,,,,,,,,,,None,301.5801649049972,301.5801649049972,301.5801649049972,301.5801649049972,301.5801649049972,301.5801649049972,r,0.32074066999484785,301.95232761799707,301.95232761799707,301.95232761799707,301.95232761799707,301.95232761799707,301.95232761799707,302.23571890299354,302.23571890299354,304.1730652979968,304.1730652979968,304.19745734899334,304.19745734899334,304.19745734899334,304.19745734899334,304.19745734899334,304.19745734899334,304.19745734899334,304.19745734899334,304.19745734899334,304.19745734899334,304.19745734899334,304.19745734899334,304.19745734899334,304.19745734899334,304.19745734899334,306.7067483119972,306.7067483119972,306.7067483119972,306.7067483119972,306.7067483119972,68,54,55,63,68,32,5.0,1.062325172999408,307.7859682829949,309.63239763399906,,,,,,,,,156,f,21,2023-04-03_14h43.26.171,RL,2022.2.4,60.03324304732931,
1,33,0,33,0,,,,,,,,,,None,309.63239763399906,309.63239763399906,309.63239763399906,309.63239763399906,309.63239763399906,309.63239763399906,r,0.34213684299902525,310.02008546299476,310.02008546299476,310.02008546299476,310.02008546299476,310.02008546299476,310.02008546299476,310.2891595559995,310.2891595559995,312.28520683299575,312.28520683299575,312.32738044699363,312.32738044699363,312.32738044699363,312.32738044699363,312.32738044699363,312.32738044699363,312.32738044699363,312.32738044699363,312.32738044699363,312.32738044699363,312.32738044699363,312.32738044699363,312.32738044699363,312.32738044699363,312.32738044699363,314.83980890399835,314.83980890399835,314.83980890399835,314.83980890399835,314.83980890399835,63,66,54,56,63,72,4.0,0.7393438689978211,315.59119943499536,317.28749328799313,,,,,,,,,156,f,21,2023-04-03_14h43.26.171,RL,2022.2.4,60.03324304732931,
1,34,0,34,0,,,,,,,,,,None,317.28749328799313,317.28749328799313,317.28749328799313,317.28749328799313,317.28749328799313,317.28749328799313,f,0.29803234599967254,317.6285132099947,317.6285132099947,317.6285132099947,317.6285132099947,317.6285132099947,317.6285132099947,317.90815383299923,317.90815383299923,319.7630676389963,319.7630676389963,319.7865871289978,319.7865871289978,319.7865871289978,319.7865871289978,319.7865871289978,319.7865871289978,319.7865871289978,319.7865871289978,319.7865871289978,319.7865871289978,319.7865871289978,319.7865871289978,319.7865871289978,319.7865871289978,319.7865871289978,322.287314505993,322.287314505993,322.287314505993,322.287314505993,322.287314505993,68,72,50,61,72,27,6.0,1.5786190280050505,323.87654310099606,325.4232842789934,,,,,,,,,156,f,21,2023-04-03_14h43.26.171,RL,2022.2.4,60.03324304732931,
1,35,0,35,0,,,,,,,,,,None,325.4232842789934,325.4232842789934,325.4232842789934,325.4232842789934,325.4232842789934,325.4232842789934,j,0.90487775800284,326.38063990899536,326.38063990899536,326.38063990899536,326.38063990899536,326.38063990899536,326.38063990899536,326.6474938589963,326.6474938589963,327.833006033994,327.833006033994,327.87361693399725,327.87361693399725,327.87361693399725,327.87361693399725,327.87361693399725,327.87361693399725,327.87361693399725,327.87361693399725,327.87361693399725,327.87361693399725,327.87361693399725,327.87361693399725,327.87361693399725,327.87361693399725,327.87361693399725,330.36990327999956,330.36990327999956,330.36990327999956,330.36990327999956,330.36990327999956,57,79,61,61,61,86,3.0,0.8192564530036179,331.20330410299357,333.16054229199653,,,,,,,,,156,f,21,2023-04-03_14h43.26.171,RL,2022.2.4,60.03324304732931,
1,36,0,36,0,,,,,,,,,,None,333.16054229199653,333.16054229199653,333.16054229199653,333.16054229199653,333.16054229199653,333.16054229199653,i,0.28539244899729965,333.49739604699425,333.49739604699425,333.49739604699425,333.49739604699425,333.49739604699425,333.49739604699425,333.76222135999706,333.76222135999706,334.73755588999484,334.73755588999484,334.77510173999326,334.77510173999326,334.77510173999326,334.77510173999326,334.77510173999326,334.77510173999326,334.77510173999326,334.77510173999326,334.77510173999326,334.77510173999326,334.77510173999326,334.77510173999326,334.77510173999326,334.77510173999326,334.77510173999326,337.2778407829974,337.2778407829974,337.2778407829974,337.2778407829974,337.2778407829974,49,69,51,65,51,73,2.0,0.6831761599969468,337.9714569449934,339.6979373619979,,,,,,,,,156,f,21,2023-04-03_14h43.26.171,RL,2022.2.4,60.03324304732931,
1,37,0,37,0,,,,,,,,,,None,339.6979373619979,339.6979373619979,339.6979373619979,339.6979373619979,339.6979373619979,339.6979373619979,None,,,,,,,,,,,,,,,,,,,,,,,,,,,,,,,,51,68,50,60,0,**,None,None,345.73168038699805,347.7017559769956,341.2246184379983,345.73168038699805,,,,,,,156,f,21,2023-04-03_14h43.26.171,RL,2022.2.4,60.03324304732931,
1,38,0,38,0,,,,,,,,,,None,347.7017559769956,347.7017559769956,347.7017559769956,347.7017559769956,347.7017559769956,347.7017559769956,r,0.3699090649970458,348.1079978389971,348.1079978389971,348.1079978389971,348.1079978389971,348.1079978389971,348.1079978389971,348.3741605949981,348.3741605949981,349.4940421489955,349.4940421489955,349.5339777759946,349.5339777759946,349.5339777759946,349.5339777759946,349.5339777759946,349.5339777759946,349.5339777759946,349.5339777759946,349.5339777759946,349.5339777759946,349.5339777759946,349.5339777759946,349.5339777759946,349.5339777759946,349.5339777759946,352.02963860299496,352.02963860299496,352.02963860299496,352.02963860299496,352.02963860299496,47,66,58,76,47,64,2.0,1.3765611279959558,353.4211899949951,355.13889718899736,,,,,,,,,156,f,21,2023-04-03_14h43.26.171,RL,2022.2.4,60.03324304732931,
1,39,0,39,0,,,,,,,,,,None,355.13889718899736,355.13889718899736,355.13889718899736,355.13889718899736,355.13889718899736,355.13889718899736,f,0.22867115199915133,355.40597937199345,355.40597937199345,355.40597937199345,355.40597937199345,355.40597937199345,355.40597937199345,355.6777021259986,355.6777021259986,356.98158126599446,356.98158126599446,357.020513216994,357.020513216994,357.020513216994,357.020513216994,357.020513216994,357.020513216994,357.020513216994,357.020513216994,357.020513216994,357.020513216994,357.020513216994,357.020513216994,357.020513216994,357.020513216994,357.020513216994,359.5318749789949,359.5318749789949,359.5318749789949,359.5318749789949,359.5318749789949,48,64,57,62,64,71,2.0,0.47136036599840736,360.0170959879979,361.7413374779935,,,,,,,,,156,f,21,2023-04-03_14h43.26.171,RL,2022.2.4,60.03324304732931,
1,40,0,40,0,,,,,,,,,,None,361.7413374779935,361.7413374779935,361.7413374779935,361.7413374779935,361.7413374779935,361.7413374779935,i,0.2539975570034585,362.0433944799952,362.0433944799952,362.0433944799952,362.0433944799952,362.0433944799952,362.0433944799952,362.3142224099938,362.3142224099938,364.07078976999765,364.07078976999765,364.109980246998,364.109980246998,364.109980246998,364.109980246998,364.109980246998,364.109980246998,364.109980246998,364.109980246998,364.109980246998,364.109980246998,364.109980246998,364.109980246998,364.109980246998,364.109980246998,364.109980246998,366.6204557719975,366.6204557719975,366.6204557719975,366.6204557719975,366.6204557719975,38,62,58,64,58,70,2.0,0.40205627999966964,367.0363886099949,368.6448903019991,,,,,,,,,156,f,21,2023-04-03_14h43.26.171,RL,2022.2.4,60.03324304732931,
1,41,0,41,0,,,,,,,,,,None,368.6448903019991,368.6448903019991,368.6448903019991,368.6448903019991,368.6448903019991,368.6448903019991,j,0.30591255000035744,369.00364146599895,369.00364146599895,369.00364146599895,369.00364146599895,369.00364146599895,369.00364146599895,369.2846965219942,369.2846965219942,370.12712929699774,370.12712929699774,370.1650978289981,370.1650978289981,370.1650978289981,370.1650978289981,370.1650978289981,370.1650978289981,370.1650978289981,370.1650978289981,370.1650978289981,370.1650978289981,370.1650978289981,370.1650978289981,370.1650978289981,370.1650978289981,370.1650978289981,372.67000945799373,372.67000945799373,372.67000945799373,372.67000945799373,372.67000945799373,56,63,47,66,66,33,5.0,0.7579212759956135,373.4406987919938,375.13117665599566,,,,,,,,,156,f,21,2023-04-03_14h43.26.171,RL,2022.2.4,60.03324304732931,
1,42,0,42,0,,,,,,,,,,None,375.13117665599566,375.13117665599566,375.13117665599566,375.13117665599566,375.13117665599566,375.13117665599566,r,0.24139841799478745,375.41941835199395,375.41941835199395,375.41941835199395,375.41941835199395,375.41941835199395,375.41941835199395,375.68709717699676,375.68709717699676,376.5665541069975,376.5665541069975,376.6081402879936,376.6081402879936,376.6081402879936,376.6081402879936,376.6081402879936,376.6081402879936,376.6081402879936,376.6081402879936,376.6081402879936,376.6081402879936,376.6081402879936,376.6081402879936,376.6081402879936,376.6081402879936,376.6081402879936,379.11153465899406,379.11153465899406,379.11153465899406,379.11153465899406,379.11153465899406,48,66,58,60,48,62,3.0,0.8670029369968688,379.99153695199493,381.9180570689932,,,,,,,,,156,f,21,2023-04-03_14h43.26.171,RL,2022.2.4,60.03324304732931,
1,43,0,43,0,,,,,,,,,,None,381.9180570689932,381.9180570689932,381.9180570689932,381.9180570689932,381.9180570689932,381.9180570689932,f,0.26326271799916867,382.2269531819984,382.2269531819984,382.2269531819984,382.2269531819984,382.2269531819984,382.2269531819984,382.4901391329986,382.4901391329986,384.3453830369981,384.3453830369981,384.4001295539929,384.4001295539929,384.4001295539929,384.4001295539929,384.4001295539929,384.4001295539929,384.4001295539929,384.4001295539929,384.4001295539929,384.4001295539929,384.4001295539929,384.4001295539929,384.4001295539929,384.4001295539929,384.4001295539929,386.8969126619995,386.8969126619995,386.8969126619995,386.8969126619995,386.8969126619995,58,65,56,52,65,72,3.0,0.46835438100242754,387.37867619499593,388.9878016779985,,,,,,,,,156,f,21,2023-04-03_14h43.26.171,RL,2022.2.4,60.03324304732931,
1,44,0,44,0,,,,,,,,,,None,388.9878016779985,388.9878016779985,388.9878016779985,388.9878016779985,388.9878016779985,388.9878016779985,i,0.31958883599872934,389.3570309739953,389.3570309739953,389.3570309739953,389.3570309739953,389.3570309739953,389.3570309739953,389.62643159599975,389.62643159599975,390.7327808829941,390.7327808829941,390.77223453999613,390.77223453999613,390.77223453999613,390.77223453999613,390.77223453999613,390.77223453999613,390.77223453999613,390.77223453999613,390.77223453999613,390.77223453999613,390.77223453999613,390.77223453999613,390.77223453999613,390.77223453999613,390.77223453999613,393.26769045299443,393.26769045299443,393.26769045299443,393.26769045299443,393.26769045299443,50,51,54,60,54,64,3.0,0.8342440570049803,394.1163098439938,396.1078603259957,,,,,,,,,156,f,21,2023-04-03_14h43.26.171,RL,2022.2.4,60.03324304732931,
1,45,0,45,0,,,,,,,,,,None,396.1078603259957,396.1078603259957,396.1078603259957,396.1078603259957,396.1078603259957,396.1078603259957,f,0.26316282100015087,396.41447821199836,396.41447821199836,396.41447821199836,396.41447821199836,396.41447821199836,396.41447821199836,396.68041816599725,396.68041816599725,398.3823206809975,398.3823206809975,398.41950779599574,398.41950779599574,398.41950779599574,398.41950779599574,398.41950779599574,398.41950779599574,398.41950779599574,398.41950779599574,398.41950779599574,398.41950779599574,398.41950779599574,398.41950779599574,398.41950779599574,398.41950779599574,398.41950779599574,400.93085751399485,400.93085751399485,400.93085751399485,400.93085751399485,400.93085751399485,48,64,50,59,64,62,4.0,0.7417690310030594,401.688188934997,403.4784201779985,,,,,,,,,156,f,21,2023-04-03_14h43.26.171,RL,2022.2.4,60.03324304732931,
1,46,0,46,0,,,,,,,,,,None,403.4784201779985,403.4784201779985,403.4784201779985,403.4784201779985,403.4784201779985,403.4784201779985,r,0.3397543989995029,403.8663125729945,403.8663125729945,403.8663125729945,403.8663125729945,403.8663125729945,403.8663125729945,404.13386209099554,404.13386209099554,405.75434308899275,405.75434308899275,405.79383917299856,405.79383917299856,405.79383917299856,405.79383917299856,405.79383917299856,405.79383917299856,405.79383917299856,405.79383917299856,405.79383917299856,405.79383917299856,405.79383917299856,405.79383917299856,405.79383917299856,405.79383917299856,405.79383917299856,408.2977686719969,408.2977686719969,408.2977686719969,408.2977686719969,408.2977686719969,54,63,58,59,54,67,3.0,0.594864974002121,408.90594019699347,410.4468857489992,,,,,,,,,156,f,21,2023-04-03_14h43.26.171,RL,2022.2.4,60.03324304732931,
1,47,0,47,0,,,,,,,,,,None,410.4468857489992,410.4468857489992,410.4468857489992,410.4468857489992,410.4468857489992,410.4468857489992,f,0.30322611299925484,410.8013996719965,410.8013996719965,410.8013996719965,410.8013996719965,410.8013996719965,410.8013996719965,411.07122239699675,411.07122239699675,412.3749406459974,412.3749406459974,412.41414576199895,412.41414576199895,412.41414576199895,412.41414576199895,412.41414576199895,412.41414576199895,412.41414576199895,412.41414576199895,412.41414576199895,412.41414576199895,412.41414576199895,412.41414576199895,412.41414576199895,412.41414576199895,412.41414576199895,414.9259688339953,414.9259688339953,414.9259688339953,414.9259688339953,414.9259688339953,60,58,52,61,58,50,4.0,0.7702087920042686,415.7107676949963,417.6519018419931,,,,,,,,,156,f,21,2023-04-03_14h43.26.171,RL,2022.2.4,60.03324304732931,
1,48,0,48,0,,,,,,,,,,None,417.6519018419931,417.6519018419931,417.6519018419931,417.6519018419931,417.6519018419931,417.6519018419931,i,0.28339383200363955,417.977020814993,417.977020814993,417.977020814993,417.977020814993,417.977020814993,417.977020814993,418.2406356949941,418.2406356949941,420.060676658999,420.060676658999,420.1174575969999,420.1174575969999,420.1174575969999,420.1174575969999,420.1174575969999,420.1174575969999,420.1174575969999,420.1174575969999,420.1174575969999,420.1174575969999,420.1174575969999,420.1174575969999,420.1174575969999,420.1174575969999,420.1174575969999,422.6129173619993,422.6129173619993,422.6129173619993,422.6129173619993,422.6129173619993,63,54,49,62,49,33,3.0,1.0686608749965671,423.6949594619946,425.53860023499874,,,,,,,,,156,f,21,2023-04-03_14h43.26.171,RL,2022.2.4,60.03324304732931,
1,49,0,49,0,,,,,,,,,,None,425.53860023499874,425.53860023499874,425.53860023499874,425.53860023499874,425.53860023499874,425.53860023499874,i,0.22730762699939078,425.8122461939929,425.8122461939929,425.8122461939929,425.8122461939929,425.8122461939929,425.8122461939929,426.08019899899955,426.08019899899955,427.333233131998,427.333233131998,427.3721363739969,427.3721363739969,427.3721363739969,427.3721363739969,427.3721363739969,427.3721363739969,427.3721363739969,427.3721363739969,427.3721363739969,427.3721363739969,427.3721363739969,427.3721363739969,427.3721363739969,427.3721363739969,427.3721363739969,429.8685586369975,429.8685586369975,429.8685586369975,429.8685586369975,429.8685586369975,58,58,41,63,41,58,3.0,0.46659621199796675,430.34910956899694,432.1759608959983,,,,,,,,,156,f,21,2023-04-03_14h43.26.171,RL,2022.2.4,60.03324304732931,
1,50,0,50,0,,,,,,,,,,None,432.1759608959983,432.1759608959983,432.1759608959983,432.1759608959983,432.1759608959983,432.1759608959983,i,0.3186609240001417,432.5441106049984,432.5441106049984,432.5441106049984,432.5441106049984,432.5441106049984,432.5441106049984,432.8149061729928,432.8149061729928,434.4583722929965,434.4583722929965,434.479051231996,434.479051231996,434.479051231996,434.479051231996,434.479051231996,434.479051231996,434.479051231996,434.479051231996,434.479051231996,434.479051231996,434.479051231996,434.479051231996,434.479051231996,434.479051231996,434.479051231996,436.985349579998,436.985349579998,436.985349579998,436.985349579998,436.985349579998,66,56,54,59,54,72,2.0,0.5884619360003853,437.5862034649981,439.4623012969969,,,,,,,,,156,f,21,2023-04-03_14h43.26.171,RL,2022.2.4,60.03324304732931,
1,51,0,51,0,,,,,,,,,,None,439.4623012969969,439.4623012969969,439.4623012969969,439.4623012969969,439.4623012969969,439.4623012969969,i,0.26829972799896495,439.77073277999443,439.77073277999443,439.77073277999443,439.77073277999443,439.77073277999443,439.77073277999443,440.034839256994,440.034839256994,441.4799302629981,441.4799302629981,441.5347706649991,441.5347706649991,441.5347706649991,441.5347706649991,441.5347706649991,441.5347706649991,441.5347706649991,441.5347706649991,441.5347706649991,441.5347706649991,441.5347706649991,441.5347706649991,441.5347706649991,441.5347706649991,441.5347706649991,444.04563366699585,444.04563366699585,444.04563366699585,444.04563366699585,444.04563366699585,60,61,47,64,47,67,2.0,0.5073533530012355,444.5682400049991,446.26545332899695,,,,,,,,,156,f,21,2023-04-03_14h43.26.171,RL,2022.2.4,60.03324304732931,
1,52,0,52,0,,,,,,,,,,None,446.26545332899695,446.26545332899695,446.26545332899695,446.26545332899695,446.26545332899695,446.26545332899695,j,0.2659882590014604,446.5723091849941,446.5723091849941,446.5723091849941,446.5723091849941,446.5723091849941,446.5723091849941,446.8389234189963,446.8389234189963,447.85888642799546,447.85888642799546,447.8979333889947,447.8979333889947,447.8979333889947,447.8979333889947,447.8979333889947,447.8979333889947,447.8979333889947,447.8979333889947,447.8979333889947,447.8979333889947,447.8979333889947,447.8979333889947,447.8979333889947,447.8979333889947,447.8979333889947,450.3949207569967,450.3949207569967,450.3949207569967,450.3949207569967,450.3949207569967,64,60,37,68,68,74,2.0,1.4690994580014376,451.878480992993,453.7689212699988,,,,,,,,,156,f,21,2023-04-03_14h43.26.171,RL,2022.2.4,60.03324304732931,
1,53,0,53,0,,,,,,,,,,None,453.7689212699988,453.7689212699988,453.7689212699988,453.7689212699988,453.7689212699988,453.7689212699988,r,0.283084886999859,454.0942847329934,454.0942847329934,454.0942847329934,454.0942847329934,454.0942847329934,454.0942847329934,454.35997319799935,454.35997319799935,455.1948245559979,455.1948245559979,455.23430458299845,455.23430458299845,455.23430458299845,455.23430458299845,455.23430458299845,455.23430458299845,455.23430458299845,455.23430458299845,455.23430458299845,455.23430458299845,455.23430458299845,455.23430458299845,455.23430458299845,455.23430458299845,455.23430458299845,457.7437959309973,457.7437959309973,457.7437959309973,457.7437959309973,457.7437959309973,65,64,38,63,65,54,2.0,0.6093284400049015,458.3639827099978,459.88864498699695,,,,,,,,,156,f,21,2023-04-03_14h43.26.171,RL,2022.2.4,60.03324304732931,
1,54,0,54,0,,,,,,,,,,None,459.88864498699695,459.88864498699695,459.88864498699695,459.88864498699695,459.88864498699695,459.88864498699695,r,0.29704280799342087,460.22418902799836,460.22418902799836,460.22418902799836,460.22418902799836,460.22418902799836,460.22418902799836,460.49374100899877,460.49374100899877,462.2142341229992,462.2142341229992,462.25208326499705,462.25208326499705,462.25208326499705,462.25208326499705,462.25208326499705,462.25208326499705,462.25208326499705,462.25208326499705,462.25208326499705,462.25208326499705,462.25208326499705,462.25208326499705,462.25208326499705,462.25208326499705,462.25208326499705,464.7526013099996,464.7526013099996,464.7526013099996,464.7526013099996,464.7526013099996,55,62,40,66,55,45,5.0,1.4193513549980707,466.1904226419938,467.90893815199524,,,,,,,,,156,f,21,2023-04-03_14h43.26.171,RL,2022.2.4,60.03324304732931,
1,55,0,55,0,,,,,,,,,,None,467.90893815199524,467.90893815199524,467.90893815199524,467.90893815199524,467.90893815199524,467.90893815199524,i,0.2714793529958115,468.22854533899954,468.22854533899954,468.22854533899954,468.22854533899954,468.22854533899954,468.22854533899954,468.49812328499684,468.49812328499684,469.40179357599845,469.40179357599845,469.4411568429932,469.4411568429932,469.4411568429932,469.4411568429932,469.4411568429932,469.4411568429932,469.4411568429932,469.4411568429932,469.4411568429932,469.4411568429932,469.4411568429932,469.4411568429932,469.4411568429932,469.4411568429932,469.4411568429932,471.93742020199716,471.93742020199716,471.93742020199716,471.93742020199716,471.93742020199716,66,56,38,67,38,64,2.0,1.0937322169993422,473.04609839699697,474.6620500249992,,,,,,,,,156,f,21,2023-04-03_14h43.26.171,RL,2022.2.4,60.03324304732931,
1,56,0,56,0,,,,,,,,,,None,474.6620500249992,474.6620500249992,474.6620500249992,474.6620500249992,474.6620500249992,474.6620500249992,f,0.3569696870035841,475.0725187069984,475.0725187069984,475.0725187069984,475.0725187069984,475.0725187069984,475.0725187069984,475.35046858699934,475.35046858699934,477.23238001199934,477.23238001199934,477.28284089799854,477.28284089799854,477.28284089799854,477.28284089799854,477.28284089799854,477.28284089799854,477.28284089799854,477.28284089799854,477.28284089799854,477.28284089799854,477.28284089799854,477.28284089799854,477.28284089799854,477.28284089799854,477.28284089799854,479.77905619799276,479.77905619799276,479.77905619799276,479.77905619799276,479.77905619799276,55,60,44,64,60,66,4.0,1.3136422890020185,481.1083224069953,482.9488828859976,,,,,,,,,156,f,21,2023-04-03_14h43.26.171,RL,2022.2.4,60.03324304732931,
1,57,0,57,0,,,,,,,,,,None,482.9488828859976,482.9488828859976,482.9488828859976,482.9488828859976,482.9488828859976,482.9488828859976,j,0.2536092230002396,483.2421328329947,483.2421328329947,483.2421328329947,483.2421328329947,483.2421328329947,483.2421328329947,483.50480766099645,483.50480766099645,484.51531297699694,484.51531297699694,484.5515819429929,484.5515819429929,484.5515819429929,484.5515819429929,484.5515819429929,484.5515819429929,484.5515819429929,484.5515819429929,484.5515819429929,484.5515819429929,484.5515819429929,484.5515819429929,484.5515819429929,484.5515819429929,484.5515819429929,487.0601907629971,487.0601907629971,487.0601907629971,487.0601907629971,487.0601907629971,63,57,47,66,66,67,4.0,0.4680571279968717,487.5404001299976,489.23585801899753,,,,,,,,,156,f,21,2023-04-03_14h43.26.171,RL,2022.2.4,60.03324304732931,
1,58,0,58,0,,,,,,,,,,None,489.23585801899753,489.23585801899753,489.23585801899753,489.23585801899753,489.23585801899753,489.23585801899753,j,0.3164064150041668,489.59054612199543,489.59054612199543,489.59054612199543,489.59054612199543,489.59054612199543,489.59054612199543,489.85857214199496,489.85857214199496,491.17914315299276,491.17914315299276,491.20238782999513,491.20238782999513,491.20238782999513,491.20238782999513,491.20238782999513,491.20238782999513,491.20238782999513,491.20238782999513,491.20238782999513,491.20238782999513,491.20238782999513,491.20238782999513,491.20238782999513,491.20238782999513,491.20238782999513,493.7081758659988,493.7081758659988,493.7081758659988,493.7081758659988,493.7081758659988,67,61,44,68,68,51,5.0,0.6792321399989305,494.40402535199973,496.0048677829982,,,,,,,,,156,f,21,2023-04-03_14h43.26.171,RL,2022.2.4,60.03324304732931,
1,59,0,59,0,,,,,,,,,,None,496.0048677829982,496.0048677829982,496.0048677829982,496.0048677829982,496.0048677829982,496.0048677829982,j,0.2642595830038772,496.3088429069976,496.3088429069976,496.3088429069976,496.3088429069976,496.3088429069976,496.3088429069976,496.57724494599825,496.57724494599825,497.8516924519936,497.8516924519936,497.89165623899316,497.89165623899316,497.89165623899316,497.89165623899316,497.89165623899316,497.89165623899316,497.89165623899316,497.89165623899316,497.89165623899316,497.89165623899316,497.89165623899316,497.89165623899316,497.89165623899316,497.89165623899316,497.89165623899316,500.4025222679993,500.4025222679993,500.4025222679993,500.4025222679993,500.4025222679993,71,50,37,70,70,62,5.0,0.4683806180037209,500.8888996639944,502.5084804379949,,,,,,,,,156,f,21,2023-04-03_14h43.26.171,RL,2022.2.4,60.03324304732931,
1,60,0,60,0,,,,,,,,,,None,502.5084804379949,502.5084804379949,502.5084804379949,502.5084804379949,502.5084804379949,502.5084804379949,j,0.3723873749986524,502.93108176599344,502.93108176599344,502.93108176599344,502.93108176599344,502.93108176599344,502.93108176599344,503.21429460299987,503.21429460299987,504.8535998729931,504.8535998729931,504.8769320259962,504.8769320259962,504.8769320259962,504.8769320259962,504.8769320259962,504.8769320259962,504.8769320259962,504.8769320259962,504.8769320259962,504.8769320259962,504.8769320259962,504.8769320259962,504.8769320259962,504.8769320259962,504.8769320259962,507.38446910799394,507.38446910799394,507.38446910799394,507.38446910799394,507.38446910799394,65,61,40,71,71,50,5.0,0.38563500400050543,507.78352528899995,509.74551172199426,,,,,,,,,156,f,21,2023-04-03_14h43.26.171,RL,2022.2.4,60.03324304732931,
1,61,0,61,0,,,,,,,,,,None,509.74551172199426,509.74551172199426,509.74551172199426,509.74551172199426,509.74551172199426,509.74551172199426,j,0.20946376799838617,509.99689833799493,509.99689833799493,509.99689833799493,509.99689833799493,509.99689833799493,509.99689833799493,510.26804358099616,510.26804358099616,511.4044601239948,511.4044601239948,511.4280841949949,511.4280841949949,511.4280841949949,511.4280841949949,511.4280841949949,511.4280841949949,511.4280841949949,511.4280841949949,511.4280841949949,511.4280841949949,511.4280841949949,511.4280841949949,511.4280841949949,511.4280841949949,511.4280841949949,513.9231460029987,513.9231460029987,513.9231460029987,513.9231460029987,513.9231460029987,68,63,42,70,70,72,5.0,0.45508336100465385,514.3955268739955,516.0484061639945,,,,,,,,,156,f,21,2023-04-03_14h43.26.171,RL,2022.2.4,60.03324304732931,
1,62,0,62,0,,,,,,,,,,None,516.0484061639945,516.0484061639945,516.0484061639945,516.0484061639945,516.0484061639945,516.0484061639945,j,0.28818426199723035,516.3875413889982,516.3875413889982,516.3875413889982,516.3875413889982,516.3875413889982,516.3875413889982,516.6704730079946,516.6704730079946,518.1068503409988,518.1068503409988,518.1305538969973,518.1305538969973,518.1305538969973,518.1305538969973,518.1305538969973,518.1305538969973,518.1305538969973,518.1305538969973,518.1305538969973,518.1305538969973,518.1305538969973,518.1305538969973,518.1305538969973,518.1305538969973,518.1305538969973,520.6312437979941,520.6312437979941,520.6312437979941,520.6312437979941,520.6312437979941,72,58,38,79,79,45,5.0,1.4333899789999123,522.0770818059973,524.0357695819985,,,,,,,,,156,f,21,2023-04-03_14h43.26.171,RL,2022.2.4,60.03324304732931,
1,63,0,63,0,,,,,,,,,,None,524.0357695819985,524.0357695819985,524.0357695819985,524.0357695819985,524.0357695819985,524.0357695819985,j,0.7119103939985507,524.7961017929993,524.7961017929993,524.7961017929993,524.7961017929993,524.7961017929993,524.7961017929993,525.0757882669932,525.0757882669932,526.5118184069943,526.5118184069943,526.5514820479948,526.5514820479948,526.5514820479948,526.5514820479948,526.5514820479948,526.5514820479948,526.5514820479948,526.5514820479948,526.5514820479948,526.5514820479948,526.5514820479948,526.5514820479948,526.5514820479948,526.5514820479948,526.5514820479948,529.0618169199952,529.0618169199952,529.0618169199952,529.0618169199952,529.0618169199952,71,56,35,80,80,64,6.0,0.43793023499893025,529.5136620229969,531.0891024289958,,,,,,,,,156,f,21,2023-04-03_14h43.26.171,RL,2022.2.4,60.03324304732931,
1,64,0,64,0,,,,,,,,,,None,531.0891024289958,531.0891024289958,531.0891024289958,531.0891024289958,531.0891024289958,531.0891024289958,j,0.23504772600426804,531.3602938539989,531.3602938539989,531.3602938539989,531.3602938539989,531.3602938539989,531.3602938539989,531.6276529679963,531.6276529679963,533.5525824359938,533.5525824359938,533.5914113509934,533.5914113509934,533.5914113509934,533.5914113509934,533.5914113509934,533.5914113509934,533.5914113509934,533.5914113509934,533.5914113509934,533.5914113509934,533.5914113509934,533.5914113509934,533.5914113509934,533.5914113509934,533.5914113509934,536.1017722509932,536.1017722509932,536.1017722509932,536.1017722509932,536.1017722509932,71,54,41,89,89,64,6.0,0.4177863860022626,536.5317089559976,538.3256594439954,,,,,,,,,156,f,21,2023-04-03_14h43.26.171,RL,2022.2.4,60.03324304732931,
1,65,0,65,0,,,,,,,,,,None,538.3256594439954,538.3256594439954,538.3256594439954,538.3256594439954,538.3256594439954,538.3256594439954,j,0.22265369700471638,538.6006225599995,538.6006225599995,538.6006225599995,538.6006225599995,538.6006225599995,538.6006225599995,538.881124073996,538.881124073996,540.0175838949945,540.0175838949945,540.0405665439976,540.0405665439976,540.0405665439976,540.0405665439976,540.0405665439976,540.0405665439976,540.0405665439976,540.0405665439976,540.0405665439976,540.0405665439976,540.0405665439976,540.0405665439976,540.0405665439976,540.0405665439976,540.0405665439976,542.537295271999,542.537295271999,542.537295271999,542.537295271999,542.537295271999,68,51,49,83,83,55,6.0,0.5373004820066853,543.0925249369975,545.0958000569954,,,,,,,,,156,f,21,2023-04-03_14h43.26.171,RL,2022.2.4,60.03324304732931,
1,66,0,66,0,,,,,,,,,,None,545.0958000569954,545.0958000569954,545.0958000569954,545.0958000569954,545.0958000569954,545.0958000569954,j,0.2330238520007697,545.3709615519983,545.3709615519983,545.3709615519983,545.3709615519983,545.3709615519983,545.3709615519983,545.6349386119982,545.6349386119982,547.3565234829948,547.3565234829948,547.3963921809991,547.3963921809991,547.3963921809991,547.3963921809991,547.3963921809991,547.3963921809991,547.3963921809991,547.3963921809991,547.3963921809991,547.3963921809991,547.3963921809991,547.3963921809991,547.3963921809991,547.3963921809991,547.3963921809991,549.8951041829932,549.8951041829932,549.8951041829932,549.8951041829932,549.8951041829932,75,46,43,79,79,70,6.0,0.38244156000291696,550.2906190829963,551.964954213996,,,,,,,,,156,f,21,2023-04-03_14h43.26.171,RL,2022.2.4,60.03324304732931,
1,67,0,67,0,,,,,,,,,,None,551.964954213996,551.964954213996,551.964954213996,551.964954213996,551.964954213996,551.964954213996,j,0.34944879400427453,552.3528584559972,552.3528584559972,552.3528584559972,552.3528584559972,552.3528584559972,552.3528584559972,552.6211091369987,552.6211091369987,554.4482491509989,554.4482491509989,554.4690624609939,554.4690624609939,554.4690624609939,554.4690624609939,554.4690624609939,554.4690624609939,554.4690624609939,554.4690624609939,554.4690624609939,554.4690624609939,554.4690624609939,554.4690624609939,554.4690624609939,554.4690624609939,554.4690624609939,556.9639582499949,556.9639582499949,556.9639582499949,556.9639582499949,556.9639582499949,76,48,51,83,83,70,6.0,0.461958138999762,557.4426840359956,558.9689966759979,,,,,,,,,156,f,21,2023-04-03_14h43.26.171,RL,2022.2.4,60.03324304732931,
1,68,0,68,0,,,,,,,,,,None,558.9689966759979,558.9689966759979,558.9689966759979,558.9689966759979,558.9689966759979,558.9689966759979,j,0.24491074700199533,559.2599766709973,559.2599766709973,559.2599766709973,559.2599766709973,559.2599766709973,559.2599766709973,559.5260244269957,559.5260244269957,560.5356999799988,560.5356999799988,560.5761839829938,560.5761839829938,560.5761839829938,560.5761839829938,560.5761839829938,560.5761839829938,560.5761839829938,560.5761839829938,560.5761839829938,560.5761839829938,560.5761839829938,560.5761839829938,560.5761839829938,560.5761839829938,560.5761839829938,563.0738390199986,563.0738390199986,563.0738390199986,563.0738390199986,563.0738390199986,68,50,53,81,81,70,6.0,0.4912046109966468,563.5786699759992,565.5052343929929,,,,,,,,,156,f,21,2023-04-03_14h43.26.171,RL,2022.2.4,60.03324304732931,
1,69,0,69,0,,,,,,,,,,None,565.5052343929929,565.5052343929929,565.5052343929929,565.5052343929929,565.5052343929929,565.5052343929929,j,0.31350493100035237,565.8646782509968,565.8646782509968,565.8646782509968,565.8646782509968,565.8646782509968,565.8646782509968,566.1282917679928,566.1282917679928,567.163130752997,567.163130752997,567.2180105729931,567.2180105729931,567.2180105729931,567.2180105729931,567.2180105729931,567.2180105729931,567.2180105729931,567.2180105729931,567.2180105729931,567.2180105729931,567.2180105729931,567.2180105729931,567.2180105729931,567.2180105729931,567.2180105729931,569.7174637709977,569.7174637709977,569.7174637709977,569.7174637709977,569.7174637709977,68,49,49,86,86,61,6.0,1.6379755489979289,571.3732452429977,573.3252883519963,,,,,,,,,156,f,21,2023-04-03_14h43.26.171,RL,2022.2.4,60.03324304732931,
1,70,0,70,0,,,,,,,,,,None,573.3252883519963,573.3252883519963,573.3252883519963,573.3252883519963,573.3252883519963,573.3252883519963,j,0.20804912700259592,573.5820141319928,573.5820141319928,573.5820141319928,573.5820141319928,573.5820141319928,573.5820141319928,573.848026378997,573.848026378997,575.2818721769945,575.2818721769945,575.3236746839975,575.3236746839975,575.3236746839975,575.3236746839975,575.3236746839975,575.3236746839975,575.3236746839975,575.3236746839975,575.3236746839975,575.3236746839975,575.3236746839975,575.3236746839975,575.3236746839975,575.3236746839975,575.3236746839975,577.827495173995,577.827495173995,577.827495173995,577.827495173995,577.827495173995,64,55,38,70,70,42,6.0,0.4649608590043499,578.3029915869993,580.2624098679953,,,,,,,,,156,f,21,2023-04-03_14h43.26.171,RL,2022.2.4,60.03324304732931,
1,71,0,71,0,,,,,,,,,,None,580.2624098679953,580.2624098679953,580.2624098679953,580.2624098679953,580.2624098679953,580.2624098679953,r,0.5076797680012533,580.8221326589992,580.8221326589992,580.8221326589992,580.8221326589992,580.8221326589992,580.8221326589992,581.1015771139937,581.1015771139937,582.7174664369959,582.7174664369959,582.7410239829987,582.7410239829987,582.7410239829987,582.7410239829987,582.7410239829987,582.7410239829987,582.7410239829987,582.7410239829987,582.7410239829987,582.7410239829987,582.7410239829987,582.7410239829987,582.7410239829987,582.7410239829987,582.7410239829987,585.2485555909952,585.2485555909952,585.2485555909952,585.2485555909952,585.2485555909952,71,46,41,82,71,53,6.0,0.44408996600395767,585.7028717299982,587.3323276719966,,,,,,,,,156,f,21,2023-04-03_14h43.26.171,RL,2022.2.4,60.03324304732931,
1,72,0,72,0,,,,,,,,,,None,587.3323276719966,587.3323276719966,587.3323276719966,587.3323276719966,587.3323276719966,587.3323276719966,r,0.2973241939980653,587.671971056996,587.671971056996,587.671971056996,587.671971056996,587.671971056996,587.671971056996,587.9559199539945,587.9559199539945,589.5513497099964,589.5513497099964,589.5710396609938,589.5710396609938,589.5710396609938,589.5710396609938,589.5710396609938,589.5710396609938,589.5710396609938,589.5710396609938,589.5710396609938,589.5710396609938,589.5710396609938,589.5710396609938,589.5710396609938,589.5710396609938,589.5710396609938,592.0876472759992,592.0876472759992,592.0876472759992,592.0876472759992,592.0876472759992,68,51,48,81,68,57,5.0,0.6627795519962092,592.7661374409945,594.769291312994,,,,,,,,,156,f,21,2023-04-03_14h43.26.171,RL,2022.2.4,60.03324304732931,
1,73,0,73,0,,,,,,,,,,None,594.769291312994,594.769291312994,594.769291312994,594.769291312994,594.769291312994,594.769291312994,i,0.3259709310004837,595.1467029829946,595.1467029829946,595.1467029829946,595.1467029829946,595.1467029829946,595.1467029829946,595.4254210889994,595.4254210889994,597.1573178689941,597.1573178689941,597.1818261869994,597.1818261869994,597.1818261869994,597.1818261869994,597.1818261869994,597.1818261869994,597.1818261869994,597.1818261869994,597.1818261869994,597.1818261869994,597.1818261869994,597.1818261869994,597.1818261869994,597.1818261869994,597.1818261869994,599.6791010339948,599.6791010339948,599.6791010339948,599.6791010339948,599.6791010339948,73,52,49,72,49,61,3.0,0.6336941069966997,600.3260656849961,601.9055701269972,,,,,,,,,156,f,21,2023-04-03_14h43.26.171,RL,2022.2.4,60.03324304732931,
1,74,0,74,0,,,,,,,,,,None,601.9055701269972,601.9055701269972,601.9055701269972,601.9055701269972,601.9055701269972,601.9055701269972,j,0.5658914849991561,602.5261079179982,602.5261079179982,602.5261079179982,602.5261079179982,602.5261079179982,602.5261079179982,602.7952655809931,602.7952655809931,604.1923780119978,604.1923780119978,604.2342326839935,604.2342326839935,604.2342326839935,604.2342326839935,604.2342326839935,604.2342326839935,604.2342326839935,604.2342326839935,604.2342326839935,604.2342326839935,604.2342326839935,604.2342326839935,604.2342326839935,604.2342326839935,604.2342326839935,606.7357138699954,606.7357138699954,606.7357138699954,606.7357138699954,606.7357138699954,74,48,42,90,90,74,6.0,1.1976059549997444,607.9472603519971,609.6902014709995,,,,,,,,,156,f,21,2023-04-03_14h43.26.171,RL,2022.2.4,60.03324304732931,
1,75,0,75,0,,,,,,,,,,q,646.7305043749948,646.7305043749948,646.7305043749948,646.7305043749948,646.7305043749948,646.7305043749948,i,0.8908314849977614,647.670699077993,647.670699077993,647.670699077993,647.670699077993,647.670699077993,647.670699077993,647.933633142995,647.933633142995,649.3854667359992,649.3854667359992,649.4222161639991,649.4222161639991,649.4222161639991,649.4222161639991,649.4222161639991,649.4222161639991,649.4222161639991,649.4222161639991,649.4222161639991,649.4222161639991,649.4222161639991,649.4222161639991,649.4222161639991,649.4222161639991,649.4222161639991,651.9332847069963,651.9332847069963,651.9332847069963,651.9332847069963,651.9332847069963,63,43,42,91,42,61,3.0,0.724523381999461,652.6722627959971,654.447664501,,,609.6902014709995,609.6902014709995,37.01057540900365,,,,156,f,21,2023-04-03_14h43.26.171,RL,2022.2.4,60.03324304732931,
1,76,0,76,0,,,,,,,,,,None,654.447664501,654.447664501,654.447664501,654.447664501,654.447664501,654.447664501,j,0.247400498999923,654.7321696279978,654.7321696279978,654.7321696279978,654.7321696279978,654.7321696279978,654.7321696279978,655.0028473959974,655.0028473959974,656.5980472089941,656.5980472089941,656.6406915449988,656.6406915449988,656.6406915449988,656.6406915449988,656.6406915449988,656.6406915449988,656.6406915449988,656.6406915449988,656.6406915449988,656.6406915449988,656.6406915449988,656.6406915449988,656.6406915449988,656.6406915449988,656.6406915449988,659.1486496009966,659.1486496009966,659.1486496009966,659.1486496009966,659.1486496009966,71,44,28,88,88,59,5.0,0.768106921997969,659.931208173999,661.7833343859966,,,,,,,,,156,f,21,2023-04-03_14h43.26.171,RL,2022.2.4,60.03324304732931,
1,77,0,77,0,,,,,,,,,,None,661.7833343859966,661.7833343859966,661.7833343859966,661.7833343859966,661.7833343859966,661.7833343859966,j,0.2665783359989291,662.0929602879987,662.0929602879987,662.0929602879987,662.0929602879987,662.0929602879987,662.0929602879987,662.3574380489954,662.3574380489954,664.2557966879976,664.2557966879976,664.2958096569928,664.2958096569928,664.2958096569928,664.2958096569928,664.2958096569928,664.2958096569928,664.2958096569928,664.2958096569928,664.2958096569928,664.2958096569928,664.2958096569928,664.2958096569928,664.2958096569928,664.2958096569928,664.2958096569928,666.7969779269988,666.7969779269988,666.7969779269988,666.7969779269988,666.7969779269988,71,52,43,85,85,70,6.0,1.6762051690020598,668.4877587029987,670.0208560329993,,,,,,,,,156,f,21,2023-04-03_14h43.26.171,RL,2022.2.4,60.03324304732931,
1,78,0,78,0,,,,,,,,,,None,670.0208560329993,670.0208560329993,670.0208560329993,670.0208560329993,670.0208560329993,670.0208560329993,j,0.28159474600397516,670.3418512479984,670.3418512479984,670.3418512479984,670.3418512479984,670.3418512479984,670.3418512479984,670.6103444909968,670.6103444909968,671.4462437609982,671.4462437609982,671.4844050679967,671.4844050679967,671.4844050679967,671.4844050679967,671.4844050679967,671.4844050679967,671.4844050679967,671.4844050679967,671.4844050679967,671.4844050679967,671.4844050679967,671.4844050679967,671.4844050679967,671.4844050679967,671.4844050679967,673.9946247199987,673.9946247199987,673.9946247199987,673.9946247199987,673.9946247199987,72,44,48,74,74,32,6.0,0.4998345200001495,674.5083974689987,676.3578221279968,,,,,,,,,156,f,21,2023-04-03_14h43.26.171,RL,2022.2.4,60.03324304732931,
1,79,0,79,0,,,,,,,,,,None,676.3578221279968,676.3578221279968,676.3578221279968,676.3578221279968,676.3578221279968,676.3578221279968,j,0.22029565300181275,676.6294126739958,676.6294126739958,676.6294126739958,676.6294126739958,676.6294126739958,676.6294126739958,676.8965796239936,676.8965796239936,677.8753663119933,677.8753663119933,677.916946679994,677.916946679994,677.916946679994,677.916946679994,677.916946679994,677.916946679994,677.916946679994,677.916946679994,677.916946679994,677.916946679994,677.916946679994,677.916946679994,677.916946679994,677.916946679994,677.916946679994,680.4111859469995,680.4111859469995,680.4111859469995,680.4111859469995,680.4111859469995,72,47,42,80,80,67,6.0,0.5269672790018376,680.9535682319984,682.7942146239948,,,,,,,,,156,f,21,2023-04-03_14h43.26.171,RL,2022.2.4,60.03324304732931,
1,80,0,80,0,,,,,,,,,,None,682.7942146239948,682.7942146239948,682.7942146239948,682.7942146239948,682.7942146239948,682.7942146239948,j,0.28577555999800097,683.1280572739997,683.1280572739997,683.1280572739997,683.1280572739997,683.1280572739997,683.1280572739997,683.3997880429961,683.3997880429961,685.1668345659928,685.1668345659928,685.2051892579984,685.2051892579984,685.2051892579984,685.2051892579984,685.2051892579984,685.2051892579984,685.2051892579984,685.2051892579984,685.2051892579984,685.2051892579984,685.2051892579984,685.2051892579984,685.2051892579984,685.2051892579984,685.2051892579984,687.7132067119965,687.7132067119965,687.7132067119965,687.7132067119965,687.7132067119965,75,54,48,89,89,73,6.0,0.5623517380008707,688.2908846079954,689.9470839909991,,,,,,,,,156,f,21,2023-04-03_14h43.26.171,RL,2022.2.4,60.03324304732931,
1,81,0,81,0,,,,,,,,,,None,689.9470839909991,689.9470839909991,689.9470839909991,689.9470839909991,689.9470839909991,689.9470839909991,j,0.36274752000463195,690.3565063339993,690.3565063339993,690.3565063339993,690.3565063339993,690.3565063339993,690.3565063339993,690.6367637609947,690.6367637609947,691.7435666189995,691.7435666189995,691.7818007369933,691.7818007369933,691.7818007369933,691.7818007369933,691.7818007369933,691.7818007369933,691.7818007369933,691.7818007369933,691.7818007369933,691.7818007369933,691.7818007369933,691.7818007369933,691.7818007369933,691.7818007369933,691.7818007369933,694.2860878939973,694.2860878939973,694.2860878939973,694.2860878939973,694.2860878939973,69,41,39,84,84,72,6.0,0.5405518830011715,694.840072439998,696.633974378994,,,,,,,,,156,f,21,2023-04-03_14h43.26.171,RL,2022.2.4,60.03324304732931,
1,82,0,82,0,,,,,,,,,,None,696.633974378994,696.633974378994,696.633974378994,696.633974378994,696.633974378994,696.633974378994,j,0.33904907100077253,697.0214436439928,697.0214436439928,697.0214436439928,697.0214436439928,697.0214436439928,697.0214436439928,697.2920843939937,697.2920843939937,699.2433438619992,699.2433438619992,699.2832855259985,699.2832855259985,699.2832855259985,699.2832855259985,699.2832855259985,699.2832855259985,699.2832855259985,699.2832855259985,699.2832855259985,699.2832855259985,699.2832855259985,699.2832855259985,699.2832855259985,699.2832855259985,699.2832855259985,701.7812568169975,701.7812568169975,701.7812568169975,701.7812568169975,701.7812568169975,75,59,43,91,91,72,6.0,0.58946530999674,702.388172908999,704.2207127789952,,,,,,,,,156,f,21,2023-04-03_14h43.26.171,RL,2022.2.4,60.03324304732931,
1,83,0,83,0,,,,,,,,,,None,704.2207127789952,704.2207127789952,704.2207127789952,704.2207127789952,704.2207127789952,704.2207127789952,j,0.6848264439977356,704.9626084579941,704.9626084579941,704.9626084579941,704.9626084579941,704.9626084579941,704.9626084579941,705.2291553789983,705.2291553789983,706.1210176279928,706.1210176279928,706.1590138519969,706.1590138519969,706.1590138519969,706.1590138519969,706.1590138519969,706.1590138519969,706.1590138519969,706.1590138519969,706.1590138519969,706.1590138519969,706.1590138519969,706.1590138519969,706.1590138519969,706.1590138519969,706.1590138519969,708.6644827249984,708.6644827249984,708.6644827249984,708.6644827249984,708.6644827249984,66,56,41,83,83,22,7.0,0.9399792099939077,709.6178792189967,711.5731659739977,,,,,,,,,156,f,21,2023-04-03_14h43.26.171,RL,2022.2.4,60.03324304732931,
1,84,0,84,0,,,,,,,,,,None,711.5731659739977,711.5731659739977,711.5731659739977,711.5731659739977,711.5731659739977,711.5731659739977,j,0.28114325500064297,711.8966892129974,711.8966892129974,711.8966892129974,711.8966892129974,711.8966892129974,711.8966892129974,712.1633815929963,712.1633815929963,713.4831898049961,713.4831898049961,713.5198636939967,713.5198636939967,713.5198636939967,713.5198636939967,713.5198636939967,713.5198636939967,713.5198636939967,713.5198636939967,713.5198636939967,713.5198636939967,713.5198636939967,713.5198636939967,713.5198636939967,713.5198636939967,713.5198636939967,716.020508267,716.020508267,716.020508267,716.020508267,716.020508267,72,52,45,79,79,68,6.0,0.47413876799691934,716.5116383699933,718.3580242309981,,,,,,,,,156,f,21,2023-04-03_14h43.26.171,RL,2022.2.4,60.03324304732931,
1,85,0,85,0,,,,,,,,,,None,718.3580242309981,718.3580242309981,718.3580242309981,718.3580242309981,718.3580242309981,718.3580242309981,j,0.5847008189957705,719.000008363997,719.000008363997,719.000008363997,719.000008363997,719.000008363997,719.000008363997,719.2675696129954,719.2675696129954,720.3052393939943,720.3052393939943,720.3457089669973,720.3457089669973,720.3457089669973,720.3457089669973,720.3457089669973,720.3457089669973,720.3457089669973,720.3457089669973,720.3457089669973,720.3457089669973,720.3457089669973,720.3457089669973,720.3457089669973,720.3457089669973,720.3457089669973,722.8467367199992,722.8467367199992,722.8467367199992,722.8467367199992,722.8467367199992,67,54,48,85,85,66,6.0,0.5453916280021076,723.4063869359961,725.2311571829996,,,,,,,,,156,f,21,2023-04-03_14h43.26.171,RL,2022.2.4,60.03324304732931,
1,86,0,86,0,,,,,,,,,,None,725.2311571829996,725.2311571829996,725.2311571829996,725.2311571829996,725.2311571829996,725.2311571829996,j,0.46635407699795906,725.7394259409994,725.7394259409994,725.7394259409994,725.7394259409994,725.7394259409994,725.7394259409994,726.0030935689938,726.0030935689938,726.8503831369962,726.8503831369962,726.8892170869949,726.8892170869949,726.8892170869949,726.8892170869949,726.8892170869949,726.8892170869949,726.8892170869949,726.8892170869949,726.8892170869949,726.8892170869949,726.8892170869949,726.8892170869949,726.8892170869949,726.8892170869949,726.8892170869949,729.3912283409954,729.3912283409954,729.3912283409954,729.3912283409954,729.3912283409954,71,49,39,77,77,74,6.0,0.43732766899483977,729.8426929049965,731.8159199229995,,,,,,,,,156,f,21,2023-04-03_14h43.26.171,RL,2022.2.4,60.03324304732931,
1,87,0,87,0,,,,,,,,,,None,731.8159199229995,731.8159199229995,731.8159199229995,731.8159199229995,731.8159199229995,731.8159199229995,j,0.26709345799463335,732.138422637996,732.138422637996,732.138422637996,732.138422637996,732.138422637996,732.138422637996,732.4063731809947,732.4063731809947,734.3758953939978,734.3758953939978,734.416116223998,734.416116223998,734.416116223998,734.416116223998,734.416116223998,734.416116223998,734.416116223998,734.416116223998,734.416116223998,734.416116223998,734.416116223998,734.416116223998,734.416116223998,734.416116223998,734.416116223998,736.9206980109957,736.9206980109957,736.9206980109957,736.9206980109957,736.9206980109957,68,50,36,82,82,67,6.0,0.6465505910018692,737.5856862909932,739.5036152319954,,,,,,,,,156,f,21,2023-04-03_14h43.26.171,RL,2022.2.4,60.03324304732931,
1,88,0,88,0,,,,,,,,,,None,739.5036152319954,739.5036152319954,739.5036152319954,739.5036152319954,739.5036152319954,739.5036152319954,j,0.2946852239983855,739.8464144269965,739.8464144269965,739.8464144269965,739.8464144269965,739.8464144269965,739.8464144269965,740.1129163459991,740.1129163459991,741.1145310799984,741.1145310799984,741.1539319719959,741.1539319719959,741.1539319719959,741.1539319719959,741.1539319719959,741.1539319719959,741.1539319719959,741.1539319719959,741.1539319719959,741.1539319719959,741.1539319719959,741.1539319719959,741.1539319719959,741.1539319719959,741.1539319719959,743.6556064059987,743.6556064059987,743.6556064059987,743.6556064059987,743.6556064059987,67,47,41,80,80,67,6.0,0.893616656998347,744.5650573099992,746.406543223995,,,,,,,,,156,f,21,2023-04-03_14h43.26.171,RL,2022.2.4,60.03324304732931,
1,89,0,89,0,,,,,,,,,,None,746.406543223995,746.406543223995,746.406543223995,746.406543223995,746.406543223995,746.406543223995,j,0.2502107220061589,746.7130196309954,746.7130196309954,746.7130196309954,746.7130196309954,746.7130196309954,746.7130196309954,746.9818067929955,746.9818067929955,748.5690557149937,748.5690557149937,748.6093029329932,748.6093029329932,748.6093029329932,748.6093029329932,748.6093029329932,748.6093029329932,748.6093029329932,748.6093029329932,748.6093029329932,748.6093029329932,748.6093029329932,748.6093029329932,748.6093029329932,748.6093029329932,748.6093029329932,751.1139724259992,751.1139724259992,751.1139724259992,751.1139724259992,751.1139724259992,54,48,43,82,82,67,6.0,0.5254364080028608,751.6527437889963,753.1931428109965,,,,,,,,,156,f,21,2023-04-03_14h43.26.171,RL,2022.2.4,60.03324304732931,
1,90,0,90,0,,,,,,,,,,None,753.1931428109965,753.1931428109965,753.1931428109965,753.1931428109965,753.1931428109965,753.1931428109965,j,0.3312557830067817,753.5647939969931,753.5647939969931,753.5647939969931,753.5647939969931,753.5647939969931,753.5647939969931,753.833163602998,753.833163602998,755.0275035209997,755.0275035209997,755.066901153994,755.066901153994,755.066901153994,755.066901153994,755.066901153994,755.066901153994,755.066901153994,755.066901153994,755.066901153994,755.066901153994,755.066901153994,755.066901153994,755.066901153994,755.066901153994,755.066901153994,757.578700178994,757.578700178994,757.578700178994,757.578700178994,757.578700178994,49,39,44,90,90,70,6.0,0.5080577979970258,758.0994340469988,760.0130945979981,,,,,,,,,156,f,21,2023-04-03_14h43.26.171,RL,2022.2.4,60.03324304732931,
1,91,0,91,0,,,,,,,,,,None,760.0130945979981,760.0130945979981,760.0130945979981,760.0130945979981,760.0130945979981,760.0130945979981,j,0.24498436199792195,760.2989907629963,760.2989907629963,760.2989907629963,760.2989907629963,760.2989907629963,760.2989907629963,760.5705508049941,760.5705508049941,762.1571115439947,762.1571115439947,762.1980373589977,762.1980373589977,762.1980373589977,762.1980373589977,762.1980373589977,762.1980373589977,762.1980373589977,762.1980373589977,762.1980373589977,762.1980373589977,762.1980373589977,762.1980373589977,762.1980373589977,762.1980373589977,762.1980373589977,764.7084851489999,764.7084851489999,764.7084851489999,764.7084851489999,764.7084851489999,58,40,50,84,84,64,6.0,0.5178387920022942,765.240483456997,767.034092529997,,,,,,,,,156,f,21,2023-04-03_14h43.26.171,RL,2022.2.4,60.03324304732931,
1,92,0,92,0,,,,,,,,,,None,767.034092529997,767.034092529997,767.034092529997,767.034092529997,767.034092529997,767.034092529997,j,0.3286174109962303,767.4076942979955,767.4076942979955,767.4076942979955,767.4076942979955,767.4076942979955,767.4076942979955,767.6899151509933,767.6899151509933,769.5749606299942,769.5749606299942,769.5993881899994,769.5993881899994,769.5993881899994,769.5993881899994,769.5993881899994,769.5993881899994,769.5993881899994,769.5993881899994,769.5993881899994,769.5993881899994,769.5993881899994,769.5993881899994,769.5993881899994,769.5993881899994,769.5993881899994,772.1067933819941,772.1067933819941,772.1067933819941,772.1067933819941,772.1067933819941,49,39,59,83,83,68,6.0,0.4969082299940055,772.6178097909942,774.5866884459974,,,,,,,,,156,f,21,2023-04-03_14h43.26.171,RL,2022.2.4,60.03324304732931,
1,93,0,93,0,,,,,,,,,,None,774.5866884459974,774.5866884459974,774.5866884459974,774.5866884459974,774.5866884459974,774.5866884459974,j,0.2836076480016345,774.9245669629963,774.9245669629963,774.9245669629963,774.9245669629963,774.9245669629963,774.9245669629963,775.1957925799943,775.1957925799943,777.0312644729929,777.0312644729929,777.0712251279983,777.0712251279983,777.0712251279983,777.0712251279983,777.0712251279983,777.0712251279983,777.0712251279983,777.0712251279983,777.0712251279983,777.0712251279983,777.0712251279983,777.0712251279983,777.0712251279983,777.0712251279983,777.0712251279983,779.5679140139982,779.5679140139982,779.5679140139982,779.5679140139982,779.5679140139982,43,35,49,82,82,65,6.0,0.5032797849999042,780.0880158229993,781.7074191139982,,,,,,,,,156,f,21,2023-04-03_14h43.26.171,RL,2022.2.4,60.03324304732931,
1,94,0,94,0,,,,,,,,,,None,781.7074191139982,781.7074191139982,781.7074191139982,781.7074191139982,781.7074191139982,781.7074191139982,j,0.5526480059997994,782.3126295429975,782.3126295429975,782.3126295429975,782.3126295429975,782.3126295429975,782.3126295429975,782.5819674459999,782.5819674459999,784.4806402179966,784.4806402179966,784.5042541399962,784.5042541399962,784.5042541399962,784.5042541399962,784.5042541399962,784.5042541399962,784.5042541399962,784.5042541399962,784.5042541399962,784.5042541399962,784.5042541399962,784.5042541399962,784.5042541399962,784.5042541399962,784.5042541399962,787.0189951369975,787.0189951369975,787.0189951369975,787.0189951369975,787.0189951369975,48,44,65,75,75,76,5.0,0.7730198969948106,787.8110776979956,789.3447135369934,,,,,,,,,156,f,21,2023-04-03_14h43.26.171,RL,2022.2.4,60.03324304732931,
1,95,0,95,0,,,,,,,,,,None,789.3447135369934,789.3447135369934,789.3447135369934,789.3447135369934,789.3447135369934,789.3447135369934,j,0.4238946830009809,789.8221269979986,789.8221269979986,789.8221269979986,789.8221269979986,789.8221269979986,789.8221269979986,790.1016064799987,790.1016064799987,790.9137531029992,790.9137531029992,790.9379077149933,790.9379077149933,790.9379077149933,790.9379077149933,790.9379077149933,790.9379077149933,790.9379077149933,790.9379077149933,790.9379077149933,790.9379077149933,790.9379077149933,790.9379077149933,790.9379077149933,790.9379077149933,790.9379077149933,793.4476874629981,793.4476874629981,793.4476874629981,793.4476874629981,793.4476874629981,50,33,58,80,80,80,6.0,0.5105595759960124,793.9731345889959,795.4974930489989,,,,,,,,,156,f,21,2023-04-03_14h43.26.171,RL,2022.2.4,60.03324304732931,
1,96,0,96,0,,,,,,,,,,None,795.4974930489989,795.4974930489989,795.4974930489989,795.4974930489989,795.4974930489989,795.4974930489989,j,0.6389669540003524,796.1891393559999,796.1891393559999,796.1891393559999,796.1891393559999,796.1891393559999,796.1891393559999,796.4536868859941,796.4536868859941,797.8670940559969,797.8670940559969,797.908798313998,797.908798313998,797.908798313998,797.908798313998,797.908798313998,797.908798313998,797.908798313998,797.908798313998,797.908798313998,797.908798313998,797.908798313998,797.908798313998,797.908798313998,797.908798313998,797.908798313998,800.4088657559987,800.4088657559987,800.4088657559987,800.4088657559987,800.4088657559987,56,32,52,77,77,77,6.0,0.5036299300045357,800.9269419249977,802.9339827309959,,,,,,,,,156,f,21,2023-04-03_14h43.26.171,RL,2022.2.4,60.03324304732931,
1,97,0,97,0,,,,,,,,,,None,802.9339827309959,802.9339827309959,802.9339827309959,802.9339827309959,802.9339827309959,802.9339827309959,j,0.26426828400144586,803.2398856019936,803.2398856019936,803.2398856019936,803.2398856019936,803.2398856019936,803.2398856019936,803.5089365719978,803.5089365719978,804.4276030739929,804.4276030739929,804.4672294379998,804.4672294379998,804.4672294379998,804.4672294379998,804.4672294379998,804.4672294379998,804.4672294379998,804.4672294379998,804.4672294379998,804.4672294379998,804.4672294379998,804.4672294379998,804.4672294379998,804.4672294379998,804.4672294379998,806.9690779309967,806.9690779309967,806.9690779309967,806.9690779309967,806.9690779309967,53,39,63,77,77,66,6.0,0.5137785320039256,807.497142123997,809.5043772059944,,,,,,,,,156,f,21,2023-04-03_14h43.26.171,RL,2022.2.4,60.03324304732931,
1,98,0,98,0,,,,,,,,,,None,809.5043772059944,809.5043772059944,809.5043772059944,809.5043772059944,809.5043772059944,809.5043772059944,j,0.236551349000365,809.779408286995,809.779408286995,809.779408286995,809.779408286995,809.779408286995,809.779408286995,810.0434006689975,810.0434006689975,811.8137278679933,811.8137278679933,811.8499306249942,811.8499306249942,811.8499306249942,811.8499306249942,811.8499306249942,811.8499306249942,811.8499306249942,811.8499306249942,811.8499306249942,811.8499306249942,811.8499306249942,811.8499306249942,811.8499306249942,811.8499306249942,811.8499306249942,814.3656395679936,814.3656395679936,814.3656395679936,814.3656395679936,814.3656395679936,49,43,46,79,79,33,7.0,0.5705804809986148,814.9500219379988,816.8739561679977,,,,,,,,,156,f,21,2023-04-03_14h43.26.171,RL,2022.2.4,60.03324304732931,
1,99,0,99,0,,,,,,,,,,None,816.8739561679977,816.8739561679977,816.8739561679977,816.8739561679977,816.8739561679977,816.8739561679977,j,0.27851861999806715,817.1979805319934,817.1979805319934,817.1979805319934,817.1979805319934,817.1979805319934,817.1979805319934,817.464151234999,817.464151234999,818.4428620409963,818.4428620409963,818.4795217939973,818.4795217939973,818.4795217939973,818.4795217939973,818.4795217939973,818.4795217939973,818.4795217939973,818.4795217939973,818.4795217939973,818.4795217939973,818.4795217939973,818.4795217939973,818.4795217939973,818.4795217939973,818.4795217939973,820.9866441569975,820.9866441569975,820.9866441569975,820.9866441569975,820.9866441569975,42,33,55,85,85,67,6.0,0.8843261529982556,821.8851722349937,823.511474932995,,,,,,,,,156,f,21,2023-04-03_14h43.26.171,RL,2022.2.4,60.03324304732931,
1,100,0,100,0,,,,,,,,,,None,823.511474932995,823.511474932995,823.511474932995,823.511474932995,823.511474932995,823.511474932995,j,0.24825214299926301,823.805887276998,823.805887276998,823.805887276998,823.805887276998,823.805887276998,823.805887276998,824.0835762309944,824.0835762309944,825.8844892299967,825.8844892299967,825.9095821969968,825.9095821969968,825.9095821969968,825.9095821969968,825.9095821969968,825.9095821969968,825.9095821969968,825.9095821969968,825.9095821969968,825.9095821969968,825.9095821969968,825.9095821969968,825.9095821969968,825.9095821969968,825.9095821969968,828.4155092869987,828.4155092869987,828.4155092869987,828.4155092869987,828.4155092869987,43,40,63,76,76,68,5.0,0.6529501420009183,829.0829865669948,830.6476830309985,,,,,,,,,156,f,21,2023-04-03_14h43.26.171,RL,2022.2.4,60.03324304732931,
1,101,0,101,0,,,,,,,,,,None,830.6476830309985,830.6476830309985,830.6476830309985,830.6476830309985,830.6476830309985,830.6476830309985,j,0.2576228309990256,830.955293013998,830.955293013998,830.955293013998,830.955293013998,830.955293013998,830.955293013998,831.2204469079952,831.2204469079952,832.2430058809987,832.2430058809987,832.2982795479984,832.2982795479984,832.2982795479984,832.2982795479984,832.2982795479984,832.2982795479984,832.2982795479984,832.2982795479984,832.2982795479984,832.2982795479984,832.2982795479984,832.2982795479984,832.2982795479984,832.2982795479984,832.2982795479984,834.8016941589958,834.8016941589958,834.8016941589958,834.8016941589958,834.8016941589958,57,44,55,68,68,79,4.0,0.697802672002581,835.512277156995,837.417509480998,,,,,,,,,156,f,21,2023-04-03_14h43.26.171,RL,2022.2.4,60.03324304732931,
1,102,0,102,0,,,,,,,,,,None,837.417509480998,837.417509480998,837.417509480998,837.417509480998,837.417509480998,837.417509480998,j,0.20658211300178664,837.677595576999,837.677595576999,837.677595576999,837.677595576999,837.677595576999,837.677595576999,837.9564966339967,837.9564966339967,839.3861566409978,839.3861566409978,839.4263588089962,839.4263588089962,839.4263588089962,839.4263588089962,839.4263588089962,839.4263588089962,839.4263588089962,839.4263588089962,839.4263588089962,839.4263588089962,839.4263588089962,839.4263588089962,839.4263588089962,839.4263588089962,839.4263588089962,841.9225679039955,841.9225679039955,841.9225679039955,841.9225679039955,841.9225679039955,65,43,52,83,83,69,6.0,0.5798416519974126,842.5184545079974,844.1374356659944,,,,,,,,,156,f,21,2023-04-03_14h43.26.171,RL,2022.2.4,60.03324304732931,
1,103,0,103,0,,,,,,,,,,None,844.1374356659944,844.1374356659944,844.1374356659944,844.1374356659944,844.1374356659944,844.1374356659944,j,0.38133139399724314,844.5609068069971,844.5609068069971,844.5609068069971,844.5609068069971,844.5609068069971,844.5609068069971,844.8276192549965,844.8276192549965,846.5142418319956,846.5142418319956,846.5542800859985,846.5542800859985,846.5542800859985,846.5542800859985,846.5542800859985,846.5542800859985,846.5542800859985,846.5542800859985,846.5542800859985,846.5542800859985,846.5542800859985,846.5542800859985,846.5542800859985,846.5542800859985,846.5542800859985,849.0558095819943,849.0558095819943,849.0558095819943,849.0558095819943,849.0558095819943,66,40,53,86,86,72,6.0,0.48519500799739035,849.5559203409939,851.3233011949997,,,,,,,,,156,f,21,2023-04-03_14h43.26.171,RL,2022.2.4,60.03324304732931,
1,104,0,104,0,,,,,,,,,,None,851.3233011949997,851.3233011949997,851.3233011949997,851.3233011949997,851.3233011949997,851.3233011949997,j,0.4489382920000935,851.8261027069966,851.8261027069966,851.8261027069966,851.8261027069966,851.8261027069966,851.8261027069966,852.0972149009976,852.0972149009976,853.4654838959977,853.4654838959977,853.4925850899963,853.4925850899963,853.4925850899963,853.4925850899963,853.4925850899963,853.4925850899963,853.4925850899963,853.4925850899963,853.4925850899963,853.4925850899963,853.4925850899963,853.4925850899963,853.4925850899963,853.4925850899963,853.4925850899963,856.0031945749943,856.0031945749943,856.0031945749943,856.0031945749943,856.0031945749943,65,40,55,83,83,58,6.0,0.507453311001882,856.5257160689944,858.3260468969966,,,,,,,,,156,f,21,2023-04-03_14h43.26.171,RL,2022.2.4,60.03324304732931,
1,105,0,105,0,,,,,,,,,,None,858.3260468969966,858.3260468969966,858.3260468969966,858.3260468969966,858.3260468969966,858.3260468969966,j,0.4677939499961212,858.8503788889939,858.8503788889939,858.8503788889939,858.8503788889939,858.8503788889939,858.8503788889939,859.1162878319956,859.1162878319956,861.0368684139976,861.0368684139976,861.0766050299935,861.0766050299935,861.0766050299935,861.0766050299935,861.0766050299935,861.0766050299935,861.0766050299935,861.0766050299935,861.0766050299935,861.0766050299935,861.0766050299935,861.0766050299935,861.0766050299935,861.0766050299935,861.0766050299935,863.5820324349988,863.5820324349988,863.5820324349988,863.5820324349988,863.5820324349988,61,31,66,79,79,66,6.0,0.6800480310048442,864.2784560749933,866.2146660839935,,,,,,,,,156,f,21,2023-04-03_14h43.26.171,RL,2022.2.4,60.03324304732931,
1,106,0,106,0,,,,,,,,,,None,866.2146660839935,866.2146660839935,866.2146660839935,866.2146660839935,866.2146660839935,866.2146660839935,r,0.22990310099703493,866.490829560993,866.490829560993,866.490829560993,866.490829560993,866.490829560993,866.490829560993,866.7547913179951,866.7547913179951,867.5930851869998,867.5930851869998,867.6332121009982,867.6332121009982,867.6332121009982,867.6332121009982,867.6332121009982,867.6332121009982,867.6332121009982,867.6332121009982,867.6332121009982,867.6332121009982,867.6332121009982,867.6332121009982,867.6332121009982,867.6332121009982,867.6332121009982,870.1306586899955,870.1306586899955,870.1306586899955,870.1306586899955,870.1306586899955,69,35,60,84,69,69,5.0,1.2520778710022569,871.3995771779955,873.1337328269947,,,,,,,,,156,f,21,2023-04-03_14h43.26.171,RL,2022.2.4,60.03324304732931,
1,107,0,107,0,,,,,,,,,,None,873.1337328269947,873.1337328269947,873.1337328269947,873.1337328269947,873.1337328269947,873.1337328269947,j,0.2364968229958322,873.4110136299932,873.4110136299932,873.4110136299932,873.4110136299932,873.4110136299932,873.4110136299932,873.6761638379976,873.6761638379976,874.8756135799995,874.8756135799995,874.9163742329984,874.9163742329984,874.9163742329984,874.9163742329984,874.9163742329984,874.9163742329984,874.9163742329984,874.9163742329984,874.9163742329984,874.9163742329984,874.9163742329984,874.9163742329984,874.9163742329984,874.9163742329984,874.9163742329984,877.4143435279984,877.4143435279984,877.4143435279984,877.4143435279984,877.4143435279984,71,36,58,79,79,19,6.0,0.5892232149999472,878.0180407979933,879.9043613129979,,,,,,,,,156,f,21,2023-04-03_14h43.26.171,RL,2022.2.4,60.03324304732931,
1,108,0,108,0,,,,,,,,,,None,879.9043613129979,879.9043613129979,879.9043613129979,879.9043613129979,879.9043613129979,879.9043613129979,j,0.2395703770016553,880.1975871669929,880.1975871669929,880.1975871669929,880.1975871669929,880.1975871669929,880.1975871669929,880.4767317339938,880.4767317339938,882.1438343569971,882.1438343569971,882.1665262199967,882.1665262199967,882.1665262199967,882.1665262199967,882.1665262199967,882.1665262199967,882.1665262199967,882.1665262199967,882.1665262199967,882.1665262199967,882.1665262199967,882.1665262199967,882.1665262199967,882.1665262199967,882.1665262199967,884.6765357939948,884.6765357939948,884.6765357939948,884.6765357939948,884.6765357939948,67,45,62,77,77,74,6.0,0.5268897720015957,885.2167432279966,886.9566710159997,,,,,,,,,156,f,21,2023-04-03_14h43.26.171,RL,2022.2.4,60.03324304732931,
1,109,0,109,0,,,,,,,,,,None,886.9566710159997,886.9566710159997,886.9566710159997,886.9566710159997,886.9566710159997,886.9566710159997,j,0.4079386690063984,887.4191447919948,887.4191447919948,887.4191447919948,887.4191447919948,887.4191447919948,887.4191447919948,887.6890161239935,887.6890161239935,889.6654575809953,889.6654575809953,889.7036790939965,889.7036790939965,889.7036790939965,889.7036790939965,889.7036790939965,889.7036790939965,889.7036790939965,889.7036790939965,889.7036790939965,889.7036790939965,889.7036790939965,889.7036790939965,889.7036790939965,889.7036790939965,889.7036790939965,892.2138652489957,892.2138652489957,892.2138652489957,892.2138652489957,892.2138652489957,71,41,50,88,88,67,6.0,0.5651485190028325,892.791464252994,894.7275479439995,,,,,,,,,156,f,21,2023-04-03_14h43.26.171,RL,2022.2.4,60.03324304732931,
1,110,0,110,0,,,,,,,,,,None,894.7275479439995,894.7275479439995,894.7275479439995,894.7275479439995,894.7275479439995,894.7275479439995,j,0.3725280610015034,895.1409719969961,895.1409719969961,895.1409719969961,895.1409719969961,895.1409719969961,895.1409719969961,895.4174661819998,895.4174661819998,896.9768958169952,896.9768958169952,896.9980164029985,896.9980164029985,896.9980164029985,896.9980164029985,896.9980164029985,896.9980164029985,896.9980164029985,896.9980164029985,896.9980164029985,896.9980164029985,896.9980164029985,896.9980164029985,896.9980164029985,896.9980164029985,896.9980164029985,899.5024330669985,899.5024330669985,899.5024330669985,899.5024330669985,899.5024330669985,59,42,62,79,79,68,5.0,0.8322992440007511,900.3482191639996,902.1479591389943,,,,,,,,,156,f,21,2023-04-03_14h43.26.171,RL,2022.2.4,60.03324304732931,
1,111,0,111,0,,,,,,,,,,None,902.1479591389943,902.1479591389943,902.1479591389943,902.1479591389943,902.1479591389943,902.1479591389943,j,0.2325758289953228,902.4375682429963,902.4375682429963,902.4375682429963,902.4375682429963,902.4375682429963,902.4375682429963,902.703751710993,902.703751710993,904.1064462469949,904.1064462469949,904.1470878679975,904.1470878679975,904.1470878679975,904.1470878679975,904.1470878679975,904.1470878679975,904.1470878679975,904.1470878679975,904.1470878679975,904.1470878679975,904.1470878679975,904.1470878679975,904.1470878679975,904.1470878679975,904.1470878679975,906.6458298409998,906.6458298409998,906.6458298409998,906.6458298409998,906.6458298409998,55,40,58,83,83,68,7.0,0.7318609479989391,907.391523429993,909.0006659729988,,,,,,,,,156,f,21,2023-04-03_14h43.26.171,RL,2022.2.4,60.03324304732931,
1,112,0,112,0,,,,,,,,,,None,909.0006659729988,909.0006659729988,909.0006659729988,909.0006659729988,909.0006659729988,909.0006659729988,j,0.28367632699519163,909.3274823199972,909.3274823199972,909.3274823199972,909.3274823199972,909.3274823199972,909.3274823199972,909.5942646309995,909.5942646309995,911.266878822993,911.266878822993,911.2880974429936,911.2880974429936,911.2880974429936,911.2880974429936,911.2880974429936,911.2880974429936,911.2880974429936,911.2880974429936,911.2880974429936,911.2880974429936,911.2880974429936,911.2880974429936,911.2880974429936,911.2880974429936,911.2880974429936,913.8023598949949,913.8023598949949,913.8023598949949,913.8023598949949,913.8023598949949,61,39,58,85,85,70,6.0,0.4956848660003743,914.311768900996,916.1712961089943,,,,,,,,,156,f,21,2023-04-03_14h43.26.171,RL,2022.2.4,60.03324304732931,
1,113,0,113,0,,,,,,,,,,None,916.1712961089943,916.1712961089943,916.1712961089943,916.1712961089943,916.1712961089943,916.1712961089943,j,0.454642350996437,916.6648877339976,916.6648877339976,916.6648877339976,916.6648877339976,916.6648877339976,916.6648877339976,916.9456075089984,916.9456075089984,918.081034690993,918.081034690993,918.1050465729932,918.1050465729932,918.1050465729932,918.1050465729932,918.1050465729932,918.1050465729932,918.1050465729932,918.1050465729932,918.1050465729932,918.1050465729932,918.1050465729932,918.1050465729932,918.1050465729932,918.1050465729932,918.1050465729932,920.6012906799951,920.6012906799951,920.6012906799951,920.6012906799951,920.6012906799951,62,39,60,78,78,69,5.0,0.43409626999346074,921.0525780979951,922.641109653996,,,,,,,,,156,f,21,2023-04-03_14h43.26.171,RL,2022.2.4,60.03324304732931,
1,114,0,114,0,,,,,,,,,,None,922.641109653996,922.641109653996,922.641109653996,922.641109653996,922.641109653996,922.641109653996,j,0.3574899529994582,923.0480359709982,923.0480359709982,923.0480359709982,923.0480359709982,923.0480359709982,923.0480359709982,923.3148924519992,923.3148924519992,924.524669609993,924.524669609993,924.5647283299986,924.5647283299986,924.5647283299986,924.5647283299986,924.5647283299986,924.5647283299986,924.5647283299986,924.5647283299986,924.5647283299986,924.5647283299986,924.5647283299986,924.5647283299986,924.5647283299986,924.5647283299986,924.5647283299986,927.0749884529941,927.0749884529941,927.0749884529941,927.0749884529941,927.0749884529941,61,34,56,91,91,68,7.0,0.056305816004169174,927.144859188993,928.8107930739934,,,,,,,,,156,f,21,2023-04-03_14h43.26.171,RL,2022.2.4,60.03324304732931,
1,115,0,115,0,,,,,,,,,,None,928.8107930739934,928.8107930739934,928.8107930739934,928.8107930739934,928.8107930739934,928.8107930739934,j,0.22237606999988202,929.0857235929943,929.0857235929943,929.0857235929943,929.0857235929943,929.0857235929943,929.0857235929943,929.3545020009988,929.3545020009988,930.8533892429987,930.8533892429987,930.876623502998,930.876623502998,930.876623502998,930.876623502998,930.876623502998,930.876623502998,930.876623502998,930.876623502998,930.876623502998,930.876623502998,930.876623502998,930.876623502998,930.876623502998,930.876623502998,930.876623502998,933.3857048749996,933.3857048749996,933.3857048749996,933.3857048749996,933.3857048749996,60,43,63,84,84,75,6.0,0.5949694320006529,933.9981679299963,935.6626609179948,,,,,,,,,156,f,21,2023-04-03_14h43.26.171,RL,2022.2.4,60.03324304732931,
