bandit,trials.thisRepN,trials.thisTrialN,trials.thisN,trials.thisIndex,instru_img1.started,instru_resp.started,instru_resp.keys,instru_resp.rt,instru_img2.started,instru_resp2.started,instru_resp2.keys,instru_resp2.rt,fixbefore_2.started,rest_response.keys,red.started,green.started,yellow.started,blue.started,choose_bandit.started,Fixation.started,choose_bandit.keys,choose_bandit.rt,black.started,red_2.started,green_2.started,yellow_2.started,blue_2.started,fixation_2.started,docs.started,image_2.started,docs.stopped,image_2.stopped,black.stopped,red_2.stopped,green_2.stopped,yellow_2.stopped,blue_2.stopped,fixation_2.stopped,black_com.started,reward_sub.started,palyerb.started,reward__sub.started,compare.started,red_compare.started,green_com.started,yellow_com.started,blue_com.started,image_3.started,slider.started,text.started,image_4.started,image_5.started,rewardyellow,rewardred,rewardblue,rewardgreen,subchoose,playerb,slider.response,slider.rt,intertrialfix.started,intertrialfix.stopped,rest_image.started,rest_response.started,rest_response.rt,image.started,key_resp.started,key_resp.keys,participant,Gender,Age,date,expName,psychopyVersion,frameRate,
,,,,,36.75173350004479,36.75173350004479,space,8.50760930008255,,,,,,,,,,,,,,,,,,,,,,,,,,,,,,,,,,,,,,,,,,,,,,,,,,,,,,,,,,,,,158,f,25,2023-04-03_15h36.57.828,RL,2022.2.4,60.0712806068355,
,,,,,,,,,45.28079680004157,45.28079680004157,y,34.976404999848455,,,,,,,,,,,,,,,,,,,,,,,,,,,,,,,,,,,,,,,,,,,,,,,,,,,,,,,,,158,f,25,2023-04-03_15h36.57.828,RL,2022.2.4,60.0712806068355,
1,0,0,0,0,,,,,,,,,80.28013590001501,None,81.29511710000224,81.29511710000224,81.29511710000224,81.29511710000224,81.29511710000224,81.29511710000224,r,0.9056331999599934,82.2366152999457,82.2366152999457,82.2366152999457,82.2366152999457,82.2366152999457,82.2366152999457,82.52483809995465,82.52483809995465,83.38888050010428,83.38888050010428,83.40884810010903,83.40884810010903,83.40884810010903,83.40884810010903,83.40884810010903,83.40884810010903,83.40884810010903,83.40884810010903,83.40884810010903,83.40884810010903,83.40884810010903,83.40884810010903,83.40884810010903,83.40884810010903,83.40884810010903,85.91510290000588,85.91510290000588,85.91510290000588,85.91510290000588,85.91510290000588,47,31,66,64,47,64,5.0,2.2596193000208586,88.23377960012294,90.03722489997745,,,,,,,158,f,25,2023-04-03_15h36.57.828,RL,2022.2.4,60.0712806068355,
1,1,0,1,0,,,,,,,,,,None,90.03722489997745,90.03722489997745,90.03722489997745,90.03722489997745,90.03722489997745,90.03722489997745,i,0.6250758001115173,90.68773170001805,90.68773170001805,90.68773170001805,90.68773170001805,90.68773170001805,90.68773170001805,90.98514640005305,90.98514640005305,92.6634597000666,92.6634597000666,92.6634597000666,92.6634597000666,92.6634597000666,92.6634597000666,92.6634597000666,92.6634597000666,92.6634597000666,92.6634597000666,92.6634597000666,92.6634597000666,92.6634597000666,92.6634597000666,92.6634597000666,92.6634597000666,92.6634597000666,95.17274620011449,95.17274620011449,95.17274620011449,95.17274620011449,95.17274620011449,46,31,61,69,61,49,5.0,0.7970804001670331,95.98715880000964,97.60007179994136,,,,,,,158,f,25,2023-04-03_15h36.57.828,RL,2022.2.4,60.0712806068355,
1,2,0,2,0,,,,,,,,,,None,97.60007179994136,97.60007179994136,97.60007179994136,97.60007179994136,97.60007179994136,97.60007179994136,f,1.0103500001132488,98.63391269999556,98.63391269999556,98.63391269999556,98.63391269999556,98.63391269999556,98.63391269999556,98.93027210002765,98.93027210002765,100.04320039995946,100.04320039995946,100.04320039995946,100.04320039995946,100.04320039995946,100.04320039995946,100.04320039995946,100.04320039995946,100.04320039995946,100.04320039995946,100.04320039995946,100.04320039995946,100.04320039995946,100.04320039995946,100.04320039995946,100.04320039995946,100.04320039995946,102.5527200999204,102.5527200999204,102.5527200999204,102.5527200999204,102.5527200999204,41,31,59,72,31,59,5.0,0.9134009999688715,103.48346329992637,105.478994499892,,,,,,,158,f,25,2023-04-03_15h36.57.828,RL,2022.2.4,60.0712806068355,
1,3,0,3,0,,,,,,,,,,None,105.478994499892,105.478994499892,105.478994499892,105.478994499892,105.478994499892,105.478994499892,i,0.6048179001081735,106.11255339998752,106.11255339998752,106.11255339998752,106.11255339998752,106.11255339998752,106.11255339998752,106.40958509990014,106.40958509990014,107.50657660001889,107.50657660001889,107.50657660001889,107.50657660001889,107.50657660001889,107.50657660001889,107.50657660001889,107.50657660001889,107.50657660001889,107.50657660001889,107.50657660001889,107.50657660001889,107.50657660001889,107.50657660001889,107.50657660001889,107.50657660001889,107.50657660001889,110.01545930001885,110.01545930001885,110.01545930001885,110.01545930001885,110.01545930001885,47,30,63,63,63,75,5.0,1.0623413000721484,111.09602200007066,112.70894900010899,,,,,,,158,f,25,2023-04-03_15h36.57.828,RL,2022.2.4,60.0712806068355,
1,4,0,4,0,,,,,,,,,,None,112.70894900010899,112.70894900010899,112.70894900010899,112.70894900010899,112.70894900010899,112.70894900010899,j,0.7074833998922259,113.4432616000995,113.4432616000995,113.4432616000995,113.4432616000995,113.4432616000995,113.4432616000995,113.73991189990193,113.73991189990193,114.9862945000641,114.9862945000641,115.00266229989938,115.00266229989938,115.00266229989938,115.00266229989938,115.00266229989938,115.00266229989938,115.00266229989938,115.00266229989938,115.00266229989938,115.00266229989938,115.00266229989938,115.00266229989938,115.00266229989938,115.00266229989938,115.00266229989938,117.51194210001267,117.51194210001267,117.51194210001267,117.51194210001267,117.51194210001267,51,26,63,69,69,72,5.0,0.8963192999362946,118.42580559989437,120.18821660010144,,,,,,,158,f,25,2023-04-03_15h36.57.828,RL,2022.2.4,60.0712806068355,
1,5,0,5,0,,,,,,,,,,None,120.18821660010144,120.18821660010144,120.18821660010144,120.18821660010144,120.18821660010144,120.18821660010144,r,0.4310122998431325,120.6406572998967,120.6406572998967,120.6406572998967,120.6406572998967,120.6406572998967,120.6406572998967,120.93655170011334,120.93655170011334,122.44952629995532,122.44952629995532,122.44952629995532,122.44952629995532,122.44952629995532,122.44952629995532,122.44952629995532,122.44952629995532,122.44952629995532,122.44952629995532,122.44952629995532,122.44952629995532,122.44952629995532,122.44952629995532,122.44952629995532,122.44952629995532,122.44952629995532,124.95811929996125,124.95811929996125,124.95811929996125,124.95811929996125,124.95811929996125,43,32,62,76,43,43,5.0,1.5122108000796288,126.4875145999249,128.1334786999505,,,,,,,158,f,25,2023-04-03_15h36.57.828,RL,2022.2.4,60.0712806068355,
1,6,0,6,0,,,,,,,,,,None,128.1334786999505,128.1334786999505,128.1334786999505,128.1334786999505,128.1334786999505,128.1334786999505,j,0.5738494999241084,128.73465720005333,128.73465720005333,128.73465720005333,128.73465720005333,128.73465720005333,128.73465720005333,129.0314015999902,129.0314015999902,130.9927870000247,130.9927870000247,130.9927870000247,130.9927870000247,130.9927870000247,130.9927870000247,130.9927870000247,130.9927870000247,130.9927870000247,130.9927870000247,130.9927870000247,130.9927870000247,130.9927870000247,130.9927870000247,130.9927870000247,130.9927870000247,130.9927870000247,133.5020777999889,133.5020777999889,133.5020777999889,133.5020777999889,133.5020777999889,37,28,62,72,72,73,5.0,0.8797064002137631,134.3990674999077,135.9291362001095,,,,,,,158,f,25,2023-04-03_15h36.57.828,RL,2022.2.4,60.0712806068355,
1,7,0,7,0,,,,,,,,,,None,135.9291362001095,135.9291362001095,135.9291362001095,135.9291362001095,135.9291362001095,135.9291362001095,f,0.811249999795109,136.76069150003605,136.76069150003605,136.76069150003605,136.76069150003605,136.76069150003605,136.76069150003605,137.05930510000326,137.05930510000326,139.03735439991578,139.03735439991578,139.03735439991578,139.03735439991578,139.03735439991578,139.03735439991578,139.03735439991578,139.03735439991578,139.03735439991578,139.03735439991578,139.03735439991578,139.03735439991578,139.03735439991578,139.03735439991578,139.03735439991578,139.03735439991578,139.03735439991578,141.54626420000568,141.54626420000568,141.54626420000568,141.54626420000568,141.54626420000568,44,33,50,78,33,67,4.0,0.7478243999648839,142.31092830002308,144.25623110006563,,,,,,,158,f,25,2023-04-03_15h36.57.828,RL,2022.2.4,60.0712806068355,
1,8,0,8,0,,,,,,,,,,None,144.25623110006563,144.25623110006563,144.25623110006563,144.25623110006563,144.25623110006563,144.25623110006563,r,0.634796799859032,144.92454080004245,144.92454080004245,144.92454080004245,144.92454080004245,144.92454080004245,144.92454080004245,145.22095180000179,145.22095180000179,146.66641009994783,146.66641009994783,146.66641009994783,146.66641009994783,146.66641009994783,146.66641009994783,146.66641009994783,146.66641009994783,146.66641009994783,146.66641009994783,146.66641009994783,146.66641009994783,146.66641009994783,146.66641009994783,146.66641009994783,146.66641009994783,146.66641009994783,149.17526879999787,149.17526879999787,149.17526879999787,149.17526879999787,149.17526879999787,40,33,59,82,40,64,4.0,0.8971178999636322,150.0897474999074,152.08495469996706,,,,,,,158,f,25,2023-04-03_15h36.57.828,RL,2022.2.4,60.0712806068355,
1,9,0,9,0,,,,,,,,,,None,152.08495469996706,152.08495469996706,152.08495469996706,152.08495469996706,152.08495469996706,152.08495469996706,j,0.4936458000447601,152.60248759994283,152.60248759994283,152.60248759994283,152.60248759994283,152.60248759994283,152.60248759994283,152.8997927000746,152.8997927000746,154.1959242001176,154.1959242001176,154.21239689993672,154.21239689993672,154.21239689993672,154.21239689993672,154.21239689993672,154.21239689993672,154.21239689993672,154.21239689993672,154.21239689993672,154.21239689993672,154.21239689993672,154.21239689993672,154.21239689993672,154.21239689993672,154.21239689993672,156.72173020010814,156.72173020010814,156.72173020010814,156.72173020010814,156.72173020010814,45,38,53,76,76,67,5.0,0.8629204998724163,157.6025105000008,159.56445530010387,,,,,,,158,f,25,2023-04-03_15h36.57.828,RL,2022.2.4,60.0712806068355,
1,10,0,10,0,,,,,,,,,,None,159.56445530010387,159.56445530010387,159.56445530010387,159.56445530010387,159.56445530010387,159.56445530010387,j,0.5877173999324441,160.18299639993347,160.18299639993347,160.18299639993347,160.18299639993347,160.18299639993347,160.18299639993347,160.47901750006713,160.47901750006713,162.09102650010027,162.09102650010027,162.10751050012186,162.10751050012186,162.10751050012186,162.10751050012186,162.10751050012186,162.10751050012186,162.10751050012186,162.10751050012186,162.10751050012186,162.10751050012186,162.10751050012186,162.10751050012186,162.10751050012186,162.10751050012186,162.10751050012186,164.61654269997962,164.61654269997962,164.61654269997962,164.61654269997962,164.61654269997962,43,40,51,79,79,45,5.0,0.830417999997735,165.46419059997424,167.07732179993764,,,,,,,158,f,25,2023-04-03_15h36.57.828,RL,2022.2.4,60.0712806068355,
1,11,0,11,0,,,,,,,,,,None,167.07732179993764,167.07732179993764,167.07732179993764,167.07732179993764,167.07732179993764,167.07732179993764,f,0.38700430002063513,167.49403570010327,167.49403570010327,167.49403570010327,167.49403570010327,167.49403570010327,167.49403570010327,167.79208109993488,167.79208109993488,169.65359169989824,169.65359169989824,169.65359169989824,169.65359169989824,169.65359169989824,169.65359169989824,169.65359169989824,169.65359169989824,169.65359169989824,169.65359169989824,169.65359169989824,169.65359169989824,169.65359169989824,169.65359169989824,169.65359169989824,169.65359169989824,169.65359169989824,172.1626645999495,172.1626645999495,172.1626645999495,172.1626645999495,172.1626645999495,52,31,55,70,31,58,4.0,0.8300799001008272,173.0104575001169,174.8894472999964,,,,,,,158,f,25,2023-04-03_15h36.57.828,RL,2022.2.4,60.0712806068355,
1,12,0,12,0,,,,,,,,,,None,174.8894472999964,174.8894472999964,174.8894472999964,174.8894472999964,174.8894472999964,174.8894472999964,j,0.7636033000890166,175.67163940006867,175.67163940006867,175.67163940006867,175.67163940006867,175.67163940006867,175.67163940006867,175.96984790009446,175.96984790009446,177.74849619995803,177.74849619995803,177.74849619995803,177.74849619995803,177.74849619995803,177.74849619995803,177.74849619995803,177.74849619995803,177.74849619995803,177.74849619995803,177.74849619995803,177.74849619995803,177.74849619995803,177.74849619995803,177.74849619995803,177.74849619995803,177.74849619995803,180.25707860011607,180.25707860011607,180.25707860011607,180.25707860011607,180.25707860011607,47,47,48,87,87,50,6.0,0.8137213001027703,181.08843020000495,183.08316170005128,,,,,,,158,f,25,2023-04-03_15h36.57.828,RL,2022.2.4,60.0712806068355,
1,13,0,13,0,,,,,,,,,,None,183.08316170005128,183.08316170005128,183.08316170005128,183.08316170005128,183.08316170005128,183.08316170005128,j,0.7368063000030816,183.8507491000928,183.8507491000928,183.8507491000928,183.8507491000928,183.8507491000928,183.8507491000928,184.1475070999004,184.1475070999004,185.0782536000479,185.0782536000479,185.0782536000479,185.0782536000479,185.0782536000479,185.0782536000479,185.0782536000479,185.0782536000479,185.0782536000479,185.0782536000479,185.0782536000479,185.0782536000479,185.0782536000479,185.0782536000479,185.0782536000479,185.0782536000479,185.0782536000479,187.5873116001021,187.5873116001021,187.5873116001021,187.5873116001021,187.5873116001021,39,36,55,80,80,33,6.0,0.8634506000671536,188.46846430003643,190.031164099928,,,,,,,158,f,25,2023-04-03_15h36.57.828,RL,2022.2.4,60.0712806068355,
1,14,0,14,0,,,,,,,,,,None,190.031164099928,190.031164099928,190.031164099928,190.031164099928,190.031164099928,190.031164099928,i,1.3353631000500172,191.39660419989377,191.39660419989377,191.39660419989377,191.39660419989377,191.39660419989377,191.39660419989377,191.69377989997156,191.69377989997156,192.65787989995442,192.65787989995442,192.65787989995442,192.65787989995442,192.65787989995442,192.65787989995442,192.65787989995442,192.65787989995442,192.65787989995442,192.65787989995442,192.65787989995442,192.65787989995442,192.65787989995442,192.65787989995442,192.65787989995442,192.65787989995442,192.65787989995442,195.16676330007613,195.16676330007613,195.16676330007613,195.16676330007613,195.16676330007613,37,43,56,85,56,68,5.0,1.8445688001811504,197.02839080011472,198.55811339989305,,,,,,,158,f,25,2023-04-03_15h36.57.828,RL,2022.2.4,60.0712806068355,
1,15,0,15,0,,,,,,,,,,None,198.55811339989305,198.55811339989305,198.55811339989305,198.55811339989305,198.55811339989305,198.55811339989305,f,1.1512897000648081,199.74162949994206,199.74162949994206,199.74162949994206,199.74162949994206,199.74162949994206,199.74162949994206,200.03730230010115,200.03730230010115,201.2507688999176,201.2507688999176,201.26743500004523,201.26743500004523,201.26743500004523,201.26743500004523,201.26743500004523,201.26743500004523,201.26743500004523,201.26743500004523,201.26743500004523,201.26743500004523,201.26743500004523,201.26743500004523,201.26743500004523,201.26743500004523,201.26743500004523,203.77637189999223,203.77637189999223,203.77637189999223,203.77637189999223,203.77637189999223,36,37,48,73,37,51,4.0,0.5974018000997603,204.39150999998674,206.40341820009053,,,,,,,158,f,25,2023-04-03_15h36.57.828,RL,2022.2.4,60.0712806068355,
1,16,0,16,0,,,,,,,,,,None,206.40341820009053,206.40341820009053,206.40341820009053,206.40341820009053,206.40341820009053,206.40341820009053,i,0.3140680999495089,206.7396488999948,206.7396488999948,206.7396488999948,206.7396488999948,206.7396488999948,206.7396488999948,207.03492800006643,207.03492800006643,208.31496089999564,208.31496089999564,208.31496089999564,208.31496089999564,208.31496089999564,208.31496089999564,208.31496089999564,208.31496089999564,208.31496089999564,208.31496089999564,208.31496089999564,208.31496089999564,208.31496089999564,208.31496089999564,208.31496089999564,208.31496089999564,208.31496089999564,210.8236744001042,210.8236744001042,210.8236744001042,210.8236744001042,210.8236744001042,36,41,54,61,54,43,5.0,0.9628576999530196,211.80487850005738,213.4176984000951,,,,,,,158,f,25,2023-04-03_15h36.57.828,RL,2022.2.4,60.0712806068355,
1,17,0,17,0,,,,,,,,,,None,213.4176984000951,213.4176984000951,213.4176984000951,213.4176984000951,213.4176984000951,213.4176984000951,f,0.53674910007976,213.9842801000923,213.9842801000923,213.9842801000923,213.9842801000923,213.9842801000923,213.9842801000923,214.28220409993082,214.28220409993082,215.4782239999622,215.4782239999622,215.4782239999622,215.4782239999622,215.4782239999622,215.4782239999622,215.4782239999622,215.4782239999622,215.4782239999622,215.4782239999622,215.4782239999622,215.4782239999622,215.4782239999622,215.4782239999622,215.4782239999622,215.4782239999622,215.4782239999622,217.9877695001196,217.9877695001196,217.9877695001196,217.9877695001196,217.9877695001196,43,43,46,63,43,41,4.0,0.8460158000234514,218.85191909992136,220.6479563000612,,,,,,,158,f,25,2023-04-03_15h36.57.828,RL,2022.2.4,60.0712806068355,
1,18,0,18,0,,,,,,,,,,None,220.6479563000612,220.6479563000612,220.6479563000612,220.6479563000612,220.6479563000612,220.6479563000612,r,1.0356638000812382,221.71333759999834,221.71333759999834,221.71333759999834,221.71333759999834,221.71333759999834,221.71333759999834,222.01075590006076,222.01075590006076,222.94198810006492,222.94198810006492,222.94198810006492,222.94198810006492,222.94198810006492,222.94198810006492,222.94198810006492,222.94198810006492,222.94198810006492,222.94198810006492,222.94198810006492,222.94198810006492,222.94198810006492,222.94198810006492,222.94198810006492,222.94198810006492,222.94198810006492,225.45060080010444,225.45060080010444,225.45060080010444,225.45060080010444,225.45060080010444,34,42,40,77,34,68,4.0,1.5449504998978227,227.01303380005993,228.64276560000144,,,,,,,158,f,25,2023-04-03_15h36.57.828,RL,2022.2.4,60.0712806068355,
1,19,0,19,0,,,,,,,,,,None,228.64276560000144,228.64276560000144,228.64276560000144,228.64276560000144,228.64276560000144,228.64276560000144,i,1.1768483000341803,229.8415920000989,229.8415920000989,229.8415920000989,229.8415920000989,229.8415920000989,229.8415920000989,230.13882309990004,230.13882309990004,231.2855539000593,231.2855539000593,231.30187799991108,231.30187799991108,231.30187799991108,231.30187799991108,231.30187799991108,231.30187799991108,231.30187799991108,231.30187799991108,231.30187799991108,231.30187799991108,231.30187799991108,231.30187799991108,231.30187799991108,231.30187799991108,231.30187799991108,233.8108922999818,233.8108922999818,233.8108922999818,233.8108922999818,233.8108922999818,37,41,51,69,51,63,4.0,0.6634785998612642,234.49276569997892,236.45438160002232,,,,,,,158,f,25,2023-04-03_15h36.57.828,RL,2022.2.4,60.0712806068355,
1,20,0,20,0,,,,,,,,,,None,236.45438160002232,236.45438160002232,236.45438160002232,236.45438160002232,236.45438160002232,236.45438160002232,f,0.4322506000753492,236.9061747000087,236.9061747000087,236.9061747000087,236.9061747000087,236.9061747000087,236.9061747000087,237.2030259000603,237.2030259000603,238.79852660000324,238.79852660000324,238.79852660000324,238.79852660000324,238.79852660000324,238.79852660000324,238.79852660000324,238.79852660000324,238.79852660000324,238.79852660000324,238.79852660000324,238.79852660000324,238.79852660000324,238.79852660000324,238.79852660000324,238.79852660000324,238.79852660000324,241.3076758000534,241.3076758000534,241.3076758000534,241.3076758000534,241.3076758000534,43,43,59,65,43,42,4.0,0.6309193000197411,241.9552891999483,243.70157980010845,,,,,,,158,f,25,2023-04-03_15h36.57.828,RL,2022.2.4,60.0712806068355,
1,21,0,21,0,,,,,,,,,,None,243.70157980010845,243.70157980010845,243.70157980010845,243.70157980010845,243.70157980010845,243.70157980010845,r,0.8885671000462025,244.61808960000053,244.61808960000053,244.61808960000053,244.61808960000053,244.61808960000053,244.61808960000053,244.91502989991568,244.91502989991568,246.51045399997383,246.51045399997383,246.51045399997383,246.51045399997383,246.51045399997383,246.51045399997383,246.51045399997383,246.51045399997383,246.51045399997383,246.51045399997383,246.51045399997383,246.51045399997383,246.51045399997383,246.51045399997383,246.51045399997383,246.51045399997383,246.51045399997383,249.01942789996974,249.01942789996974,249.01942789996974,249.01942789996974,249.01942789996974,38,42,53,70,38,39,4.0,0.8304568999446929,249.8675790000707,251.7962207000237,,,,,,,158,f,25,2023-04-03_15h36.57.828,RL,2022.2.4,60.0712806068355,
1,22,0,22,0,,,,,,,,,,None,251.7962207000237,251.7962207000237,251.7962207000237,251.7962207000237,251.7962207000237,251.7962207000237,j,0.8906650000717491,252.71183770010248,252.71183770010248,252.71183770010248,252.71183770010248,252.71183770010248,252.71183770010248,253.00942740007304,253.00942740007304,254.33935080002993,254.33935080002993,254.33935080002993,254.33935080002993,254.33935080002993,254.33935080002993,254.33935080002993,254.33935080002993,254.33935080002993,254.33935080002993,254.33935080002993,254.33935080002993,254.33935080002993,254.33935080002993,254.33935080002993,254.33935080002993,254.33935080002993,256.8482377000619,256.8482377000619,256.8482377000619,256.8482377000619,256.8482377000619,39,35,65,73,73,32,5.0,0.9627916999161243,257.8291194001213,259.67468519997783,,,,,,,158,f,25,2023-04-03_15h36.57.828,RL,2022.2.4,60.0712806068355,
1,23,0,23,0,,,,,,,,,,None,259.67468519997783,259.67468519997783,259.67468519997783,259.67468519997783,259.67468519997783,259.67468519997783,f,0.5050032001454383,260.2087683000136,260.2087683000136,260.2087683000136,260.2087683000136,260.2087683000136,260.2087683000136,260.505941899959,260.505941899959,261.5199319999665,261.5199319999665,261.5199319999665,261.5199319999665,261.5199319999665,261.5199319999665,261.5199319999665,261.5199319999665,261.5199319999665,261.5199319999665,261.5199319999665,261.5199319999665,261.5199319999665,261.5199319999665,261.5199319999665,261.5199319999665,261.5199319999665,264.0287593998946,264.0287593998946,264.0287593998946,264.0287593998946,264.0287593998946,41,44,60,75,44,56,4.0,0.6802030999679118,264.72652529994957,266.6721977998968,,,,,,,158,f,25,2023-04-03_15h36.57.828,RL,2022.2.4,60.0712806068355,
1,24,0,24,0,,,,,,,,,,None,266.6721977998968,266.6721977998968,266.6721977998968,266.6721977998968,266.6721977998968,266.6721977998968,j,0.814615200040862,267.5065542999655,267.5065542999655,267.5065542999655,267.5065542999655,267.5065542999655,267.5065542999655,267.8026519000996,267.8026519000996,269.331799400039,269.331799400039,269.34824399999343,269.34824399999343,269.34824399999343,269.34824399999343,269.34824399999343,269.34824399999343,269.34824399999343,269.34824399999343,269.34824399999343,269.34824399999343,269.34824399999343,269.34824399999343,269.34824399999343,269.34824399999343,269.34824399999343,271.8573177999351,271.8573177999351,271.8573177999351,271.8573177999351,271.8573177999351,40,44,58,71,71,60,5.0,0.9801024999469519,272.8546291999519,274.84963200008497,,,,,,,158,f,25,2023-04-03_15h36.57.828,RL,2022.2.4,60.0712806068355,
1,25,0,25,0,,,,,,,,,,None,274.84963200008497,274.84963200008497,274.84963200008497,274.84963200008497,274.84963200008497,274.84963200008497,r,0.7106234999373555,275.58476460003294,275.58476460003294,275.58476460003294,275.58476460003294,275.58476460003294,275.58476460003294,275.880395000102,275.880395000102,276.99432309996337,276.99432309996337,276.99432309996337,276.99432309996337,276.99432309996337,276.99432309996337,276.99432309996337,276.99432309996337,276.99432309996337,276.99432309996337,276.99432309996337,276.99432309996337,276.99432309996337,276.99432309996337,276.99432309996337,276.99432309996337,276.99432309996337,279.5032057999633,279.5032057999633,279.5032057999633,279.5032057999633,279.5032057999633,41,48,74,80,41,57,4.0,0.797418899834156,280.3175786000211,281.963803099934,,,,,,,158,f,25,2023-04-03_15h36.57.828,RL,2022.2.4,60.0712806068355,
1,26,0,26,0,,,,,,,,,,None,281.963803099934,281.963803099934,281.963803099934,281.963803099934,281.963803099934,281.963803099934,i,0.48837979999370873,282.48241170006804,282.48241170006804,282.48241170006804,282.48241170006804,282.48241170006804,282.48241170006804,282.7782370999921,282.7782370999921,284.0250262999907,284.0250262999907,284.0250262999907,284.0250262999907,284.0250262999907,284.0250262999907,284.0250262999907,284.0250262999907,284.0250262999907,284.0250262999907,284.0250262999907,284.0250262999907,284.0250262999907,284.0250262999907,284.0250262999907,284.0250262999907,284.0250262999907,286.53406170010567,286.53406170010567,286.53406170010567,286.53406170010567,286.53406170010567,46,55,65,79,65,50,5.0,1.0795374000445008,287.6307727000676,289.3603463000618,,,,,,,158,f,25,2023-04-03_15h36.57.828,RL,2022.2.4,60.0712806068355,
1,27,0,27,0,,,,,,,,,,None,289.3603463000618,289.3603463000618,289.3603463000618,289.3603463000618,289.3603463000618,289.3603463000618,j,0.4700635999906808,289.86191740003414,289.86191740003414,289.86191740003414,289.86191740003414,289.86191740003414,289.86191740003414,290.15804899996147,290.15804899996147,291.00600049993955,291.00600049993955,291.00600049993955,291.00600049993955,291.00600049993955,291.00600049993955,291.00600049993955,291.00600049993955,291.00600049993955,291.00600049993955,291.00600049993955,291.00600049993955,291.00600049993955,291.00600049993955,291.00600049993955,291.00600049993955,291.00600049993955,293.51513250009157,293.51513250009157,293.51513250009157,293.51513250009157,293.51513250009157,52,49,59,77,77,65,5.0,1.079781400039792,294.611753199948,296.30788489989936,,,,,,,158,f,25,2023-04-03_15h36.57.828,RL,2022.2.4,60.0712806068355,
1,28,0,28,0,,,,,,,,,,None,296.30788489989936,296.30788489989936,296.30788489989936,296.30788489989936,296.30788489989936,296.30788489989936,i,0.4200691001024097,296.7588714999147,296.7588714999147,296.7588714999147,296.7588714999147,296.7588714999147,296.7588714999147,297.0560469001066,297.0560469001066,298.2861401999835,298.2861401999835,298.2861401999835,298.2861401999835,298.2861401999835,298.2861401999835,298.2861401999835,298.2861401999835,298.2861401999835,298.2861401999835,298.2861401999835,298.2861401999835,298.2861401999835,298.2861401999835,298.2861401999835,298.2861401999835,298.2861401999835,300.7950585000217,300.7950585000217,300.7950585000217,300.7950585000217,300.7950585000217,51,46,65,77,65,60,5.0,1.0291357000824064,301.842356499983,303.52189709991217,,,,,,,158,f,25,2023-04-03_15h36.57.828,RL,2022.2.4,60.0712806068355,
1,29,0,29,0,,,,,,,,,,None,303.52189709991217,303.52189709991217,303.52189709991217,303.52189709991217,303.52189709991217,303.52189709991217,j,0.6086146000307053,304.1542742000893,304.1542742000893,304.1542742000893,304.1542742000893,304.1542742000893,304.1542742000893,304.4526386000216,304.4526386000216,305.4499202000443,305.4499202000443,305.4499202000443,305.4499202000443,305.4499202000443,305.4499202000443,305.4499202000443,305.4499202000443,305.4499202000443,305.4499202000443,305.4499202000443,305.4499202000443,305.4499202000443,305.4499202000443,305.4499202000443,305.4499202000443,305.4499202000443,307.9587958001066,307.9587958001066,307.9587958001066,307.9587958001066,307.9587958001066,50,49,70,67,67,62,5.0,1.2623356999829412,309.23856860003434,311.01785230007954,,,,,,,158,f,25,2023-04-03_15h36.57.828,RL,2022.2.4,60.0712806068355,
1,30,0,30,0,,,,,,,,,,None,311.01785230007954,311.01785230007954,311.01785230007954,311.01785230007954,311.01785230007954,311.01785230007954,i,0.4160715998150408,311.4672769000754,311.4672769000754,311.4672769000754,311.4672769000754,311.4672769000754,311.4672769000754,311.766058600042,311.766058600042,313.66082439990714,313.66082439990714,313.66082439990714,313.66082439990714,313.66082439990714,313.66082439990714,313.66082439990714,313.66082439990714,313.66082439990714,313.66082439990714,313.66082439990714,313.66082439990714,313.66082439990714,313.66082439990714,313.66082439990714,313.66082439990714,313.66082439990714,316.1699771999847,316.1699771999847,316.1699771999847,316.1699771999847,316.1699771999847,59,52,61,81,61,56,5.0,0.8460540000814945,317.03386300010607,318.7961504000705,,,,,,,158,f,25,2023-04-03_15h36.57.828,RL,2022.2.4,60.0712806068355,
1,31,0,31,0,,,,,,,,,,None,318.7961504000705,318.7961504000705,318.7961504000705,318.7961504000705,318.7961504000705,318.7961504000705,j,1.1685645999386907,319.99695229995996,319.99695229995996,319.99695229995996,319.99695229995996,319.99695229995996,319.99695229995996,320.29273910005577,320.29273910005577,321.8383673001081,321.8383673001081,321.8383673001081,321.8383673001081,321.8383673001081,321.8383673001081,321.8383673001081,321.8383673001081,321.8383673001081,321.8383673001081,321.8383673001081,321.8383673001081,321.8383673001081,321.8383673001081,321.8383673001081,321.8383673001081,321.8383673001081,324.3475701001007,324.3475701001007,324.3475701001007,324.3475701001007,324.3475701001007,41,49,66,79,79,63,5.0,1.2461794998962432,325.61094300006516,327.55577969993465,,,,,,,158,f,25,2023-04-03_15h36.57.828,RL,2022.2.4,60.0712806068355,
1,32,0,32,0,,,,,,,,,,None,327.55577969993465,327.55577969993465,327.55577969993465,327.55577969993465,327.55577969993465,327.55577969993465,j,0.6005953999701887,328.1879461000208,328.1879461000208,328.1879461000208,328.1879461000208,328.1879461000208,328.1879461000208,328.48713749996386,328.48713749996386,329.41794449998997,329.41794449998997,329.41794449998997,329.41794449998997,329.41794449998997,329.41794449998997,329.41794449998997,329.41794449998997,329.41794449998997,329.41794449998997,329.41794449998997,329.41794449998997,329.41794449998997,329.41794449998997,329.41794449998997,329.41794449998997,329.41794449998997,331.92661500000395,331.92661500000395,331.92661500000395,331.92661500000395,331.92661500000395,52,45,71,82,82,67,5.0,0.9803228001110256,332.9242984999437,334.4534611001145,,,,,,,158,f,25,2023-04-03_15h36.57.828,RL,2022.2.4,60.0712806068355,
1,33,0,33,0,,,,,,,,,,None,334.4534611001145,334.4534611001145,334.4534611001145,334.4534611001145,334.4534611001145,334.4534611001145,i,0.36118209990672767,334.839782099938,334.839782099938,334.839782099938,334.839782099938,334.839782099938,334.839782099938,335.1353843000252,335.1353843000252,336.28241280000657,336.28241280000657,336.28241280000657,336.28241280000657,336.28241280000657,336.28241280000657,336.28241280000657,336.28241280000657,336.28241280000657,336.28241280000657,336.28241280000657,336.28241280000657,336.28241280000657,336.28241280000657,336.28241280000657,336.28241280000657,336.28241280000657,338.7912254000548,338.7912254000548,338.7912254000548,338.7912254000548,338.7912254000548,46,40,62,86,62,60,5.0,1.079375100089237,339.8883219999261,341.8004689000081,,,,,,,158,f,25,2023-04-03_15h36.57.828,RL,2022.2.4,60.0712806068355,
1,34,0,34,0,,,,,,,,,,None,341.8004689000081,341.8004689000081,341.8004689000081,341.8004689000081,341.8004689000081,341.8004689000081,j,0.49182419991120696,342.31820120010525,342.31820120010525,342.31820120010525,342.31820120010525,342.31820120010525,342.31820120010525,342.6150869000703,342.6150869000703,344.592843899969,344.592843899969,344.592843899969,344.592843899969,344.592843899969,344.592843899969,344.592843899969,344.592843899969,344.592843899969,344.592843899969,344.592843899969,344.592843899969,344.592843899969,344.592843899969,344.592843899969,344.592843899969,344.592843899969,347.10198000003584,347.10198000003584,347.10198000003584,347.10198000003584,347.10198000003584,49,40,64,77,77,54,5.0,0.9297934002242982,348.0496859000996,349.8946797000244,,,,,,,158,f,25,2023-04-03_15h36.57.828,RL,2022.2.4,60.0712806068355,
1,35,0,35,0,,,,,,,,,,None,349.8946797000244,349.8946797000244,349.8946797000244,349.8946797000244,349.8946797000244,349.8946797000244,r,0.3944504999089986,350.31187020009384,350.31187020009384,350.31187020009384,350.31187020009384,350.31187020009384,350.31187020009384,350.6098108999431,350.6098108999431,352.27190990000963,352.27190990000963,352.2884529000148,352.2884529000148,352.2884529000148,352.2884529000148,352.2884529000148,352.2884529000148,352.2884529000148,352.2884529000148,352.2884529000148,352.2884529000148,352.2884529000148,352.2884529000148,352.2884529000148,352.2884529000148,352.2884529000148,354.79790750006214,354.79790750006214,354.79790750006214,354.79790750006214,354.79790750006214,56,53,58,79,56,59,5.0,0.8129745000042021,355.6285071000457,357.37470240006223,,,,,,,158,f,25,2023-04-03_15h36.57.828,RL,2022.2.4,60.0712806068355,
1,36,0,36,0,,,,,,,,,,None,357.37470240006223,357.37470240006223,357.37470240006223,357.37470240006223,357.37470240006223,357.37470240006223,f,0.39695650013163686,357.79229329992086,357.79229329992086,357.79229329992086,357.79229329992086,357.79229329992086,357.79229329992086,358.0895082000643,358.0895082000643,359.20334549993277,359.20334549993277,359.20334549993277,359.20334549993277,359.20334549993277,359.20334549993277,359.20334549993277,359.20334549993277,359.20334549993277,359.20334549993277,359.20334549993277,359.20334549993277,359.20334549993277,359.20334549993277,359.20334549993277,359.20334549993277,359.20334549993277,361.71219020010903,361.71219020010903,361.71219020010903,361.71219020010903,361.71219020010903,48,47,58,71,47,54,5.0,1.0295542001258582,362.7597060999833,364.2889580000192,,,,,,,158,f,25,2023-04-03_15h36.57.828,RL,2022.2.4,60.0712806068355,
1,37,0,37,0,,,,,,,,,,None,364.2889580000192,364.2889580000192,364.2889580000192,364.2889580000192,364.2889580000192,364.2889580000192,i,0.3001745000947267,364.62240609992296,364.62240609992296,364.62240609992296,364.62240609992296,364.62240609992296,364.62240609992296,364.92107959999703,364.92107959999703,366.13400930003263,366.13400930003263,366.13400930003263,366.13400930003263,366.13400930003263,366.13400930003263,366.13400930003263,366.13400930003263,366.13400930003263,366.13400930003263,366.13400930003263,366.13400930003263,366.13400930003263,366.13400930003263,366.13400930003263,366.13400930003263,366.13400930003263,368.6429930999875,368.6429930999875,368.6429930999875,368.6429930999875,368.6429930999875,38,61,65,77,65,49,5.0,1.0469589999411255,369.7072175000794,371.4530005999841,,,,,,,158,f,25,2023-04-03_15h36.57.828,RL,2022.2.4,60.0712806068355,
1,38,0,38,0,,,,,,,,,,None,371.4530005999841,371.4530005999841,371.4530005999841,371.4530005999841,371.4530005999841,371.4530005999841,j,0.39847170002758503,371.87164729996584,371.87164729996584,371.87164729996584,371.87164729996584,371.87164729996584,371.87164729996584,372.1679374000523,372.1679374000523,373.9125866999384,373.9125866999384,373.9125866999384,373.9125866999384,373.9125866999384,373.9125866999384,373.9125866999384,373.9125866999384,373.9125866999384,373.9125866999384,373.9125866999384,373.9125866999384,373.9125866999384,373.9125866999384,373.9125866999384,373.9125866999384,373.9125866999384,376.4217821001075,376.4217821001075,376.4217821001075,376.4217821001075,376.4217821001075,41,59,57,71,71,43,5.0,1.1287299001123756,377.56889820005745,379.49746210011654,,,,,,,158,f,25,2023-04-03_15h36.57.828,RL,2022.2.4,60.0712806068355,
1,39,0,39,0,,,,,,,,,,None,379.49746210011654,379.49746210011654,379.49746210011654,379.49746210011654,379.49746210011654,379.49746210011654,j,0.28570819995366037,379.8158344998956,379.8158344998956,379.8158344998956,379.8158344998956,379.8158344998956,379.8158344998956,380.11294710007496,380.11294710007496,381.29236009996384,381.29236009996384,381.29236009996384,381.29236009996384,381.29236009996384,381.29236009996384,381.29236009996384,381.29236009996384,381.29236009996384,381.29236009996384,381.29236009996384,381.29236009996384,381.29236009996384,381.29236009996384,381.29236009996384,381.29236009996384,381.29236009996384,383.80200830008835,383.80200830008835,383.80200830008835,383.80200830008835,383.80200830008835,38,54,56,72,72,65,5.0,0.9803597999271005,384.7989392001182,386.3619234999642,,,,,,,158,f,25,2023-04-03_15h36.57.828,RL,2022.2.4,60.0712806068355,
1,40,0,40,0,,,,,,,,,,None,386.3619234999642,386.3619234999642,386.3619234999642,386.3619234999642,386.3619234999642,386.3619234999642,j,0.43988610012456775,386.82893129996955,386.82893129996955,386.82893129996955,386.82893129996955,386.82893129996955,386.82893129996955,387.12667250004597,387.12667250004597,388.02477909997106,388.02477909997106,388.02477909997106,388.02477909997106,388.02477909997106,388.02477909997106,388.02477909997106,388.02477909997106,388.02477909997106,388.02477909997106,388.02477909997106,388.02477909997106,388.02477909997106,388.02477909997106,388.02477909997106,388.02477909997106,388.02477909997106,390.53346999990754,390.53346999990754,390.53346999990754,390.53346999990754,390.53346999990754,45,54,63,67,67,44,5.0,1.0793142998591065,391.63014069991186,393.1439503999427,,,,,,,158,f,25,2023-04-03_15h36.57.828,RL,2022.2.4,60.0712806068355,
1,41,0,41,0,,,,,,,,,,None,393.1439503999427,393.1439503999427,393.1439503999427,393.1439503999427,393.1439503999427,393.1439503999427,j,0.3564983999822289,393.52672430011444,393.52672430011444,393.52672430011444,393.52672430011444,393.52672430011444,393.52672430011444,393.8254539000336,393.8254539000336,395.1549011999741,395.1549011999741,395.1549011999741,395.1549011999741,395.1549011999741,395.1549011999741,395.1549011999741,395.1549011999741,395.1549011999741,395.1549011999741,395.1549011999741,395.1549011999741,395.1549011999741,395.1549011999741,395.1549011999741,395.1549011999741,395.1549011999741,397.6642567999661,397.6642567999661,397.6642567999661,397.6642567999661,397.6642567999661,40,43,61,71,71,66,5.0,0.9792895000427961,398.6612720999401,400.5068828999065,,,,,,,158,f,25,2023-04-03_15h36.57.828,RL,2022.2.4,60.0712806068355,
1,42,0,42,0,,,,,,,,,,None,400.5068828999065,400.5068828999065,400.5068828999065,400.5068828999065,400.5068828999065,400.5068828999065,j,0.5345199999865144,401.0742067999672,401.0742067999672,401.0742067999672,401.0742067999672,401.0742067999672,401.0742067999672,401.37176140001975,401.37176140001975,402.30233109998517,402.30233109998517,402.30233109998517,402.30233109998517,402.30233109998517,402.30233109998517,402.30233109998517,402.30233109998517,402.30233109998517,402.30233109998517,402.30233109998517,402.30233109998517,402.30233109998517,402.30233109998517,402.30233109998517,402.30233109998517,402.30233109998517,404.81076089991257,404.81076089991257,404.81076089991257,404.81076089991257,404.81076089991257,34,51,58,77,77,44,6.0,0.896865600021556,405.7255857998971,407.5378272999078,,,,,,,158,f,25,2023-04-03_15h36.57.828,RL,2022.2.4,60.0712806068355,
1,43,0,43,0,,,,,,,,,,None,407.5378272999078,407.5378272999078,407.5378272999078,407.5378272999078,407.5378272999078,407.5378272999078,j,0.7059597000479698,408.2718239000533,408.2718239000533,408.2718239000533,408.2718239000533,408.2718239000533,408.2718239000533,408.56822680006735,408.56822680006735,410.36315930006094,410.36315930006094,410.36315930006094,410.36315930006094,410.36315930006094,410.36315930006094,410.36315930006094,410.36315930006094,410.36315930006094,410.36315930006094,410.36315930006094,410.36315930006094,410.36315930006094,410.36315930006094,410.36315930006094,410.36315930006094,410.36315930006094,412.8725032999646,412.8725032999646,412.8725032999646,412.8725032999646,412.8725032999646,45,56,56,62,62,56,5.0,0.7800066000781953,413.67033160012215,415.3498573000543,,,,,,,158,f,25,2023-04-03_15h36.57.828,RL,2022.2.4,60.0712806068355,
1,44,0,44,0,,,,,,,,,,None,415.3498573000543,415.3498573000543,415.3498573000543,415.3498573000543,415.3498573000543,415.3498573000543,j,0.35662490013055503,415.7339985000435,415.7339985000435,415.7339985000435,415.7339985000435,415.7339985000435,415.7339985000435,416.03164010006003,416.03164010006003,417.7270283999387,417.7270283999387,417.7270283999387,417.7270283999387,417.7270283999387,417.7270283999387,417.7270283999387,417.7270283999387,417.7270283999387,417.7270283999387,417.7270283999387,417.7270283999387,417.7270283999387,417.7270283999387,417.7270283999387,417.7270283999387,417.7270283999387,420.23594460007735,420.23594460007735,420.23594460007735,420.23594460007735,420.23594460007735,37,51,64,69,69,53,6.0,2.342046699952334,422.59580569993705,424.39179169991985,,,,,,,158,f,25,2023-04-03_15h36.57.828,RL,2022.2.4,60.0712806068355,
1,45,0,45,0,,,,,,,,,,None,424.39179169991985,424.39179169991985,424.39179169991985,424.39179169991985,424.39179169991985,424.39179169991985,j,0.36029430013149977,424.7768679000437,424.7768679000437,424.7768679000437,424.7768679000437,424.7768679000437,424.7768679000437,425.07354720006697,425.07354720006697,426.1530404998921,426.1530404998921,426.1700488999486,426.1700488999486,426.1700488999486,426.1700488999486,426.1700488999486,426.1700488999486,426.1700488999486,426.1700488999486,426.1700488999486,426.1700488999486,426.1700488999486,426.1700488999486,426.1700488999486,426.1700488999486,426.1700488999486,428.679460400017,428.679460400017,428.679460400017,428.679460400017,428.679460400017,40,45,57,68,68,60,5.0,0.6304605999030173,429.32727209990844,431.3228358000051,,,,,,,158,f,25,2023-04-03_15h36.57.828,RL,2022.2.4,60.0712806068355,
1,46,0,46,0,,,,,,,,,,None,431.3228358000051,431.3228358000051,431.3228358000051,431.3228358000051,431.3228358000051,431.3228358000051,j,0.33688529999926686,431.69147450011224,431.69147450011224,431.69147450011224,431.69147450011224,431.69147450011224,431.69147450011224,431.98814629996195,431.98814629996195,433.53383870003745,433.53383870003745,433.5502166999504,433.5502166999504,433.5502166999504,433.5502166999504,433.5502166999504,433.5502166999504,433.5502166999504,433.5502166999504,433.5502166999504,433.5502166999504,433.5502166999504,433.5502166999504,433.5502166999504,433.5502166999504,433.5502166999504,436.05932809994556,436.05932809994556,436.05932809994556,436.05932809994556,436.05932809994556,27,49,54,66,66,62,4.0,0.6145010001491755,436.69071660004556,438.2372296000831,,,,,,,158,f,25,2023-04-03_15h36.57.828,RL,2022.2.4,60.0712806068355,
1,47,0,47,0,,,,,,,,,,None,438.2372296000831,438.2372296000831,438.2372296000831,438.2372296000831,438.2372296000831,438.2372296000831,j,0.35554479993879795,438.6209072000347,438.6209072000347,438.6209072000347,438.6209072000347,438.6209072000347,438.6209072000347,438.9191306999419,438.9191306999419,440.3315204998944,440.3315204998944,440.3315204998944,440.3315204998944,440.3315204998944,440.3315204998944,440.3315204998944,440.3315204998944,440.3315204998944,440.3315204998944,440.3315204998944,440.3315204998944,440.3315204998944,440.3315204998944,440.3315204998944,440.3315204998944,440.3315204998944,442.8410052000545,442.8410052000545,442.8410052000545,442.8410052000545,442.8410052000545,31,54,61,63,63,50,4.0,0.7135700001381338,443.57166599994525,445.5341048000846,,,,,,,158,f,25,2023-04-03_15h36.57.828,RL,2022.2.4,60.0712806068355,
1,48,0,48,0,,,,,,,,,,None,445.5341048000846,445.5341048000846,445.5341048000846,445.5341048000846,445.5341048000846,445.5341048000846,i,0.3308070998173207,445.8863530000672,445.8863530000672,445.8863530000672,445.8863530000672,445.8863530000672,445.8863530000672,446.18270360003226,446.18270360003226,447.16276609990746,447.16276609990746,447.1793907000683,447.1793907000683,447.1793907000683,447.1793907000683,447.1793907000683,447.1793907000683,447.1793907000683,447.1793907000683,447.1793907000683,447.1793907000683,447.1793907000683,447.1793907000683,447.1793907000683,447.1793907000683,447.1793907000683,449.6889506999869,449.6889506999869,449.6889506999869,449.6889506999869,449.6889506999869,43,48,58,59,58,48,5.0,0.6298044000286609,450.33658040012233,452.0496257999912,,,,,,,158,f,25,2023-04-03_15h36.57.828,RL,2022.2.4,60.0712806068355,
1,49,0,49,0,,,,,,,,,,None,452.0496257999912,452.0496257999912,452.0496257999912,452.0496257999912,452.0496257999912,452.0496257999912,j,0.41988769988529384,452.5002810000442,452.5002810000442,452.5002810000442,452.5002810000442,452.5002810000442,452.5002810000442,452.7973982999101,452.7973982999101,454.3437914000824,454.3437914000824,454.3437914000824,454.3437914000824,454.3437914000824,454.3437914000824,454.3437914000824,454.3437914000824,454.3437914000824,454.3437914000824,454.3437914000824,454.3437914000824,454.3437914000824,454.3437914000824,454.3437914000824,454.3437914000824,454.3437914000824,456.85255889990367,456.85255889990367,456.85255889990367,456.85255889990367,456.85255889990367,32,50,55,62,62,52,5.0,0.5636024000123143,457.4342406000942,459.1470343999099,,,,,,,158,f,25,2023-04-03_15h36.57.828,RL,2022.2.4,60.0712806068355,
1,50,0,50,0,,,,,,,,,,None,459.1470343999099,459.1470343999099,459.1470343999099,459.1470343999099,459.1470343999099,459.1470343999099,i,0.45287830010056496,459.63005360006355,459.63005360006355,459.63005360006355,459.63005360006355,459.63005360006355,459.63005360006355,459.9286410000641,459.9286410000641,461.34126070002094,461.34126070002094,461.34126070002094,461.34126070002094,461.34126070002094,461.34126070002094,461.34126070002094,461.34126070002094,461.34126070002094,461.34126070002094,461.34126070002094,461.34126070002094,461.34126070002094,461.34126070002094,461.34126070002094,461.34126070002094,461.34126070002094,463.849875099957,463.849875099957,463.849875099957,463.849875099957,463.849875099957,32,60,53,61,53,50,4.0,1.3955365000292659,465.2629013999831,467.25819709990174,,,,,,,158,f,25,2023-04-03_15h36.57.828,RL,2022.2.4,60.0712806068355,
1,51,0,51,0,,,,,,,,,,None,467.25819709990174,467.25819709990174,467.25819709990174,467.25819709990174,467.25819709990174,467.25819709990174,j,0.41321959998458624,467.69283690000884,467.69283690000884,467.69283690000884,467.69283690000884,467.69283690000884,467.69283690000884,467.98971210001037,467.98971210001037,469.00322489999235,469.00322489999235,469.00322489999235,469.00322489999235,469.00322489999235,469.00322489999235,469.00322489999235,469.00322489999235,469.00322489999235,469.00322489999235,469.00322489999235,469.00322489999235,469.00322489999235,469.00322489999235,469.00322489999235,469.00322489999235,469.00322489999235,471.51220820005983,471.51220820005983,471.51220820005983,471.51220820005983,471.51220820005983,14,45,55,53,53,48,4.0,0.979959299787879,472.5097610000521,474.4882795000449,,,,,,,158,f,25,2023-04-03_15h36.57.828,RL,2022.2.4,60.0712806068355,
1,52,0,52,0,,,,,,,,,,None,474.4882795000449,474.4882795000449,474.4882795000449,474.4882795000449,474.4882795000449,474.4882795000449,i,1.2700459000188857,475.78874420002103,475.78874420002103,475.78874420002103,475.78874420002103,475.78874420002103,475.78874420002103,476.0840648000594,476.0840648000594,476.91483439994045,476.91483439994045,476.9317884000484,476.9317884000484,476.9317884000484,476.9317884000484,476.9317884000484,476.9317884000484,476.9317884000484,476.9317884000484,476.9317884000484,476.9317884000484,476.9317884000484,476.9317884000484,476.9317884000484,476.9317884000484,476.9317884000484,479.4409400001168,479.4409400001168,479.4409400001168,479.4409400001168,479.4409400001168,28,51,47,74,47,48,4.0,0.6139080999419093,480.07210889994167,481.602362500038,,,,,,,158,f,25,2023-04-03_15h36.57.828,RL,2022.2.4,60.0712806068355,
1,53,0,53,0,,,,,,,,,,None,481.602362500038,481.602362500038,481.602362500038,481.602362500038,481.602362500038,481.602362500038,j,0.5396954000461847,482.17066020006314,482.17066020006314,482.17066020006314,482.17066020006314,482.17066020006314,482.17066020006314,482.4669117999729,482.4669117999729,483.63045440008864,483.63045440008864,483.63045440008864,483.63045440008864,483.63045440008864,483.63045440008864,483.63045440008864,483.63045440008864,483.63045440008864,483.63045440008864,483.63045440008864,483.63045440008864,483.63045440008864,483.63045440008864,483.63045440008864,483.63045440008864,483.63045440008864,486.1393709999975,486.1393709999975,486.1393709999975,486.1393709999975,486.1393709999975,25,51,61,78,78,57,5.0,1.1949948999099433,487.3527575000189,489.3478224000428,,,,,,,158,f,25,2023-04-03_15h36.57.828,RL,2022.2.4,60.0712806068355,
1,54,0,54,0,,,,,,,,,,None,489.3478224000428,489.3478224000428,489.3478224000428,489.3478224000428,489.3478224000428,489.3478224000428,j,0.3211674001067877,489.6985466000624,489.6985466000624,489.6985466000624,489.6985466000624,489.6985466000624,489.6985466000624,489.99654949991964,489.99654949991964,491.6589508999605,491.6589508999605,491.6589508999605,491.6589508999605,491.6589508999605,491.6589508999605,491.6589508999605,491.6589508999605,491.6589508999605,491.6589508999605,491.6589508999605,491.6589508999605,491.6589508999605,491.6589508999605,491.6589508999605,491.6589508999605,491.6589508999605,494.1674611000344,494.1674611000344,494.1674611000344,494.1674611000344,494.1674611000344,22,61,52,74,74,55,6.0,1.0632442000787705,495.24770210008137,496.7943432999309,,,,,,,158,f,25,2023-04-03_15h36.57.828,RL,2022.2.4,60.0712806068355,
1,55,0,55,0,,,,,,,,,,None,496.7943432999309,496.7943432999309,496.7943432999309,496.7943432999309,496.7943432999309,496.7943432999309,j,0.40735080000013113,497.2275678999722,497.2275678999722,497.2275678999722,497.2275678999722,497.2275678999722,497.2275678999722,497.52587640006095,497.52587640006095,499.071516700089,499.071516700089,499.071516700089,499.071516700089,499.071516700089,499.071516700089,499.071516700089,499.071516700089,499.071516700089,499.071516700089,499.071516700089,499.071516700089,499.071516700089,499.071516700089,499.071516700089,499.071516700089,499.071516700089,501.5805772000458,501.5805772000458,501.5805772000458,501.5805772000458,501.5805772000458,27,50,50,65,65,45,5.0,1.8610340000595897,503.4587133000605,504.988468100084,,,,,,,158,f,25,2023-04-03_15h36.57.828,RL,2022.2.4,60.0712806068355,
1,56,0,56,0,,,,,,,,,,None,504.988468100084,504.988468100084,504.988468100084,504.988468100084,504.988468100084,504.988468100084,j,0.7539953999221325,505.7726545999758,505.7726545999758,505.7726545999758,505.7726545999758,505.7726545999758,505.7726545999758,506.0690659999382,506.0690659999382,506.9498310999479,506.9498310999479,506.9661252000369,506.9661252000369,506.9661252000369,506.9661252000369,506.9661252000369,506.9661252000369,506.9661252000369,506.9661252000369,506.9661252000369,506.9661252000369,506.9661252000369,506.9661252000369,506.9661252000369,506.9661252000369,506.9661252000369,509.4755138999317,509.4755138999317,509.4755138999317,509.4755138999317,509.4755138999317,36,64,50,64,64,61,4.0,0.46414040005765855,509.9577953000553,511.5705270001199,,,,,,,158,f,25,2023-04-03_15h36.57.828,RL,2022.2.4,60.0712806068355,
1,57,0,57,0,,,,,,,,,,None,511.5705270001199,511.5705270001199,511.5705270001199,511.5705270001199,511.5705270001199,511.5705270001199,i,0.29108900018036366,511.8881123000756,511.8881123000756,511.8881123000756,511.8881123000756,511.8881123000756,511.8881123000756,512.1858014999889,512.1858014999889,514.1797923999839,514.1797923999839,514.1797923999839,514.1797923999839,514.1797923999839,514.1797923999839,514.1797923999839,514.1797923999839,514.1797923999839,514.1797923999839,514.1797923999839,514.1797923999839,514.1797923999839,514.1797923999839,514.1797923999839,514.1797923999839,514.1797923999839,516.6890847999603,516.6890847999603,516.6890847999603,516.6890847999603,516.6890847999603,29,63,46,73,46,58,3.0,0.6307492000050843,517.3375055999495,519.0669563000556,,,,,,,158,f,25,2023-04-03_15h36.57.828,RL,2022.2.4,60.0712806068355,
1,58,0,58,0,,,,,,,,,,None,519.0669563000556,519.0669563000556,519.0669563000556,519.0669563000556,519.0669563000556,519.0669563000556,r,1.0763666999991983,520.166805600049,520.166805600049,520.166805600049,520.166805600049,520.166805600049,520.166805600049,520.4628560999408,520.4628560999408,522.3577044999693,522.3577044999693,522.3577044999693,522.3577044999693,522.3577044999693,522.3577044999693,522.3577044999693,522.3577044999693,522.3577044999693,522.3577044999693,522.3577044999693,522.3577044999693,522.3577044999693,522.3577044999693,522.3577044999693,522.3577044999693,522.3577044999693,524.8670495999977,524.8670495999977,524.8670495999977,524.8670495999977,524.8670495999977,29,66,50,78,29,60,3.0,1.029096300015226,525.9137575000059,527.6268064000178,,,,,,,158,f,25,2023-04-03_15h36.57.828,RL,2022.2.4,60.0712806068355,
1,59,0,59,0,,,,,,,,,,None,527.6268064000178,527.6268064000178,527.6268064000178,527.6268064000178,527.6268064000178,527.6268064000178,f,0.46264080004766583,528.1100379000418,528.1100379000418,528.1100379000418,528.1100379000418,528.1100379000418,528.1100379000418,528.4082055999897,528.4082055999897,529.6381284000818,529.6381284000818,529.6381284000818,529.6381284000818,529.6381284000818,529.6381284000818,529.6381284000818,529.6381284000818,529.6381284000818,529.6381284000818,529.6381284000818,529.6381284000818,529.6381284000818,529.6381284000818,529.6381284000818,529.6381284000818,529.6381284000818,532.1467250999995,532.1467250999995,532.1467250999995,532.1467250999995,532.1467250999995,31,66,52,55,66,53,4.0,0.8468603000510484,533.0114788999781,534.95681959996,,,,,,,158,f,25,2023-04-03_15h36.57.828,RL,2022.2.4,60.0712806068355,
1,60,0,60,0,,,,,,,,,,None,534.95681959996,534.95681959996,534.95681959996,534.95681959996,534.95681959996,534.95681959996,f,0.33580769994296134,535.3258376999293,535.3258376999293,535.3258376999293,535.3258376999293,535.3258376999293,535.3258376999293,535.6218224999029,535.6218224999029,537.067573999986,537.067573999986,537.0844012999441,537.0844012999441,537.0844012999441,537.0844012999441,537.0844012999441,537.0844012999441,537.0844012999441,537.0844012999441,537.0844012999441,537.0844012999441,537.0844012999441,537.0844012999441,537.0844012999441,537.0844012999441,537.0844012999441,539.5933924999554,539.5933924999554,539.5933924999554,539.5933924999554,539.5933924999554,30,64,53,68,64,51,5.0,0.6141692001838237,540.2251945999451,542.1372279000934,,,,,,,158,f,25,2023-04-03_15h36.57.828,RL,2022.2.4,60.0712806068355,
1,61,0,61,0,,,,,,,,,,None,542.1372279000934,542.1372279000934,542.1372279000934,542.1372279000934,542.1372279000934,542.1372279000934,f,0.7160424999892712,542.8864533999003,542.8864533999003,542.8864533999003,542.8864533999003,542.8864533999003,542.8864533999003,543.1847230999265,543.1847230999265,544.5967882000841,544.5967882000841,544.5967882000841,544.5967882000841,544.5967882000841,544.5967882000841,544.5967882000841,544.5967882000841,544.5967882000841,544.5967882000841,544.5967882000841,544.5967882000841,544.5967882000841,544.5967882000841,544.5967882000841,544.5967882000841,544.5967882000841,547.1061140999664,547.1061140999664,547.1061140999664,547.1061140999664,547.1061140999664,32,57,48,73,57,49,4.0,1.1127335000783205,548.2363764001057,549.7996038999408,,,,,,,158,f,25,2023-04-03_15h36.57.828,RL,2022.2.4,60.0712806068355,
1,62,0,62,0,,,,,,,,,,None,549.7996038999408,549.7996038999408,549.7996038999408,549.7996038999408,549.7996038999408,549.7996038999408,f,0.4111313000321388,550.2336289999075,550.2336289999075,550.2336289999075,550.2336289999075,550.2336289999075,550.2336289999075,550.5309520999435,550.5309520999435,552.4759825000074,552.4759825000074,552.4759825000074,552.4759825000074,552.4759825000074,552.4759825000074,552.4759825000074,552.4759825000074,552.4759825000074,552.4759825000074,552.4759825000074,552.4759825000074,552.4759825000074,552.4759825000074,552.4759825000074,552.4759825000074,552.4759825000074,554.9845358999446,554.9845358999446,554.9845358999446,554.9845358999446,554.9845358999446,26,50,44,69,50,52,4.0,0.7802989999763668,555.7822726001032,557.578538000118,,,,,,,158,f,25,2023-04-03_15h36.57.828,RL,2022.2.4,60.0712806068355,
1,63,0,63,0,,,,,,,,,,None,557.578538000118,557.578538000118,557.578538000118,557.578538000118,557.578538000118,557.578538000118,j,0.31961330003105104,557.9309495000634,557.9309495000634,557.9309495000634,557.9309495000634,557.9309495000634,557.9309495000634,558.2268558000214,558.2268558000214,559.0578556999099,559.0578556999099,559.0578556999099,559.0578556999099,559.0578556999099,559.0578556999099,559.0578556999099,559.0578556999099,559.0578556999099,559.0578556999099,559.0578556999099,559.0578556999099,559.0578556999099,559.0578556999099,559.0578556999099,559.0578556999099,559.0578556999099,561.5669641999993,561.5669641999993,561.5669641999993,561.5669641999993,561.5669641999993,35,55,42,73,73,55,5.0,0.7300929999910295,562.3147299999837,564.110585300019,,,,,,,158,f,25,2023-04-03_15h36.57.828,RL,2022.2.4,60.0712806068355,
1,64,0,64,0,,,,,,,,,,None,564.110585300019,564.110585300019,564.110585300019,564.110585300019,564.110585300019,564.110585300019,i,1.205848100129515,565.3420917000622,565.3420917000622,565.3420917000622,565.3420917000622,565.3420917000622,565.3420917000622,565.6396008001175,565.6396008001175,567.2020046000835,567.2020046000835,567.2020046000835,567.2020046000835,567.2020046000835,567.2020046000835,567.2020046000835,567.2020046000835,567.2020046000835,567.2020046000835,567.2020046000835,567.2020046000835,567.2020046000835,567.2020046000835,567.2020046000835,567.2020046000835,567.2020046000835,569.7114460999146,569.7114460999146,569.7114460999146,569.7114460999146,569.7114460999146,40,52,39,71,39,55,3.0,0.49771449994295835,570.2266237000003,571.7564534000121,,,,,,,158,f,25,2023-04-03_15h36.57.828,RL,2022.2.4,60.0712806068355,
1,65,0,65,0,,,,,,,,,,None,571.7564534000121,571.7564534000121,571.7564534000121,571.7564534000121,571.7564534000121,571.7564534000121,f,0.43263450008817017,572.2222531000152,572.2222531000152,572.2222531000152,572.2222531000152,572.2222531000152,572.2222531000152,572.5211292000022,572.5211292000022,574.5157194000203,574.5157194000203,574.5157194000203,574.5157194000203,574.5157194000203,574.5157194000203,574.5157194000203,574.5157194000203,574.5157194000203,574.5157194000203,574.5157194000203,574.5157194000203,574.5157194000203,574.5157194000203,574.5157194000203,574.5157194000203,574.5157194000203,577.0244986000471,577.0244986000471,577.0244986000471,577.0244986000471,577.0244986000471,38,59,37,85,59,52,4.0,1.062798900064081,578.104952899972,579.9836850001011,,,,,,,158,f,25,2023-04-03_15h36.57.828,RL,2022.2.4,60.0712806068355,
1,66,0,66,0,,,,,,,,,,None,579.9836850001011,579.9836850001011,579.9836850001011,579.9836850001011,579.9836850001011,579.9836850001011,f,0.40165680018253624,580.4179122999776,580.4179122999776,580.4179122999776,580.4179122999776,580.4179122999776,580.4179122999776,580.715393200051,580.715393200051,582.4939766000025,582.4939766000025,582.4939766000025,582.4939766000025,582.4939766000025,582.4939766000025,582.4939766000025,582.4939766000025,582.4939766000025,582.4939766000025,582.4939766000025,582.4939766000025,582.4939766000025,582.4939766000025,582.4939766000025,582.4939766000025,582.4939766000025,585.0030060999561,585.0030060999561,585.0030060999561,585.0030060999561,585.0030060999561,38,53,40,82,53,47,4.0,0.8300813999958336,585.8504691000562,587.7625251999125,,,,,,,158,f,25,2023-04-03_15h36.57.828,RL,2022.2.4,60.0712806068355,
1,67,0,67,0,,,,,,,,,,None,587.7625251999125,587.7625251999125,587.7625251999125,587.7625251999125,587.7625251999125,587.7625251999125,f,0.3852111999876797,588.1816966000479,588.1816966000479,588.1816966000479,588.1816966000479,588.1816966000479,588.1816966000479,588.4775882000104,588.4775882000104,589.5243359999731,589.5243359999731,589.5243359999731,589.5243359999731,589.5243359999731,589.5243359999731,589.5243359999731,589.5243359999731,589.5243359999731,589.5243359999731,589.5243359999731,589.5243359999731,589.5243359999731,589.5243359999731,589.5243359999731,589.5243359999731,589.5243359999731,592.0335288001224,592.0335288001224,592.0335288001224,592.0335288001224,592.0335288001224,28,42,47,63,42,46,3.0,0.7136711999773979,592.7650637000334,594.2949143999722,,,,,,,158,f,25,2023-04-03_15h36.57.828,RL,2022.2.4,60.0712806068355,
1,68,0,68,0,,,,,,,,,,None,594.2949143999722,594.2949143999722,594.2949143999722,594.2949143999722,594.2949143999722,594.2949143999722,j,0.527007499942556,594.8453877998982,594.8453877998982,594.8453877998982,594.8453877998982,594.8453877998982,594.8453877998982,595.1426460999064,595.1426460999064,596.4725583998952,596.4725583998952,596.4725583998952,596.4725583998952,596.4725583998952,596.4725583998952,596.4725583998952,596.4725583998952,596.4725583998952,596.4725583998952,596.4725583998952,596.4725583998952,596.4725583998952,596.4725583998952,596.4725583998952,596.4725583998952,596.4725583998952,598.9812976999674,598.9812976999674,598.9812976999674,598.9812976999674,598.9812976999674,33,38,38,66,66,67,4.0,1.4127487000077963,600.4108541000169,602.1566882999614,,,,,,,158,f,25,2023-04-03_15h36.57.828,RL,2022.2.4,60.0712806068355,
1,69,0,69,0,,,,,,,,,,None,602.1566882999614,602.1566882999614,602.1566882999614,602.1566882999614,602.1566882999614,602.1566882999614,j,0.6319931000471115,602.8228716999292,602.8228716999292,602.8228716999292,602.8228716999292,602.8228716999292,602.8228716999292,603.1206910000183,603.1206910000183,604.5336456999648,604.5336456999648,604.5336456999648,604.5336456999648,604.5336456999648,604.5336456999648,604.5336456999648,604.5336456999648,604.5336456999648,604.5336456999648,604.5336456999648,604.5336456999648,604.5336456999648,604.5336456999648,604.5336456999648,604.5336456999648,604.5336456999648,607.0426058999728,607.0426058999728,607.0426058999728,607.0426058999728,607.0426058999728,38,52,48,73,73,66,4.0,0.9118388001807034,607.9728490000125,609.9853924999479,,,,,,,158,f,25,2023-04-03_15h36.57.828,RL,2022.2.4,60.0712806068355,
1,70,0,70,0,,,,,,,,,,None,609.9853924999479,609.9853924999479,609.9853924999479,609.9853924999479,609.9853924999479,609.9853924999479,j,0.64582320000045,610.6524219000712,610.6524219000712,610.6524219000712,610.6524219000712,610.6524219000712,610.6524219000712,610.9498566000257,610.9498566000257,612.3458521000575,612.3458521000575,612.3458521000575,612.3458521000575,612.3458521000575,612.3458521000575,612.3458521000575,612.3458521000575,612.3458521000575,612.3458521000575,612.3458521000575,612.3458521000575,612.3458521000575,612.3458521000575,612.3458521000575,612.3458521000575,612.3458521000575,614.8548572999425,614.8548572999425,614.8548572999425,614.8548572999425,614.8548572999425,42,52,45,69,69,69,4.0,0.43032869999296963,615.3034033000004,616.9664807000663,,,,,,,158,f,25,2023-04-03_15h36.57.828,RL,2022.2.4,60.0712806068355,
1,71,0,71,0,,,,,,,,,,None,616.9664807000663,616.9664807000663,616.9664807000663,616.9664807000663,616.9664807000663,616.9664807000663,j,0.34221110004000366,617.334910799982,617.334910799982,617.334910799982,617.334910799982,617.334910799982,617.334910799982,617.6314089000225,617.6314089000225,619.326305600116,619.326305600116,619.326305600116,619.326305600116,619.326305600116,619.326305600116,619.326305600116,619.326305600116,619.326305600116,619.326305600116,619.326305600116,619.326305600116,619.326305600116,619.326305600116,619.326305600116,619.326305600116,619.326305600116,621.8355411998928,621.8355411998928,621.8355411998928,621.8355411998928,621.8355411998928,43,53,46,77,77,38,6.0,0.5145054999738932,622.3672863000538,624.1629355999175,,,,,,,158,f,25,2023-04-03_15h36.57.828,RL,2022.2.4,60.0712806068355,
1,72,0,72,0,,,,,,,,,,None,624.1629355999175,624.1629355999175,624.1629355999175,624.1629355999175,624.1629355999175,624.1629355999175,j,0.39326989999972284,624.5813128999434,624.5813128999434,624.5813128999434,624.5813128999434,624.5813128999434,624.5813128999434,624.8781457000878,624.8781457000878,626.8064075000584,626.8064075000584,626.8064075000584,626.8064075000584,626.8064075000584,626.8064075000584,626.8064075000584,626.8064075000584,626.8064075000584,626.8064075000584,626.8064075000584,626.8064075000584,626.8064075000584,626.8064075000584,626.8064075000584,626.8064075000584,626.8064075000584,629.3153433999978,629.3153433999978,629.3153433999978,629.3153433999978,629.3153433999978,41,61,38,68,68,46,6.0,0.9787451999727637,630.3123610999901,632.1085570999421,,,,,,,158,f,25,2023-04-03_15h36.57.828,RL,2022.2.4,60.0712806068355,
1,73,0,73,0,,,,,,,,,,None,632.1085570999421,632.1085570999421,632.1085570999421,632.1085570999421,632.1085570999421,632.1085570999421,j,0.4249736999627203,632.5584694000427,632.5584694000427,632.5584694000427,632.5584694000427,632.5584694000427,632.5584694000427,632.8566483000759,632.8566483000759,634.7009491999634,634.7009491999634,634.7009491999634,634.7009491999634,634.7009491999634,634.7009491999634,634.7009491999634,634.7009491999634,634.7009491999634,634.7009491999634,634.7009491999634,634.7009491999634,634.7009491999634,634.7009491999634,634.7009491999634,634.7009491999634,634.7009491999634,637.210450500017,637.210450500017,637.210450500017,637.210450500017,637.210450500017,48,57,48,63,63,43,6.0,0.7479667000006884,637.9749431998935,639.6710960001219,,,,,,,158,f,25,2023-04-03_15h36.57.828,RL,2022.2.4,60.0712806068355,
1,74,0,74,0,,,,,,,,,,None,639.6710960001219,639.6710960001219,639.6710960001219,639.6710960001219,639.6710960001219,639.6710960001219,j,0.3992076001595706,640.1049623999279,640.1049623999279,640.1049623999279,640.1049623999279,640.1049623999279,640.1049623999279,640.402551200008,640.402551200008,641.7490338000935,641.7490338000935,641.7490338000935,641.7490338000935,641.7490338000935,641.7490338000935,641.7490338000935,641.7490338000935,641.7490338000935,641.7490338000935,641.7490338000935,641.7490338000935,641.7490338000935,641.7490338000935,641.7490338000935,641.7490338000935,641.7490338000935,644.257581199985,644.257581199985,644.257581199985,644.257581199985,644.257581199985,41,57,45,67,67,65,4.0,0.8135004001669586,645.0889008999802,646.7348863999359,,,,,,,158,f,25,2023-04-03_15h36.57.828,RL,2022.2.4,60.0712806068355,
1,75,0,75,0,,,,,,,,,,q,693.9891361000482,693.9891361000482,693.9891361000482,693.9891361000482,693.9891361000482,693.9891361000482,j,1.0549492998979986,695.0700870000292,695.0700870000292,695.0700870000292,695.0700870000292,695.0700870000292,695.0700870000292,695.3692964001093,695.3692964001093,696.7986717999447,696.7986717999447,696.7986717999447,696.7986717999447,696.7986717999447,696.7986717999447,696.7986717999447,696.7986717999447,696.7986717999447,696.7986717999447,696.7986717999447,696.7986717999447,696.7986717999447,696.7986717999447,696.7986717999447,696.7986717999447,696.7986717999447,699.3074187000748,699.3074187000748,699.3074187000748,699.3074187000748,699.3074187000748,49,48,35,71,71,54,6.0,1.0297936999704689,700.3548169001006,702.1168941000942,646.7348863999359,646.7348863999359,47.235560399945825,,,,158,f,25,2023-04-03_15h36.57.828,RL,2022.2.4,60.0712806068355,
1,76,0,76,0,,,,,,,,,,None,702.1168941000942,702.1168941000942,702.1168941000942,702.1168941000942,702.1168941000942,702.1168941000942,j,1.4540454999078065,703.599565200042,703.599565200042,703.599565200042,703.599565200042,703.599565200042,703.599565200042,703.8961388999596,703.8961388999596,705.5414964000229,705.5414964000229,705.5414964000229,705.5414964000229,705.5414964000229,705.5414964000229,705.5414964000229,705.5414964000229,705.5414964000229,705.5414964000229,705.5414964000229,705.5414964000229,705.5414964000229,705.5414964000229,705.5414964000229,705.5414964000229,705.5414964000229,708.0505005000159,708.0505005000159,708.0505005000159,708.0505005000159,708.0505005000159,50,59,45,75,75,50,6.0,0.531120200175792,708.598862899933,710.5776458000764,,,,,,,158,f,25,2023-04-03_15h36.57.828,RL,2022.2.4,60.0712806068355,
1,77,0,77,0,,,,,,,,,,None,710.5776458000764,710.5776458000764,710.5776458000764,710.5776458000764,710.5776458000764,710.5776458000764,j,0.8545395999681205,711.4617651000153,711.4617651000153,711.4617651000153,711.4617651000153,711.4617651000153,711.4617651000153,711.7576250000857,711.7576250000857,712.6217918000184,712.6217918000184,712.6217918000184,712.6217918000184,712.6217918000184,712.6217918000184,712.6217918000184,712.6217918000184,712.6217918000184,712.6217918000184,712.6217918000184,712.6217918000184,712.6217918000184,712.6217918000184,712.6217918000184,712.6217918000184,712.6217918000184,715.1310910000466,715.1310910000466,715.1310910000466,715.1310910000466,715.1310910000466,40,57,44,72,72,56,6.0,0.49714100011624396,715.6461453000084,717.3090927000158,,,,,,,158,f,25,2023-04-03_15h36.57.828,RL,2022.2.4,60.0712806068355,
1,78,0,78,0,,,,,,,,,,None,717.3090927000158,717.3090927000158,717.3090927000158,717.3090927000158,717.3090927000158,717.3090927000158,j,0.36673410004004836,717.7096583000384,717.7096583000384,717.7096583000384,717.7096583000384,717.7096583000384,717.7096583000384,718.0075151999481,718.0075151999481,719.6194575000554,719.6194575000554,719.6194575000554,719.6194575000554,719.6194575000554,719.6194575000554,719.6194575000554,719.6194575000554,719.6194575000554,719.6194575000554,719.6194575000554,719.6194575000554,719.6194575000554,719.6194575000554,719.6194575000554,719.6194575000554,719.6194575000554,722.1286818000954,722.1286818000954,722.1286818000954,722.1286818000954,722.1286818000954,54,57,54,68,68,76,5.0,1.2456726001109928,723.3916625999846,725.2540166000836,,,,,,,158,f,25,2023-04-03_15h36.57.828,RL,2022.2.4,60.0712806068355,
1,79,0,79,0,,,,,,,,,,None,725.2540166000836,725.2540166000836,725.2540166000836,725.2540166000836,725.2540166000836,725.2540166000836,i,1.0583031999412924,726.3379174000584,726.3379174000584,726.3379174000584,726.3379174000584,726.3379174000584,726.3379174000584,726.6340828000102,726.6340828000102,728.4289621000644,728.4289621000644,728.4289621000644,728.4289621000644,728.4289621000644,728.4289621000644,728.4289621000644,728.4289621000644,728.4289621000644,728.4289621000644,728.4289621000644,728.4289621000644,728.4289621000644,728.4289621000644,728.4289621000644,728.4289621000644,728.4289621000644,730.937900000019,730.937900000019,730.937900000019,730.937900000019,730.937900000019,52,54,44,65,44,59,4.0,0.6305648998823017,731.5859064001124,733.4152315999381,,,,,,,158,f,25,2023-04-03_15h36.57.828,RL,2022.2.4,60.0712806068355,
1,80,0,80,0,,,,,,,,,,None,733.4152315999381,733.4152315999381,733.4152315999381,733.4152315999381,733.4152315999381,733.4152315999381,j,0.9741771998815238,734.4155943999067,734.4155943999067,734.4155943999067,734.4155943999067,734.4155943999067,734.4155943999067,734.711500100093,734.711500100093,735.5597188998945,735.5597188998945,735.5597188998945,735.5597188998945,735.5597188998945,735.5597188998945,735.5597188998945,735.5597188998945,735.5597188998945,735.5597188998945,735.5597188998945,735.5597188998945,735.5597188998945,735.5597188998945,735.5597188998945,735.5597188998945,735.5597188998945,738.0686445001047,738.0686445001047,738.0686445001047,738.0686445001047,738.0686445001047,52,59,40,67,67,63,4.0,0.44815299985930324,738.5339953000657,740.2138044000603,,,,,,,158,f,25,2023-04-03_15h36.57.828,RL,2022.2.4,60.0712806068355,
1,81,0,81,0,,,,,,,,,,None,740.2138044000603,740.2138044000603,740.2138044000603,740.2138044000603,740.2138044000603,740.2138044000603,f,0.3739591999910772,740.6156441001222,740.6156441001222,740.6156441001222,740.6156441001222,740.6156441001222,740.6156441001222,740.9117012000643,740.9117012000643,742.3910123000387,742.3910123000387,742.3910123000387,742.3910123000387,742.3910123000387,742.3910123000387,742.3910123000387,742.3910123000387,742.3910123000387,742.3910123000387,742.3910123000387,742.3910123000387,742.3910123000387,742.3910123000387,742.3910123000387,742.3910123000387,742.3910123000387,744.8998120999895,744.8998120999895,744.8998120999895,744.8998120999895,744.8998120999895,53,55,44,64,55,55,4.0,0.4481279000174254,745.3652705999557,747.111129200086,,,,,,,158,f,25,2023-04-03_15h36.57.828,RL,2022.2.4,60.0712806068355,
1,82,0,82,0,,,,,,,,,,None,747.111129200086,747.111129200086,747.111129200086,747.111129200086,747.111129200086,747.111129200086,f,0.33001819998025894,747.4620318999514,747.4620318999514,747.4620318999514,747.4620318999514,747.4620318999514,747.4620318999514,747.7594339000061,747.7594339000061,748.6238836999983,748.6238836999983,748.6238836999983,748.6238836999983,748.6238836999983,748.6238836999983,748.6238836999983,748.6238836999983,748.6238836999983,748.6238836999983,748.6238836999983,748.6238836999983,748.6238836999983,748.6238836999983,748.6238836999983,748.6238836999983,748.6238836999983,751.1324650000315,751.1324650000315,751.1324650000315,751.1324650000315,751.1324650000315,50,55,49,72,55,72,3.0,0.6476280000060797,751.7977255000733,753.4105078000575,,,,,,,158,f,25,2023-04-03_15h36.57.828,RL,2022.2.4,60.0712806068355,
1,83,0,83,0,,,,,,,,,,None,753.4105078000575,753.4105078000575,753.4105078000575,753.4105078000575,753.4105078000575,753.4105078000575,r,0.3384621001314372,753.7805604001042,753.7805604001042,753.7805604001042,753.7805604001042,753.7805604001042,753.7805604001042,754.0755016000476,754.0755016000476,755.8705605000723,755.8705605000723,755.8705605000723,755.8705605000723,755.8705605000723,755.8705605000723,755.8705605000723,755.8705605000723,755.8705605000723,755.8705605000723,755.8705605000723,755.8705605000723,755.8705605000723,755.8705605000723,755.8705605000723,755.8705605000723,755.8705605000723,758.3798650000244,758.3798650000244,758.3798650000244,758.3798650000244,758.3798650000244,53,49,42,73,53,72,3.0,0.6462828000076115,759.0445507999975,760.7070313999429,,,,,,,158,f,25,2023-04-03_15h36.57.828,RL,2022.2.4,60.0712806068355,
1,84,0,84,0,,,,,,,,,,None,760.7070313999429,760.7070313999429,760.7070313999429,760.7070313999429,760.7070313999429,760.7070313999429,j,0.3139782000798732,761.0398945000488,761.0398945000488,761.0398945000488,761.0398945000488,761.0398945000488,761.0398945000488,761.3389987000264,761.3389987000264,762.8183416998945,762.8183416998945,762.8183416998945,762.8183416998945,762.8183416998945,762.8183416998945,762.8183416998945,762.8183416998945,762.8183416998945,762.8183416998945,762.8183416998945,762.8183416998945,762.8183416998945,762.8183416998945,762.8183416998945,762.8183416998945,762.8183416998945,765.3275194999296,765.3275194999296,765.3275194999296,765.3275194999296,765.3275194999296,45,42,36,67,67,42,5.0,0.6801092999521643,766.0256419999059,767.7048945999704,,,,,,,158,f,25,2023-04-03_15h36.57.828,RL,2022.2.4,60.0712806068355,
1,85,0,85,0,,,,,,,,,,None,767.7048945999704,767.7048945999704,767.7048945999704,767.7048945999704,767.7048945999704,767.7048945999704,j,0.3091804999858141,768.0399402999319,768.0399402999319,768.0399402999319,768.0399402999319,768.0399402999319,768.0399402999319,768.3365845999215,768.3365845999215,770.1983131000306,770.1983131000306,770.1983131000306,770.1983131000306,770.1983131000306,770.1983131000306,770.1983131000306,770.1983131000306,770.1983131000306,770.1983131000306,770.1983131000306,770.1983131000306,770.1983131000306,770.1983131000306,770.1983131000306,770.1983131000306,770.1983131000306,772.7072749000508,772.7072749000508,772.7072749000508,772.7072749000508,772.7072749000508,64,56,44,73,73,68,5.0,0.8967037999536842,773.6213998999447,775.5000738000963,,,,,,,158,f,25,2023-04-03_15h36.57.828,RL,2022.2.4,60.0712806068355,
1,86,0,86,0,,,,,,,,,,None,775.5000738000963,775.5000738000963,775.5000738000963,775.5000738000963,775.5000738000963,775.5000738000963,j,0.5204149000346661,776.0528132999316,776.0528132999316,776.0528132999316,776.0528132999316,776.0528132999316,776.0528132999316,776.348052599933,776.348052599933,777.711101599969,777.711101599969,777.711101599969,777.711101599969,777.711101599969,777.711101599969,777.711101599969,777.711101599969,777.711101599969,777.711101599969,777.711101599969,777.711101599969,777.711101599969,777.711101599969,777.711101599969,777.711101599969,777.711101599969,780.2201302000321,780.2201302000321,780.2201302000321,780.2201302000321,780.2201302000321,63,58,38,81,81,44,6.0,0.8139040998648852,781.0513712000102,782.946801800048,,,,,,,158,f,25,2023-04-03_15h36.57.828,RL,2022.2.4,60.0712806068355,
1,87,0,87,0,,,,,,,,,,None,782.946801800048,782.946801800048,782.946801800048,782.946801800048,782.946801800048,782.946801800048,j,1.1158529999665916,784.096880099969,784.096880099969,784.096880099969,784.096880099969,784.096880099969,784.096880099969,784.3929650001228,784.3929650001228,786.0550444999244,786.0550444999244,786.0550444999244,786.0550444999244,786.0550444999244,786.0550444999244,786.0550444999244,786.0550444999244,786.0550444999244,786.0550444999244,786.0550444999244,786.0550444999244,786.0550444999244,786.0550444999244,786.0550444999244,786.0550444999244,786.0550444999244,788.5639118000399,788.5639118000399,788.5639118000399,788.5639118000399,788.5639118000399,61,62,43,77,77,46,6.0,0.5304830998647958,789.112522700103,791.0245298999362,,,,,,,158,f,25,2023-04-03_15h36.57.828,RL,2022.2.4,60.0712806068355,
1,88,0,88,0,,,,,,,,,,None,791.0245298999362,791.0245298999362,791.0245298999362,791.0245298999362,791.0245298999362,791.0245298999362,j,0.38002709997817874,791.4265145000536,791.4265145000536,791.4265145000536,791.4265145000536,791.4265145000536,791.4265145000536,791.7225470999256,791.7225470999256,792.7863853999879,792.7863853999879,792.802975700004,792.802975700004,792.802975700004,792.802975700004,792.802975700004,792.802975700004,792.802975700004,792.802975700004,792.802975700004,792.802975700004,792.802975700004,792.802975700004,792.802975700004,792.802975700004,792.802975700004,795.3123900999781,795.3123900999781,795.3123900999781,795.3123900999781,795.3123900999781,58,56,38,84,84,61,6.0,1.1125688999891281,796.442651099991,798.3049224999268,,,,,,,158,f,25,2023-04-03_15h36.57.828,RL,2022.2.4,60.0712806068355,
1,89,0,89,0,,,,,,,,,,None,798.3049224999268,798.3049224999268,798.3049224999268,798.3049224999268,798.3049224999268,798.3049224999268,j,0.37222479982301593,798.706873799907,798.706873799907,798.706873799907,798.706873799907,798.706873799907,798.706873799907,799.0030892998911,799.0030892998911,799.8341451000888,799.8341451000888,799.8341451000888,799.8341451000888,799.8341451000888,799.8341451000888,799.8341451000888,799.8341451000888,799.8341451000888,799.8341451000888,799.8341451000888,799.8341451000888,799.8341451000888,799.8341451000888,799.8341451000888,799.8341451000888,799.8341451000888,802.3432704000734,802.3432704000734,802.3432704000734,802.3432704000734,802.3432704000734,57,52,35,74,74,36,6.0,0.4644917999394238,802.8251072000712,804.4380807001144,,,,,,,158,f,25,2023-04-03_15h36.57.828,RL,2022.2.4,60.0712806068355,
1,90,0,90,0,,,,,,,,,,None,804.4380807001144,804.4380807001144,804.4380807001144,804.4380807001144,804.4380807001144,804.4380807001144,j,0.4231261000968516,804.8903270000592,804.8903270000592,804.8903270000592,804.8903270000592,804.8903270000592,804.8903270000592,805.1864106000867,805.1864106000867,807.1641007999424,807.1641007999424,807.1641007999424,807.1641007999424,807.1641007999424,807.1641007999424,807.1641007999424,807.1641007999424,807.1641007999424,807.1641007999424,807.1641007999424,807.1641007999424,807.1641007999424,807.1641007999424,807.1641007999424,807.1641007999424,807.1641007999424,809.6730490999762,809.6730490999762,809.6730490999762,809.6730490999762,809.6730490999762,54,50,32,72,72,58,6.0,0.5480637000873685,810.2384085999802,812.0673972999211,,,,,,,158,f,25,2023-04-03_15h36.57.828,RL,2022.2.4,60.0712806068355,
1,91,0,91,0,,,,,,,,,,None,812.0673972999211,812.0673972999211,812.0673972999211,812.0673972999211,812.0673972999211,812.0673972999211,j,0.27057569986209273,812.3704502999317,812.3704502999317,812.3704502999317,812.3704502999317,812.3704502999317,812.3704502999317,812.6659216000699,812.6659216000699,813.6963714999147,813.6963714999147,813.6963714999147,813.6963714999147,813.6963714999147,813.6963714999147,813.6963714999147,813.6963714999147,813.6963714999147,813.6963714999147,813.6963714999147,813.6963714999147,813.6963714999147,813.6963714999147,813.6963714999147,813.6963714999147,813.6963714999147,816.2052068000194,816.2052068000194,816.2052068000194,816.2052068000194,816.2052068000194,58,50,40,65,65,65,5.0,0.7634320999495685,816.9865329999011,818.6653762001079,,,,,,,158,f,25,2023-04-03_15h36.57.828,RL,2022.2.4,60.0712806068355,
1,92,0,92,0,,,,,,,,,,None,818.6653762001079,818.6653762001079,818.6653762001079,818.6653762001079,818.6653762001079,818.6653762001079,j,0.27634610002860427,818.9652648000047,818.9652648000047,818.9652648000047,818.9652648000047,818.9652648000047,818.9652648000047,819.2643885998987,819.2643885998987,820.9261702999938,820.9261702999938,820.9261702999938,820.9261702999938,820.9261702999938,820.9261702999938,820.9261702999938,820.9261702999938,820.9261702999938,820.9261702999938,820.9261702999938,820.9261702999938,820.9261702999938,820.9261702999938,820.9261702999938,820.9261702999938,820.9261702999938,823.4356724000536,823.4356724000536,823.4356724000536,823.4356724000536,823.4356724000536,59,60,39,66,66,69,5.0,0.5146126002073288,823.967234000098,825.8296131000388,,,,,,,158,f,25,2023-04-03_15h36.57.828,RL,2022.2.4,60.0712806068355,
1,93,0,93,0,,,,,,,,,,None,825.8296131000388,825.8296131000388,825.8296131000388,825.8296131000388,825.8296131000388,825.8296131000388,j,0.264314099913463,826.1143563999794,826.1143563999794,826.1143563999794,826.1143563999794,826.1143563999794,826.1143563999794,826.4115138999186,826.4115138999186,827.2757097000722,827.2757097000722,827.2757097000722,827.2757097000722,827.2757097000722,827.2757097000722,827.2757097000722,827.2757097000722,827.2757097000722,827.2757097000722,827.2757097000722,827.2757097000722,827.2757097000722,827.2757097000722,827.2757097000722,827.2757097000722,827.2757097000722,829.7851066999137,829.7851066999137,829.7851066999137,829.7851066999137,829.7851066999137,52,55,39,65,65,61,5.0,0.7132721000816673,830.516289900057,832.4118216999341,,,,,,,158,f,25,2023-04-03_15h36.57.828,RL,2022.2.4,60.0712806068355,
1,94,0,94,0,,,,,,,,,,None,832.4118216999341,832.4118216999341,832.4118216999341,832.4118216999341,832.4118216999341,832.4118216999341,j,0.34996030014008284,832.797332999995,832.797332999995,832.797332999995,832.797332999995,832.797332999995,832.797332999995,833.0932305001188,833.0932305001188,834.0071626999415,834.0071626999415,834.0071626999415,834.0071626999415,834.0071626999415,834.0071626999415,834.0071626999415,834.0071626999415,834.0071626999415,834.0071626999415,834.0071626999415,834.0071626999415,834.0071626999415,834.0071626999415,834.0071626999415,834.0071626999415,834.0071626999415,836.5164737999439,836.5164737999439,836.5164737999439,836.5164737999439,836.5164737999439,47,51,34,72,72,70,5.0,0.7472588999662548,837.2811006000265,839.1931219000835,,,,,,,158,f,25,2023-04-03_15h36.57.828,RL,2022.2.4,60.0712806068355,
1,95,0,95,0,,,,,,,,,,None,839.1931219000835,839.1931219000835,839.1931219000835,839.1931219000835,839.1931219000835,839.1931219000835,j,0.29745629988610744,839.5114007999655,839.5114007999655,839.5114007999655,839.5114007999655,839.5114007999655,839.5114007999655,839.8085096001159,839.8085096001159,841.4538718000986,841.4538718000986,841.4704078000505,841.4704078000505,841.4704078000505,841.4704078000505,841.4704078000505,841.4704078000505,841.4704078000505,841.4704078000505,841.4704078000505,841.4704078000505,841.4704078000505,841.4704078000505,841.4704078000505,841.4704078000505,841.4704078000505,843.9795083999634,843.9795083999634,843.9795083999634,843.9795083999634,843.9795083999634,46,45,25,58,58,55,5.0,1.0296366000548005,845.0267694001086,846.9056283999234,,,,,,,158,f,25,2023-04-03_15h36.57.828,RL,2022.2.4,60.0712806068355,
1,96,0,96,0,,,,,,,,,,None,846.9056283999234,846.9056283999234,846.9056283999234,846.9056283999234,846.9056283999234,846.9056283999234,j,0.3314521999564022,847.2574597999919,847.2574597999919,847.2574597999919,847.2574597999919,847.2574597999919,847.2574597999919,847.5540038000327,847.5540038000327,848.5504232998937,848.5504232998937,848.5504232998937,848.5504232998937,848.5504232998937,848.5504232998937,848.5504232998937,848.5504232998937,848.5504232998937,848.5504232998937,848.5504232998937,848.5504232998937,848.5504232998937,848.5504232998937,848.5504232998937,848.5504232998937,848.5504232998937,851.0601135001052,851.0601135001052,851.0601135001052,851.0601135001052,851.0601135001052,52,43,29,61,61,77,4.0,0.6305446000769734,851.7077937000431,853.2880536001176,,,,,,,158,f,25,2023-04-03_15h36.57.828,RL,2022.2.4,60.0712806068355,
1,97,0,97,0,,,,,,,,,,None,853.2880536001176,853.2880536001176,853.2880536001176,853.2880536001176,853.2880536001176,853.2880536001176,i,0.3025978000368923,853.6224412000738,853.6224412000738,853.6224412000738,853.6224412000738,853.6224412000738,853.6224412000738,853.9197517000139,853.9197517000139,855.8309385001194,855.8309385001194,855.8309385001194,855.8309385001194,855.8309385001194,855.8309385001194,855.8309385001194,855.8309385001194,855.8309385001194,855.8309385001194,855.8309385001194,855.8309385001194,855.8309385001194,855.8309385001194,855.8309385001194,855.8309385001194,855.8309385001194,858.3405468999408,858.3405468999408,858.3405468999408,858.3405468999408,858.3405468999408,42,49,39,62,39,69,3.0,0.7131569001358002,859.0716947999317,860.7672212000471,,,,,,,158,f,25,2023-04-03_15h36.57.828,RL,2022.2.4,60.0712806068355,
1,98,0,98,0,,,,,,,,,,None,860.7672212000471,860.7672212000471,860.7672212000471,860.7672212000471,860.7672212000471,860.7672212000471,i,0.3865118999965489,861.1858496000059,861.1858496000059,861.1858496000059,861.1858496000059,861.1858496000059,861.1858496000059,861.4823370000813,861.4823370000813,863.3941029000562,863.3941029000562,863.3941029000562,863.3941029000562,863.3941029000562,863.3941029000562,863.3941029000562,863.3941029000562,863.3941029000562,863.3941029000562,863.3941029000562,863.3941029000562,863.3941029000562,863.3941029000562,863.3941029000562,863.3941029000562,863.3941029000562,865.9030659999698,865.9030659999698,865.9030659999698,865.9030659999698,865.9030659999698,39,52,31,66,31,32,3.0,0.5310566001571715,866.4515593000688,868.2798874999862,,,,,,,158,f,25,2023-04-03_15h36.57.828,RL,2022.2.4,60.0712806068355,
1,99,0,99,0,,,,,,,,,,None,868.2798874999862,868.2798874999862,868.2798874999862,868.2798874999862,868.2798874999862,868.2798874999862,f,0.5742545002140105,868.8807270999532,868.8807270999532,868.8807270999532,868.8807270999532,868.8807270999532,868.8807270999532,869.178042100044,869.178042100044,870.3085910000373,870.3085910000373,870.3085910000373,870.3085910000373,870.3085910000373,870.3085910000373,870.3085910000373,870.3085910000373,870.3085910000373,870.3085910000373,870.3085910000373,870.3085910000373,870.3085910000373,870.3085910000373,870.3085910000373,870.3085910000373,870.3085910000373,872.8175685999449,872.8175685999449,872.8175685999449,872.8175685999449,872.8175685999449,45,49,33,68,49,70,3.0,0.5152118999976665,873.3493280999828,875.1947608001065,,,,,,,158,f,25,2023-04-03_15h36.57.828,RL,2022.2.4,60.0712806068355,
1,100,0,100,0,,,,,,,,,,None,875.1947608001065,875.1947608001065,875.1947608001065,875.1947608001065,875.1947608001065,875.1947608001065,r,0.3729034001007676,875.5966543001123,875.5966543001123,875.5966543001123,875.5966543001123,875.5966543001123,875.5966543001123,875.8929963000119,875.8929963000119,877.2727073999122,877.2727073999122,877.289578499971,877.289578499971,877.289578499971,877.289578499971,877.289578499971,877.289578499971,877.289578499971,877.289578499971,877.289578499971,877.289578499971,877.289578499971,877.289578499971,877.289578499971,877.289578499971,877.289578499971,879.7983762000222,879.7983762000222,879.7983762000222,879.7983762000222,879.7983762000222,44,52,33,74,44,73,3.0,0.6474927999079227,880.4635012999643,882.1758059998974,,,,,,,158,f,25,2023-04-03_15h36.57.828,RL,2022.2.4,60.0712806068355,
1,101,0,101,0,,,,,,,,,,None,882.1758059998974,882.1758059998974,882.1758059998974,882.1758059998974,882.1758059998974,882.1758059998974,j,0.40500849997624755,882.6116237000097,882.6116237000097,882.6116237000097,882.6116237000097,882.6116237000097,882.6116237000097,882.9075307000894,882.9075307000894,883.7221005999018,883.7221005999018,883.7221005999018,883.7221005999018,883.7221005999018,883.7221005999018,883.7221005999018,883.7221005999018,883.7221005999018,883.7221005999018,883.7221005999018,883.7221005999018,883.7221005999018,883.7221005999018,883.7221005999018,883.7221005999018,883.7221005999018,886.2309787000995,886.2309787000995,886.2309787000995,886.2309787000995,886.2309787000995,44,47,37,64,64,72,4.0,0.4646785999648273,886.7128359000199,888.5584696000442,,,,,,,158,f,25,2023-04-03_15h36.57.828,RL,2022.2.4,60.0712806068355,
1,102,0,102,0,,,,,,,,,,None,888.5584696000442,888.5584696000442,888.5584696000442,888.5584696000442,888.5584696000442,888.5584696000442,j,0.2756250000093132,888.86088069994,888.86088069994,888.86088069994,888.86088069994,888.86088069994,888.86088069994,889.1569099999033,889.1569099999033,890.9686465000268,890.9686465000268,890.9851663999725,890.9851663999725,890.9851663999725,890.9851663999725,890.9851663999725,890.9851663999725,890.9851663999725,890.9851663999725,890.9851663999725,890.9851663999725,890.9851663999725,890.9851663999725,890.9851663999725,890.9851663999725,890.9851663999725,893.4944939999841,893.4944939999841,893.4944939999841,893.4944939999841,893.4944939999841,57,49,35,60,60,48,5.0,0.6638376000337303,894.175748999929,896.0542176999152,,,,,,,158,f,25,2023-04-03_15h36.57.828,RL,2022.2.4,60.0712806068355,
1,103,0,103,0,,,,,,,,,,None,896.0542176999152,896.0542176999152,896.0542176999152,896.0542176999152,896.0542176999152,896.0542176999152,j,0.09229800011962652,896.173712000018,896.173712000018,896.173712000018,896.173712000018,896.173712000018,896.173712000018,896.4705264999066,896.4705264999066,897.6672048000619,897.6672048000619,897.6672048000619,897.6672048000619,897.6672048000619,897.6672048000619,897.6672048000619,897.6672048000619,897.6672048000619,897.6672048000619,897.6672048000619,897.6672048000619,897.6672048000619,897.6672048000619,897.6672048000619,897.6672048000619,897.6672048000619,900.1761036999524,900.1761036999524,900.1761036999524,900.1761036999524,900.1761036999524,51,56,40,72,72,51,5.0,0.48092799982987344,900.6750960999634,902.6866282999981,,,,,,,158,f,25,2023-04-03_15h36.57.828,RL,2022.2.4,60.0712806068355,
1,104,0,104,0,,,,,,,,,,None,902.6866282999981,902.6866282999981,902.6866282999981,902.6866282999981,902.6866282999981,902.6866282999981,j,0.8170024000573903,903.5369571000338,903.5369571000338,903.5369571000338,903.5369571000338,903.5369571000338,903.5369571000338,903.8336147000082,903.8336147000082,905.4291741999332,905.4291741999332,905.4455995999742,905.4455995999742,905.4455995999742,905.4455995999742,905.4455995999742,905.4455995999742,905.4455995999742,905.4455995999742,905.4455995999742,905.4455995999742,905.4455995999742,905.4455995999742,905.4455995999742,905.4455995999742,905.4455995999742,907.9552064999007,907.9552064999007,907.9552064999007,907.9552064999007,907.9552064999007,47,52,33,66,66,54,5.0,0.7288826999720186,908.7020487999544,910.2160191999283,,,,,,,158,f,25,2023-04-03_15h36.57.828,RL,2022.2.4,60.0712806068355,
1,105,0,105,0,,,,,,,,,,None,910.2160191999283,910.2160191999283,910.2160191999283,910.2160191999283,910.2160191999283,910.2160191999283,j,0.45585709996521473,910.7012171999086,910.7012171999086,910.7012171999086,910.7012171999086,910.7012171999086,910.7012171999086,910.9975658999756,910.9975658999756,912.4102354000788,912.4102354000788,912.4102354000788,912.4102354000788,912.4102354000788,912.4102354000788,912.4102354000788,912.4102354000788,912.4102354000788,912.4102354000788,912.4102354000788,912.4102354000788,912.4102354000788,912.4102354000788,912.4102354000788,912.4102354000788,912.4102354000788,914.9192721999716,914.9192721999716,914.9192721999716,914.9192721999716,914.9192721999716,43,56,28,67,67,78,4.0,0.8468191002029926,915.7830666999798,917.2967684001196,,,,,,,158,f,25,2023-04-03_15h36.57.828,RL,2022.2.4,60.0712806068355,
1,106,0,106,0,,,,,,,,,,None,917.2967684001196,917.2967684001196,917.2967684001196,917.2967684001196,917.2967684001196,917.2967684001196,j,0.3129388000816107,917.629890399985,917.629890399985,917.629890399985,917.629890399985,917.629890399985,917.629890399985,917.9285826999694,917.9285826999694,919.1585345999338,919.1585345999338,919.1585345999338,919.1585345999338,919.1585345999338,919.1585345999338,919.1585345999338,919.1585345999338,919.1585345999338,919.1585345999338,919.1585345999338,919.1585345999338,919.1585345999338,919.1585345999338,919.1585345999338,919.1585345999338,919.1585345999338,921.6672489000484,921.6672489000484,921.6672489000484,921.6672489000484,921.6672489000484,39,59,37,71,71,76,5.0,0.864088699920103,922.5484772999771,924.1115693999454,,,,,,,158,f,25,2023-04-03_15h36.57.828,RL,2022.2.4,60.0712806068355,
1,107,0,107,0,,,,,,,,,,None,924.1115693999454,924.1115693999454,924.1115693999454,924.1115693999454,924.1115693999454,924.1115693999454,j,0.277092200005427,924.4122047000565,924.4122047000565,924.4122047000565,924.4122047000565,924.4122047000565,924.4122047000565,924.70978559996,924.70978559996,925.5243162000552,925.5243162000552,925.5243162000552,925.5243162000552,925.5243162000552,925.5243162000552,925.5243162000552,925.5243162000552,925.5243162000552,925.5243162000552,925.5243162000552,925.5243162000552,925.5243162000552,925.5243162000552,925.5243162000552,925.5243162000552,925.5243162000552,928.0330570999067,928.0330570999067,928.0330570999067,928.0330570999067,928.0330570999067,48,54,36,69,69,32,5.0,0.46408409997820854,928.515066199936,930.2613554999698,,,,,,,158,f,25,2023-04-03_15h36.57.828,RL,2022.2.4,60.0712806068355,
1,108,0,108,0,,,,,,,,,,None,930.2613554999698,930.2613554999698,930.2613554999698,930.2613554999698,930.2613554999698,930.2613554999698,j,0.25406210008077323,930.5451406000648,930.5451406000648,930.5451406000648,930.5451406000648,930.5451406000648,930.5451406000648,930.8434202000499,930.8434202000499,931.9904036000371,931.9904036000371,931.9904036000371,931.9904036000371,931.9904036000371,931.9904036000371,931.9904036000371,931.9904036000371,931.9904036000371,931.9904036000371,931.9904036000371,931.9904036000371,931.9904036000371,931.9904036000371,931.9904036000371,931.9904036000371,931.9904036000371,934.4988764999434,934.4988764999434,934.4988764999434,934.4988764999434,934.4988764999434,45,54,28,70,70,33,6.0,0.8139776000753045,935.3302509000059,937.2591184999328,,,,,,,158,f,25,2023-04-03_15h36.57.828,RL,2022.2.4,60.0712806068355,
1,109,0,109,0,,,,,,,,,,None,937.2591184999328,937.2591184999328,937.2591184999328,937.2591184999328,937.2591184999328,937.2591184999328,j,0.4044849001802504,937.6940613999031,937.6940613999031,937.6940613999031,937.6940613999031,937.6940613999031,937.6940613999031,937.9907239000313,937.9907239000313,939.3535412000492,939.3535412000492,939.3535412000492,939.3535412000492,939.3535412000492,939.3535412000492,939.3535412000492,939.3535412000492,939.3535412000492,939.3535412000492,939.3535412000492,939.3535412000492,939.3535412000492,939.3535412000492,939.3535412000492,939.3535412000492,939.3535412000492,941.8622665998992,941.8622665998992,941.8622665998992,941.8622665998992,941.8622665998992,52,49,34,68,68,68,5.0,0.9463389001321048,942.8264131001197,944.6552808000706,,,,,,,158,f,25,2023-04-03_15h36.57.828,RL,2022.2.4,60.0712806068355,
1,110,0,110,0,,,,,,,,,,None,944.6552808000706,944.6552808000706,944.6552808000706,944.6552808000706,944.6552808000706,944.6552808000706,j,0.24222079990431666,944.9224396999925,944.9224396999925,944.9224396999925,944.9224396999925,944.9224396999925,944.9224396999925,945.2207973001059,945.2207973001059,946.4004659999628,946.4004659999628,946.4004659999628,946.4004659999628,946.4004659999628,946.4004659999628,946.4004659999628,946.4004659999628,946.4004659999628,946.4004659999628,946.4004659999628,946.4004659999628,946.4004659999628,946.4004659999628,946.4004659999628,946.4004659999628,946.4004659999628,948.9096896999981,948.9096896999981,948.9096896999981,948.9096896999981,948.9096896999981,49,55,34,65,65,35,6.0,0.5140921000856906,949.4412952000275,951.0047393999994,,,,,,,158,f,25,2023-04-03_15h36.57.828,RL,2022.2.4,60.0712806068355,
1,111,0,111,0,,,,,,,,,,None,951.0047393999994,951.0047393999994,951.0047393999994,951.0047393999994,951.0047393999994,951.0047393999994,j,0.224865100113675,951.256823200034,951.256823200034,951.256823200034,951.256823200034,951.256823200034,951.256823200034,951.5536487000063,951.5536487000063,952.5502975999843,952.5502975999843,952.5672778999433,952.5672778999433,952.5672778999433,952.5672778999433,952.5672778999433,952.5672778999433,952.5672778999433,952.5672778999433,952.5672778999433,952.5672778999433,952.5672778999433,952.5672778999433,952.5672778999433,952.5672778999433,952.5672778999433,955.0759614000563,955.0759614000563,955.0759614000563,955.0759614000563,955.0759614000563,49,57,34,73,73,70,5.0,0.38157289987429976,955.4753503000829,957.2877086000517,,,,,,,158,f,25,2023-04-03_15h36.57.828,RL,2022.2.4,60.0712806068355,
1,112,0,112,0,,,,,,,,,,None,957.2877086000517,957.2877086000517,957.2877086000517,957.2877086000517,957.2877086000517,957.2877086000517,j,0.3414227000903338,957.6555371000431,957.6555371000431,957.6555371000431,957.6555371000431,957.6555371000431,957.6555371000431,957.9526851000264,957.9526851000264,958.9828075999394,958.9828075999394,958.9828075999394,958.9828075999394,958.9828075999394,958.9828075999394,958.9828075999394,958.9828075999394,958.9828075999394,958.9828075999394,958.9828075999394,958.9828075999394,958.9828075999394,958.9828075999394,958.9828075999394,958.9828075999394,958.9828075999394,961.492420699913,961.492420699913,961.492420699913,961.492420699913,961.492420699913,57,53,34,72,72,34,6.0,0.6975840001832694,962.2069236999378,964.2022794999648,,,,,,,158,f,25,2023-04-03_15h36.57.828,RL,2022.2.4,60.0712806068355,
1,113,0,113,0,,,,,,,,,,None,964.2022794999648,964.2022794999648,964.2022794999648,964.2022794999648,964.2022794999648,964.2022794999648,j,0.2396199000068009,964.4710075000767,964.4710075000767,964.4710075000767,964.4710075000767,964.4710075000767,964.4710075000767,964.7670833999291,964.7670833999291,966.5790929999202,966.5790929999202,966.5790929999202,966.5790929999202,966.5790929999202,966.5790929999202,966.5790929999202,966.5790929999202,966.5790929999202,966.5790929999202,966.5790929999202,966.5790929999202,966.5790929999202,966.5790929999202,966.5790929999202,966.5790929999202,966.5790929999202,969.0880758999847,969.0880758999847,969.0880758999847,969.0880758999847,969.0880758999847,55,59,28,65,65,69,5.0,0.597875899868086,969.7031590000261,971.4985245999414,,,,,,,158,f,25,2023-04-03_15h36.57.828,RL,2022.2.4,60.0712806068355,
1,114,0,114,0,,,,,,,,,,None,971.4985245999414,971.4985245999414,971.4985245999414,971.4985245999414,971.4985245999414,971.4985245999414,j,0.48577199992723763,972.0163066000678,972.0163066000678,972.0163066000678,972.0163066000678,972.0163066000678,972.0163066000678,972.3132974999025,972.3132974999025,973.2111204001121,973.2111204001121,973.2111204001121,973.2111204001121,973.2111204001121,973.2111204001121,973.2111204001121,973.2111204001121,973.2111204001121,973.2111204001121,973.2111204001121,973.2111204001121,973.2111204001121,973.2111204001121,973.2111204001121,973.2111204001121,973.2111204001121,975.7198236000258,975.7198236000258,975.7198236000258,975.7198236000258,975.7198236000258,58,55,34,51,51,76,4.0,0.5802726000547409,976.3183705001138,978.1138893000316,,,,,,,158,f,25,2023-04-03_15h36.57.828,RL,2022.2.4,60.0712806068355,
1,115,0,115,0,,,,,,,,,,None,978.1138893000316,978.1138893000316,978.1138893000316,978.1138893000316,978.1138893000316,978.1138893000316,j,0.2795963999815285,978.4140870999545,978.4140870999545,978.4140870999545,978.4140870999545,978.4140870999545,978.4140870999545,978.7126102999318,978.7126102999318,980.2085319000762,980.2085319000762,980.2085319000762,980.2085319000762,980.2085319000762,980.2085319000762,980.2085319000762,980.2085319000762,980.2085319000762,980.2085319000762,980.2085319000762,980.2085319000762,980.2085319000762,980.2085319000762,980.2085319000762,980.2085319000762,980.2085319000762,982.7173518000636,982.7173518000636,982.7173518000636,982.7173518000636,982.7173518000636,59,57,38,62,62,69,4.0,0.5642285000067204,983.2995873000473,985.2779055000283,,,,,,,158,f,25,2023-04-03_15h36.57.828,RL,2022.2.4,60.0712806068355,
