bandit,trials.thisRepN,trials.thisTrialN,trials.thisN,trials.thisIndex,instru_img1.started,instru_resp.started,instru_resp.keys,instru_resp.rt,instru_img2.started,instru_resp2.started,instru_resp2.keys,instru_resp2.rt,fixbefore_2.started,rest_response.keys,red.started,green.started,yellow.started,blue.started,choose_bandit.started,Fixation.started,choose_bandit.keys,choose_bandit.rt,black.started,red_2.started,green_2.started,yellow_2.started,blue_2.started,fixation_2.started,docs.started,image_2.started,docs.stopped,image_2.stopped,black.stopped,red_2.stopped,green_2.stopped,yellow_2.stopped,blue_2.stopped,fixation_2.stopped,black_com.started,reward_sub.started,palyerb.started,reward__sub.started,compare.started,red_compare.started,green_com.started,yellow_com.started,blue_com.started,image_3.started,slider.started,text.started,image_4.started,image_5.started,rewardyellow,rewardred,rewardblue,rewardgreen,subchoose,playerb,slider.response,slider.rt,intertrialfix.started,intertrialfix.stopped,bigx.started,bigx.stopped,rest_image.started,rest_response.started,rest_response.rt,image.started,key_resp.started,key_resp.keys,participant,Gender,Age,date,expName,psychopyVersion,frameRate,
,,,,,34.39274020004086,34.39274020004086,space,26.179903600132093,,,,,,,,,,,,,,,,,,,,,,,,,,,,,,,,,,,,,,,,,,,,,,,,,,,,,,,,,,,,,,,159,f,1,2023-04-03_16h41.18.569,RL,2022.2.4,60.34376640086161,
,,,,,,,,,60.60945630003698,60.60945630003698,y,37.97647210001014,,,,,,,,,,,,,,,,,,,,,,,,,,,,,,,,,,,,,,,,,,,,,,,,,,,,,,,,,,,159,f,1,2023-04-03_16h41.18.569,RL,2022.2.4,60.34376640086161,
1,0,0,0,0,,,,,,,,,98.61616390012205,None,99.63151560002007,99.63151560002007,99.63151560002007,99.63151560002007,99.63151560002007,99.63151560002007,f,0.5484585999511182,100.22647049999796,100.22647049999796,100.22647049999796,100.22647049999796,100.22647049999796,100.22647049999796,100.51216670009308,100.51216670009308,101.74202380003408,101.74202380003408,101.76110549992882,101.76110549992882,101.76110549992882,101.76110549992882,101.76110549992882,101.76110549992882,101.76110549992882,101.76110549992882,101.76110549992882,101.76110549992882,101.76110549992882,101.76110549992882,101.76110549992882,101.76110549992882,101.76110549992882,104.26815750007518,104.26815750007518,104.26815750007518,104.26815750007518,104.26815750007518,64,54,28,40,54,74,5.0,2.010406000073999,106.3375605000183,108.10798320011236,,,,,,,,,159,f,1,2023-04-03_16h41.18.569,RL,2022.2.4,60.34376640086161,
1,1,0,1,0,,,,,,,,,,None,108.10798320011236,108.10798320011236,108.10798320011236,108.10798320011236,108.10798320011236,108.10798320011236,r,0.2688790999818593,108.4085377000738,108.4085377000738,108.4085377000738,108.4085377000738,108.4085377000738,108.4085377000738,108.70665489998646,108.70665489998646,110.700461700093,110.700461700093,110.700461700093,110.700461700093,110.700461700093,110.700461700093,110.700461700093,110.700461700093,110.700461700093,110.700461700093,110.700461700093,110.700461700093,110.700461700093,110.700461700093,110.700461700093,110.700461700093,110.700461700093,113.21018739999272,113.21018739999272,113.21018739999272,113.21018739999272,113.21018739999272,56,67,28,34,56,42,5.0,1.1624113998841494,114.38979479996487,116.23605720000342,,,,,,,,,159,f,1,2023-04-03_16h41.18.569,RL,2022.2.4,60.34376640086161,
1,2,0,2,0,,,,,,,,,,None,116.23605720000342,116.23605720000342,116.23605720000342,116.23605720000342,116.23605720000342,116.23605720000342,i,0.3638689999934286,116.62207160005346,116.62207160005346,116.62207160005346,116.62207160005346,116.62207160005346,116.62207160005346,116.91768559999764,116.91768559999764,118.26358180004172,118.26358180004172,118.28045399999246,118.28045399999246,118.28045399999246,118.28045399999246,118.28045399999246,118.28045399999246,118.28045399999246,118.28045399999246,118.28045399999246,118.28045399999246,118.28045399999246,118.28045399999246,118.28045399999246,118.28045399999246,118.28045399999246,120.78922319994308,120.78922319994308,120.78922319994308,120.78922319994308,120.78922319994308,53,75,26,32,26,62,3.0,1.1621279001701623,121.9694232000038,123.79859529994428,,,,,,,,,159,f,1,2023-04-03_16h41.18.569,RL,2022.2.4,60.34376640086161,
1,3,0,3,0,,,,,,,,,,None,123.79859529994428,123.79859529994428,123.79859529994428,123.79859529994428,123.79859529994428,123.79859529994428,j,0.3156804998870939,124.14776120008901,124.14776120008901,124.14776120008901,124.14776120008901,124.14776120008901,124.14776120008901,124.44701729994267,124.44701729994267,125.77654170012102,125.77654170012102,125.77654170012102,125.77654170012102,125.77654170012102,125.77654170012102,125.77654170012102,125.77654170012102,125.77654170012102,125.77654170012102,125.77654170012102,125.77654170012102,125.77654170012102,125.77654170012102,125.77654170012102,125.77654170012102,125.77654170012102,128.28565099998377,128.28565099998377,128.28565099998377,128.28565099998377,128.28565099998377,63,64,31,36,36,46,3.0,1.1127288998104632,129.41549769998528,131.41086219996214,,,,,,,,,159,f,1,2023-04-03_16h41.18.569,RL,2022.2.4,60.34376640086161,
1,4,0,4,0,,,,,,,,,,None,131.41086219996214,131.41086219996214,131.41086219996214,131.41086219996214,131.41086219996214,131.41086219996214,f,0.29126799991354346,131.72931600012816,131.72931600012816,131.72931600012816,131.72931600012816,131.72931600012816,131.72931600012816,132.02600420010276,132.02600420010276,133.73767119995318,133.73767119995318,133.73767119995318,133.73767119995318,133.73767119995318,133.73767119995318,133.73767119995318,133.73767119995318,133.73767119995318,133.73767119995318,133.73767119995318,133.73767119995318,133.73767119995318,133.73767119995318,133.73767119995318,133.73767119995318,133.73767119995318,136.24714759993367,136.24714759993367,136.24714759993367,136.24714759993367,136.24714759993367,61,69,31,44,69,74,4.0,0.9133452998939902,137.17811230011284,138.92384020006284,,,,,,,,,159,f,1,2023-04-03_16h41.18.569,RL,2022.2.4,60.34376640086161,
1,5,0,5,0,,,,,,,,,,None,138.92384020006284,138.92384020006284,138.92384020006284,138.92384020006284,138.92384020006284,138.92384020006284,f,0.36250009993091226,139.30848639993928,139.30848639993928,139.30848639993928,139.30848639993928,139.30848639993928,139.30848639993928,139.60523580014706,139.60523580014706,141.28409130009823,141.28409130009823,141.3002228999976,141.3002228999976,141.3002228999976,141.3002228999976,141.3002228999976,141.3002228999976,141.3002228999976,141.3002228999976,141.3002228999976,141.3002228999976,141.3002228999976,141.3002228999976,141.3002228999976,141.3002228999976,141.3002228999976,143.80988920014352,143.80988920014352,143.80988920014352,143.80988920014352,143.80988920014352,56,69,36,39,69,68,5.0,0.9797366000711918,144.80725830001757,146.32032490009442,,,,,,,,,159,f,1,2023-04-03_16h41.18.569,RL,2022.2.4,60.34376640086161,
1,6,0,6,0,,,,,,,,,,None,146.32032490009442,146.32032490009442,146.32032490009442,146.32032490009442,146.32032490009442,146.32032490009442,f,0.7503245999105275,147.10515560000204,147.10515560000204,147.10515560000204,147.10515560000204,147.10515560000204,147.10515560000204,147.40093430015258,147.40093430015258,148.44790140003897,148.44790140003897,148.44790140003897,148.44790140003897,148.44790140003897,148.44790140003897,148.44790140003897,148.44790140003897,148.44790140003897,148.44790140003897,148.44790140003897,148.44790140003897,148.44790140003897,148.44790140003897,148.44790140003897,148.44790140003897,148.44790140003897,150.9570075001102,150.9570075001102,150.9570075001102,150.9570075001102,150.9570075001102,57,64,34,36,64,58,7.0,1.129568099975586,152.10345880012028,153.79995990009047,,,,,,,,,159,f,1,2023-04-03_16h41.18.569,RL,2022.2.4,60.34376640086161,
1,7,0,7,0,,,,,,,,,,None,153.79995990009047,153.79995990009047,153.79995990009047,153.79995990009047,153.79995990009047,153.79995990009047,f,0.6084148001391441,154.43114240001887,154.43114240001887,154.43114240001887,154.43114240001887,154.43114240001887,154.43114240001887,154.73068829998374,154.73068829998374,156.34328979998827,156.34328979998827,156.34328979998827,156.34328979998827,156.34328979998827,156.34328979998827,156.34328979998827,156.34328979998827,156.34328979998827,156.34328979998827,156.34328979998827,156.34328979998827,156.34328979998827,156.34328979998827,156.34328979998827,156.34328979998827,156.34328979998827,158.8519254999701,158.8519254999701,158.8519254999701,158.8519254999701,158.8519254999701,58,59,39,37,59,38,7.0,0.7804199000820518,159.64984670002013,161.57884029997513,,,,,,,,,159,f,1,2023-04-03_16h41.18.569,RL,2022.2.4,60.34376640086161,
1,8,0,8,0,,,,,,,,,,None,161.57884029997513,161.57884029997513,161.57884029997513,161.57884029997513,161.57884029997513,161.57884029997513,f,0.3041393000166863,161.91271660011262,161.91271660011262,161.91271660011262,161.91271660011262,161.91271660011262,161.91271660011262,162.21055660001002,162.21055660001002,163.68941670004278,163.68941670004278,163.7063343001064,163.7063343001064,163.7063343001064,163.7063343001064,163.7063343001064,163.7063343001064,163.7063343001064,163.7063343001064,163.7063343001064,163.7063343001064,163.7063343001064,163.7063343001064,163.7063343001064,163.7063343001064,163.7063343001064,166.21515509998426,166.21515509998426,166.21515509998426,166.21515509998426,166.21515509998426,57,62,33,35,62,68,3.0,1.8270482998341322,168.06051370012574,169.8229724999983,,,,,,,,,159,f,1,2023-04-03_16h41.18.569,RL,2022.2.4,60.34376640086161,
1,9,0,9,0,,,,,,,,,,None,169.8229724999983,169.8229724999983,169.8229724999983,169.8229724999983,169.8229724999983,169.8229724999983,f,0.2883642998058349,170.14223699993454,170.14223699993454,170.14223699993454,170.14223699993454,170.14223699993454,170.14223699993454,170.438067200128,170.438067200128,171.93394530005753,171.93394530005753,171.93394530005753,171.93394530005753,171.93394530005753,171.93394530005753,171.93394530005753,171.93394530005753,171.93394530005753,171.93394530005753,171.93394530005753,171.93394530005753,171.93394530005753,171.93394530005753,171.93394530005753,171.93394530005753,171.93394530005753,174.4424932000693,174.4424932000693,174.4424932000693,174.4424932000693,174.4424932000693,45,62,43,28,62,83,2.0,1.8776859000790864,176.33746980014257,178.0340696000494,,,,,,,,,159,f,1,2023-04-03_16h41.18.569,RL,2022.2.4,60.34376640086161,
1,10,0,10,0,,,,,,,,,,None,178.0340696000494,178.0340696000494,178.0340696000494,178.0340696000494,178.0340696000494,178.0340696000494,r,0.3741004001349211,178.43610920011997,178.43610920011997,178.43610920011997,178.43610920011997,178.43610920011997,178.43610920011997,178.7321381000802,178.7321381000802,180.57716950005852,180.57716950005852,180.57716950005852,180.57716950005852,180.57716950005852,180.57716950005852,180.57716950005852,180.57716950005852,180.57716950005852,180.57716950005852,180.57716950005852,180.57716950005852,180.57716950005852,180.57716950005852,180.57716950005852,180.57716950005852,180.57716950005852,183.0863407999277,183.0863407999277,183.0863407999277,183.0863407999277,183.0863407999277,58,60,43,32,58,62,3.0,1.1960956999100745,184.2991909000557,186.0784915999975,,,,,,,,,159,f,1,2023-04-03_16h41.18.569,RL,2022.2.4,60.34376640086161,
1,11,0,11,0,,,,,,,,,,None,186.0784915999975,186.0784915999975,186.0784915999975,186.0784915999975,186.0784915999975,186.0784915999975,i,0.31305220001377165,186.41372560011223,186.41372560011223,186.41372560011223,186.41372560011223,186.41372560011223,186.41372560011223,186.71016320004128,186.71016320004128,188.2895714000333,188.2895714000333,188.30606620013714,188.30606620013714,188.30606620013714,188.30606620013714,188.30606620013714,188.30606620013714,188.30606620013714,188.30606620013714,188.30606620013714,188.30606620013714,188.30606620013714,188.30606620013714,188.30606620013714,188.30606620013714,188.30606620013714,190.81505430000834,190.81505430000834,190.81505430000834,190.81505430000834,190.81505430000834,62,55,48,23,48,68,1.0,0.547899299999699,191.3801852001343,193.1096163999755,,,,,,,,,159,f,1,2023-04-03_16h41.18.569,RL,2022.2.4,60.34376640086161,
1,12,0,12,0,,,,,,,,,,None,193.1096163999755,193.1096163999755,193.1096163999755,193.1096163999755,193.1096163999755,193.1096163999755,j,0.32088769995607436,193.4627729000058,193.4627729000058,193.4627729000058,193.4627729000058,193.4627729000058,193.4627729000058,193.7578847000841,193.7578847000841,195.02063130005263,195.02063130005263,195.0373397001531,195.0373397001531,195.0373397001531,195.0373397001531,195.0373397001531,195.0373397001531,195.0373397001531,195.0373397001531,195.0373397001531,195.0373397001531,195.0373397001531,195.0373397001531,195.0373397001531,195.0373397001531,195.0373397001531,197.54657929996029,197.54657929996029,197.54657929996029,197.54657929996029,197.54657929996029,57,60,42,34,34,73,2.0,2.6913393000140786,200.2559875000734,202.01838700007647,,,,,,,,,159,f,1,2023-04-03_16h41.18.569,RL,2022.2.4,60.34376640086161,
1,13,0,13,0,,,,,,,,,,None,202.01838700007647,202.01838700007647,202.01838700007647,202.01838700007647,202.01838700007647,202.01838700007647,f,0.47465749992989004,202.51987830013968,202.51987830013968,202.51987830013968,202.51987830013968,202.51987830013968,202.51987830013968,202.81613519997336,202.81613519997336,204.09581069997512,204.09581069997512,204.09581069997512,204.09581069997512,204.09581069997512,204.09581069997512,204.09581069997512,204.09581069997512,204.09581069997512,204.09581069997512,204.09581069997512,204.09581069997512,204.09581069997512,204.09581069997512,204.09581069997512,204.09581069997512,204.09581069997512,206.60484980000183,206.60484980000183,206.60484980000183,206.60484980000183,206.60484980000183,48,53,47,25,53,70,4.0,0.06491470010951161,206.68834999995306,208.50062850001268,,,,,,,,,159,f,1,2023-04-03_16h41.18.569,RL,2022.2.4,60.34376640086161,
1,14,0,14,0,,,,,,,,,,None,208.50062850001268,208.50062850001268,208.50062850001268,208.50062850001268,208.50062850001268,208.50062850001268,f,0.406305099837482,208.9360605000984,208.9360605000984,208.9360605000984,208.9360605000984,208.9360605000984,208.9360605000984,209.23225650005043,209.23225650005043,211.16003250004724,211.16003250004724,211.16003250004724,211.16003250004724,211.16003250004724,211.16003250004724,211.16003250004724,211.16003250004724,211.16003250004724,211.16003250004724,211.16003250004724,211.16003250004724,211.16003250004724,211.16003250004724,211.16003250004724,211.16003250004724,211.16003250004724,213.66914819995873,213.66914819995873,213.66914819995873,213.66914819995873,213.66914819995873,55,53,51,31,53,72,4.0,2.3921878000255674,216.07908189995214,218.05772710009478,,,,,,,,,159,f,1,2023-04-03_16h41.18.569,RL,2022.2.4,60.34376640086161,
1,15,0,15,0,,,,,,,,,,None,218.05772710009478,218.05772710009478,218.05772710009478,218.05772710009478,218.05772710009478,218.05772710009478,i,0.3713324998971075,218.46060440014116,218.46060440014116,218.46060440014116,218.46060440014116,218.46060440014116,218.46060440014116,218.75630840007216,218.75630840007216,220.7341573999729,220.7341573999729,220.7341573999729,220.7341573999729,220.7341573999729,220.7341573999729,220.7341573999729,220.7341573999729,220.7341573999729,220.7341573999729,220.7341573999729,220.7341573999729,220.7341573999729,220.7341573999729,220.7341573999729,220.7341573999729,220.7341573999729,223.2425822999794,223.2425822999794,223.2425822999794,223.2425822999794,223.2425822999794,49,47,54,26,54,75,1.0,0.6474618997890502,223.90816029999405,225.50427599996328,,,,,,,,,159,f,1,2023-04-03_16h41.18.569,RL,2022.2.4,60.34376640086161,
1,16,0,16,0,,,,,,,,,,None,225.50427599996328,225.50427599996328,225.50427599996328,225.50427599996328,225.50427599996328,225.50427599996328,j,0.3287283999379724,225.85477839992382,225.85477839992382,225.85477839992382,225.85477839992382,225.85477839992382,225.85477839992382,226.15247680014,226.15247680014,227.83119980012998,227.83119980012998,227.83119980012998,227.83119980012998,227.83119980012998,227.83119980012998,227.83119980012998,227.83119980012998,227.83119980012998,227.83119980012998,227.83119980012998,227.83119980012998,227.83119980012998,227.83119980012998,227.83119980012998,227.83119980012998,227.83119980012998,230.34069070010446,230.34069070010446,230.34069070010446,230.34069070010446,230.34069070010446,54,46,47,26,26,51,2.0,0.6632451000623405,231.02204720000736,232.75129169994034,,,,,,,,,159,f,1,2023-04-03_16h41.18.569,RL,2022.2.4,60.34376640086161,
1,17,0,17,0,,,,,,,,,,None,232.75129169994034,232.75129169994034,232.75129169994034,232.75129169994034,232.75129169994034,232.75129169994034,f,0.43000719998963177,233.20325309992768,233.20325309992768,233.20325309992768,233.20325309992768,233.20325309992768,233.20325309992768,233.49904510006309,233.49904510006309,235.22761570010334,235.22761570010334,235.22761570010334,235.22761570010334,235.22761570010334,235.22761570010334,235.22761570010334,235.22761570010334,235.22761570010334,235.22761570010334,235.22761570010334,235.22761570010334,235.22761570010334,235.22761570010334,235.22761570010334,235.22761570010334,235.22761570010334,237.73669619997963,237.73669619997963,237.73669619997963,237.73669619997963,237.73669619997963,57,51,53,21,51,73,1.0,1.0294582000933588,238.78403070010245,240.4801324000582,,,,,,,,,159,f,1,2023-04-03_16h41.18.569,RL,2022.2.4,60.34376640086161,
1,18,0,18,0,,,,,,,,,,None,240.4801324000582,240.4801324000582,240.4801324000582,240.4801324000582,240.4801324000582,240.4801324000582,f,0.31447049998678267,240.81504369992763,240.81504369992763,240.81504369992763,240.81504369992763,240.81504369992763,240.81504369992763,241.11197620001622,241.11197620001622,242.94013400003314,242.94013400003314,242.94013400003314,242.94013400003314,242.94013400003314,242.94013400003314,242.94013400003314,242.94013400003314,242.94013400003314,242.94013400003314,242.94013400003314,242.94013400003314,242.94013400003314,242.94013400003314,242.94013400003314,242.94013400003314,242.94013400003314,245.44918260001577,245.44918260001577,245.44918260001577,245.44918260001577,245.44918260001577,49,52,55,16,52,78,1.0,0.679960299981758,246.1470008001197,248.0928184001241,,,,,,,,,159,f,1,2023-04-03_16h41.18.569,RL,2022.2.4,60.34376640086161,
1,19,0,19,0,,,,,,,,,,None,248.0928184001241,248.0928184001241,248.0928184001241,248.0928184001241,248.0928184001241,248.0928184001241,f,0.4111361999530345,248.52748330007307,248.52748330007307,248.52748330007307,248.52748330007307,248.52748330007307,248.52748330007307,248.82383719994687,248.82383719994687,249.6553265999537,249.6553265999537,249.6553265999537,249.6553265999537,249.6553265999537,249.6553265999537,249.6553265999537,249.6553265999537,249.6553265999537,249.6553265999537,249.6553265999537,249.6553265999537,249.6553265999537,249.6553265999537,249.6553265999537,249.6553265999537,249.6553265999537,252.16412810003385,252.16412810003385,252.16412810003385,252.16412810003385,252.16412810003385,45,47,53,10,47,62,3.0,0.6638023001141846,252.8455658000894,254.45852839993313,,,,,,,,,159,f,1,2023-04-03_16h41.18.569,RL,2022.2.4,60.34376640086161,
1,20,0,20,0,,,,,,,,,,None,254.45852839993313,254.45852839993313,254.45852839993313,254.45852839993313,254.45852839993313,254.45852839993313,f,0.3193713000509888,254.808921799995,254.808921799995,254.808921799995,254.808921799995,254.808921799995,254.808921799995,255.10714279999956,255.10714279999956,256.80283619998954,256.80283619998954,256.80283619998954,256.80283619998954,256.80283619998954,256.80283619998954,256.80283619998954,256.80283619998954,256.80283619998954,256.80283619998954,256.80283619998954,256.80283619998954,256.80283619998954,256.80283619998954,256.80283619998954,256.80283619998954,256.80283619998954,259.3113140000496,259.3113140000496,259.3113140000496,259.3113140000496,259.3113140000496,52,46,40,19,46,41,5.0,1.8436020000372082,261.1728890000377,262.9351856999565,,,,,,,,,159,f,1,2023-04-03_16h41.18.569,RL,2022.2.4,60.34376640086161,
1,21,0,21,0,,,,,,,,,,None,262.9351856999565,262.9351856999565,262.9351856999565,262.9351856999565,262.9351856999565,262.9351856999565,f,0.4279161000158638,263.38694060011767,263.38694060011767,263.38694060011767,263.38694060011767,263.38694060011767,263.38694060011767,263.6836002001073,263.6836002001073,265.6780550000258,265.6780550000258,265.69497580011375,265.69497580011375,265.69497580011375,265.69497580011375,265.69497580011375,265.69497580011375,265.69497580011375,265.69497580011375,265.69497580011375,265.69497580011375,265.69497580011375,265.69497580011375,265.69497580011375,265.69497580011375,265.69497580011375,268.2033752000425,268.2033752000425,268.2033752000425,268.2033752000425,268.2033752000425,52,58,44,15,58,69,6.0,1.0124282001052052,269.2344537000172,271.0129523000214,,,,,,,,,159,f,1,2023-04-03_16h41.18.569,RL,2022.2.4,60.34376640086161,
1,22,0,22,0,,,,,,,,,,None,271.0129523000214,271.0129523000214,271.0129523000214,271.0129523000214,271.0129523000214,271.0129523000214,f,0.2815215999726206,271.3157879000064,271.3157879000064,271.3157879000064,271.3157879000064,271.3157879000064,271.3157879000064,271.61194920004345,271.61194920004345,273.4400297999382,273.4400297999382,273.4400297999382,273.4400297999382,273.4400297999382,273.4400297999382,273.4400297999382,273.4400297999382,273.4400297999382,273.4400297999382,273.4400297999382,273.4400297999382,273.4400297999382,273.4400297999382,273.4400297999382,273.4400297999382,273.4400297999382,275.94874750007875,275.94874750007875,275.94874750007875,275.94874750007875,275.94874750007875,46,53,40,24,53,59,3.0,0.43074139999225736,276.39810699992813,278.1106994000729,,,,,,,,,159,f,1,2023-04-03_16h41.18.569,RL,2022.2.4,60.34376640086161,
1,23,0,23,0,,,,,,,,,,None,278.1106994000729,278.1106994000729,278.1106994000729,278.1106994000729,278.1106994000729,278.1106994000729,f,0.24333959980867803,278.3790194999892,278.3790194999892,278.3790194999892,278.3790194999892,278.3790194999892,278.3790194999892,278.67609270010144,278.67609270010144,279.7895899999421,279.7895899999421,279.7895899999421,279.7895899999421,279.7895899999421,279.7895899999421,279.7895899999421,279.7895899999421,279.7895899999421,279.7895899999421,279.7895899999421,279.7895899999421,279.7895899999421,279.7895899999421,279.7895899999421,279.7895899999421,279.7895899999421,282.2982962001115,282.2982962001115,282.2982962001115,282.2982962001115,282.2982962001115,54,62,37,12,62,64,1.0,0.8134318999946117,283.12978500011377,284.70927789993584,,,,,,,,,159,f,1,2023-04-03_16h41.18.569,RL,2022.2.4,60.34376640086161,
1,24,0,24,0,,,,,,,,,,None,284.70927789993584,284.70927789993584,284.70927789993584,284.70927789993584,284.70927789993584,284.70927789993584,f,0.34345590020529926,285.07669780007564,285.07669780007564,285.07669780007564,285.07669780007564,285.07669780007564,285.07669780007564,285.37453080015257,285.37453080015257,286.5382441000547,286.5382441000547,286.5382441000547,286.5382441000547,286.5382441000547,286.5382441000547,286.5382441000547,286.5382441000547,286.5382441000547,286.5382441000547,286.5382441000547,286.5382441000547,286.5382441000547,286.5382441000547,286.5382441000547,286.5382441000547,286.5382441000547,289.04697389993817,289.04697389993817,289.04697389993817,289.04697389993817,289.04697389993817,54,54,37,11,54,76,4.0,0.5798496000934392,289.6451759999618,291.49111910001375,,,,,,,,,159,f,1,2023-04-03_16h41.18.569,RL,2022.2.4,60.34376640086161,
1,25,0,25,0,,,,,,,,,,None,291.49111910001375,291.49111910001375,291.49111910001375,291.49111910001375,291.49111910001375,291.49111910001375,r,0.026385300094261765,291.54389080009423,291.54389080009423,291.54389080009423,291.54389080009423,291.54389080009423,291.54389080009423,291.84005729993805,291.84005729993805,293.23629199992865,293.23629199992865,293.23629199992865,293.23629199992865,293.23629199992865,293.23629199992865,293.23629199992865,293.23629199992865,293.23629199992865,293.23629199992865,293.23629199992865,293.23629199992865,293.23629199992865,293.23629199992865,293.23629199992865,293.23629199992865,293.23629199992865,295.74542009993456,295.74542009993456,295.74542009993456,295.74542009993456,295.74542009993456,45,57,33,12,45,66,4.0,0.9470832999795675,296.7092126000207,298.5713196999859,,,,,,,,,159,f,1,2023-04-03_16h41.18.569,RL,2022.2.4,60.34376640086161,
1,26,0,26,0,,,,,,,,,,None,298.5713196999859,298.5713196999859,298.5713196999859,298.5713196999859,298.5713196999859,298.5713196999859,f,0.2500877999700606,298.8547760001384,298.8547760001384,298.8547760001384,298.8547760001384,298.8547760001384,298.8547760001384,299.1533337000292,299.1533337000292,300.4167627999559,300.4167627999559,300.4167627999559,300.4167627999559,300.4167627999559,300.4167627999559,300.4167627999559,300.4167627999559,300.4167627999559,300.4167627999559,300.4167627999559,300.4167627999559,300.4167627999559,300.4167627999559,300.4167627999559,300.4167627999559,300.4167627999559,302.9256035001017,302.9256035001017,302.9256035001017,302.9256035001017,302.9256035001017,48,53,29,20,53,52,1.0,0.6967277000658214,303.6406821999699,305.5524220999796,,,,,,,,,159,f,1,2023-04-03_16h41.18.569,RL,2022.2.4,60.34376640086161,
1,27,0,27,0,,,,,,,,,,None,305.5524220999796,305.5524220999796,305.5524220999796,305.5524220999796,305.5524220999796,305.5524220999796,f,0.10283310012891889,305.6885852001142,305.6885852001142,305.6885852001142,305.6885852001142,305.6885852001142,305.6885852001142,305.98488380014896,305.98488380014896,307.86324129998684,307.86324129998684,307.86324129998684,307.86324129998684,307.86324129998684,307.86324129998684,307.86324129998684,307.86324129998684,307.86324129998684,307.86324129998684,307.86324129998684,307.86324129998684,307.86324129998684,307.86324129998684,307.86324129998684,307.86324129998684,307.86324129998684,310.3721551001072,310.3721551001072,310.3721551001072,310.3721551001072,310.3721551001072,52,51,32,21,51,65,1.0,1.6611264999955893,312.0507480001543,313.61401639995165,,,,,,,,,159,f,1,2023-04-03_16h41.18.569,RL,2022.2.4,60.34376640086161,
1,28,0,28,0,,,,,,,,,,None,313.61401639995165,313.61401639995165,313.61401639995165,313.61401639995165,313.61401639995165,313.61401639995165,f,0.306388899916783,313.9496351000853,313.9496351000853,313.9496351000853,313.9496351000853,313.9496351000853,313.9496351000853,314.24573710002005,314.24573710002005,315.32593369996175,315.32593369996175,315.32593369996175,315.32593369996175,315.32593369996175,315.32593369996175,315.32593369996175,315.32593369996175,315.32593369996175,315.32593369996175,315.32593369996175,315.32593369996175,315.32593369996175,315.32593369996175,315.32593369996175,315.32593369996175,315.32593369996175,317.83475610008463,317.83475610008463,317.83475610008463,317.83475610008463,317.83475610008463,39,65,39,22,65,48,2.0,0.131125999847427,317.9844935000874,319.5309665999375,,,,,,,,,159,f,1,2023-04-03_16h41.18.569,RL,2022.2.4,60.34376640086161,
1,29,0,29,0,,,,,,,,,,None,319.5309665999375,319.5309665999375,319.5309665999375,319.5309665999375,319.5309665999375,319.5309665999375,f,0.5276349000632763,320.081966600148,320.081966600148,320.081966600148,320.081966600148,320.081966600148,320.081966600148,320.3791319001466,320.3791319001466,321.60862300009467,321.60862300009467,321.60862300009467,321.60862300009467,321.60862300009467,321.60862300009467,321.60862300009467,321.60862300009467,321.60862300009467,321.60862300009467,321.60862300009467,321.60862300009467,321.60862300009467,321.60862300009467,321.60862300009467,321.60862300009467,321.60862300009467,324.11802299995907,324.11802299995907,324.11802299995907,324.11802299995907,324.11802299995907,51,61,34,16,61,69,1.0,0.5146169001236558,324.649796300102,326.1962015000172,,,,,,,,,159,f,1,2023-04-03_16h41.18.569,RL,2022.2.4,60.34376640086161,
1,30,0,30,0,,,,,,,,,,None,326.1962015000172,326.1962015000172,326.1962015000172,326.1962015000172,326.1962015000172,326.1962015000172,f,0.4266802999190986,326.6472517999355,326.6472517999355,326.6472517999355,326.6472517999355,326.6472517999355,326.6472517999355,326.9440357000567,326.9440357000567,328.4569342001341,328.4569342001341,328.4569342001341,328.4569342001341,328.4569342001341,328.4569342001341,328.4569342001341,328.4569342001341,328.4569342001341,328.4569342001341,328.4569342001341,328.4569342001341,328.4569342001341,328.4569342001341,328.4569342001341,328.4569342001341,328.4569342001341,330.96561360009946,330.96561360009946,330.96561360009946,330.96561360009946,330.96561360009946,61,57,38,15,57,52,7.0,0.4980689000803977,331.48046530014835,333.34322750009596,,,,,,,,,159,f,1,2023-04-03_16h41.18.569,RL,2022.2.4,60.34376640086161,
1,31,0,31,0,,,,,,,,,,None,333.34322750009596,333.34322750009596,333.34322750009596,333.34322750009596,333.34322750009596,333.34322750009596,f,0.3182567001786083,333.6929600001313,333.6929600001313,333.6929600001313,333.6929600001313,333.6929600001313,333.6929600001313,333.9917343999259,333.9917343999259,335.4045001999475,335.4045001999475,335.4045001999475,335.4045001999475,335.4045001999475,335.4045001999475,335.4045001999475,335.4045001999475,335.4045001999475,335.4045001999475,335.4045001999475,335.4045001999475,335.4045001999475,335.4045001999475,335.4045001999475,335.4045001999475,335.4045001999475,337.91340290009975,337.91340290009975,337.91340290009975,337.91340290009975,337.91340290009975,50,69,25,13,69,38,7.0,0.5309057000558823,338.46210579993203,340.2909542999696,,,,,,,,,159,f,1,2023-04-03_16h41.18.569,RL,2022.2.4,60.34376640086161,
1,32,0,32,0,,,,,,,,,,None,340.2909542999696,340.2909542999696,340.2909542999696,340.2909542999696,340.2909542999696,340.2909542999696,f,0.22507559997029603,340.5441602000501,340.5441602000501,340.5441602000501,340.5441602000501,340.5441602000501,340.5441602000501,340.8395692000631,340.8395692000631,342.834355100058,342.834355100058,342.834355100058,342.834355100058,342.834355100058,342.834355100058,342.834355100058,342.834355100058,342.834355100058,342.834355100058,342.834355100058,342.834355100058,342.834355100058,342.834355100058,342.834355100058,342.834355100058,342.834355100058,345.3432551000733,345.3432551000733,345.3432551000733,345.3432551000733,345.3432551000733,56,63,41,9,63,37,7.0,0.5137935001403093,345.8751690001227,347.73724359995686,,,,,,,,,159,f,1,2023-04-03_16h41.18.569,RL,2022.2.4,60.34376640086161,
1,33,0,33,0,,,,,,,,,,None,347.73724359995686,347.73724359995686,347.73724359995686,347.73724359995686,347.73724359995686,347.73724359995686,f,0.3019467999693006,348.0731065000873,348.0731065000873,348.0731065000873,348.0731065000873,348.0731065000873,348.0731065000873,348.369308500085,348.369308500085,349.8816834001336,349.8816834001336,349.8985969000496,349.8985969000496,349.8985969000496,349.8985969000496,349.8985969000496,349.8985969000496,349.8985969000496,349.8985969000496,349.8985969000496,349.8985969000496,349.8985969000496,349.8985969000496,349.8985969000496,349.8985969000496,349.8985969000496,352.40738130011596,352.40738130011596,352.40738130011596,352.40738130011596,352.40738130011596,53,70,35,12,70,75,1.0,0.5635178999509662,352.98911690013483,354.6852577000391,,,,,,,,,159,f,1,2023-04-03_16h41.18.569,RL,2022.2.4,60.34376640086161,
1,34,0,34,0,,,,,,,,,,None,354.6852577000391,354.6852577000391,354.6852577000391,354.6852577000391,354.6852577000391,354.6852577000391,f,0.3235786999575794,355.0375650001224,355.0375650001224,355.0375650001224,355.0375650001224,355.0375650001224,355.0375650001224,355.3338683999609,355.3338683999609,357.2611507999245,357.2611507999245,357.27808340010233,357.27808340010233,357.27808340010233,357.27808340010233,357.27808340010233,357.27808340010233,357.27808340010233,357.27808340010233,357.27808340010233,357.27808340010233,357.27808340010233,357.27808340010233,357.27808340010233,357.27808340010233,357.27808340010233,359.7869707001373,359.7869707001373,359.7869707001373,359.7869707001373,359.7869707001373,55,68,33,9,68,71,4.0,0.5467999998945743,360.35216569993645,362.1150021001231,,,,,,,,,159,f,1,2023-04-03_16h41.18.569,RL,2022.2.4,60.34376640086161,
1,35,0,35,0,,,,,,,,,,None,362.1150021001231,362.1150021001231,362.1150021001231,362.1150021001231,362.1150021001231,362.1150021001231,f,0.3619593000039458,362.4997491000686,362.4997491000686,362.4997491000686,362.4997491000686,362.4997491000686,362.4997491000686,362.7965284001548,362.7965284001548,363.79381719999947,363.79381719999947,363.79381719999947,363.79381719999947,363.79381719999947,363.79381719999947,363.79381719999947,363.79381719999947,363.79381719999947,363.79381719999947,363.79381719999947,363.79381719999947,363.79381719999947,363.79381719999947,363.79381719999947,363.79381719999947,363.79381719999947,366.3025952000171,366.3025952000171,366.3025952000171,366.3025952000171,366.3025952000171,50,67,35,10,67,80,1.0,0.53106619999744,366.85100709996186,368.51418659999035,,,,,,,,,159,f,1,2023-04-03_16h41.18.569,RL,2022.2.4,60.34376640086161,
1,36,0,36,0,,,,,,,,,,None,368.51418659999035,368.51418659999035,368.51418659999035,368.51418659999035,368.51418659999035,368.51418659999035,f,0.2525545998942107,368.79939329996705,368.79939329996705,368.79939329996705,368.79939329996705,368.79939329996705,368.79939329996705,369.09602100006305,369.09602100006305,370.20973869995214,370.20973869995214,370.20973869995214,370.20973869995214,370.20973869995214,370.20973869995214,370.20973869995214,370.20973869995214,370.20973869995214,370.20973869995214,370.20973869995214,370.20973869995214,370.20973869995214,370.20973869995214,370.20973869995214,370.20973869995214,370.20973869995214,372.7182112999726,372.7182112999726,372.7182112999726,372.7182112999726,372.7182112999726,58,75,35,2,75,59,7.0,0.5639792000874877,373.30042540002614,375.21249389997683,,,,,,,,,159,f,1,2023-04-03_16h41.18.569,RL,2022.2.4,60.34376640086161,
1,37,0,37,0,,,,,,,,,,None,375.21249389997683,375.21249389997683,375.21249389997683,375.21249389997683,375.21249389997683,375.21249389997683,f,0.16382519993931055,375.3983933001291,375.3983933001291,375.3983933001291,375.3983933001291,375.3983933001291,375.3983933001291,375.6946702999994,375.6946702999994,376.9576137000695,376.9576137000695,376.9576137000695,376.9576137000695,376.9576137000695,376.9576137000695,376.9576137000695,376.9576137000695,376.9576137000695,376.9576137000695,376.9576137000695,376.9576137000695,376.9576137000695,376.9576137000695,376.9576137000695,376.9576137000695,376.9576137000695,379.46676860004663,379.46676860004663,379.46676860004663,379.46676860004663,379.46676860004663,54,69,21,3,69,74,1.0,0.51411970006302,379.99861060013063,381.61174460011534,,,,,,,,,159,f,1,2023-04-03_16h41.18.569,RL,2022.2.4,60.34376640086161,
1,38,0,38,0,,,,,,,,,,None,381.61174460011534,381.61174460011534,381.61174460011534,381.61174460011534,381.61174460011534,381.61174460011534,f,0.10898060002364218,381.74688740004785,381.74688740004785,381.74688740004785,381.74688740004785,381.74688740004785,381.74688740004785,382.0438294999767,382.0438294999767,383.9389393001329,383.9389393001329,383.9389393001329,383.9389393001329,383.9389393001329,383.9389393001329,383.9389393001329,383.9389393001329,383.9389393001329,383.9389393001329,383.9389393001329,383.9389393001329,383.9389393001329,383.9389393001329,383.9389393001329,383.9389393001329,383.9389393001329,386.4478750000708,386.4478750000708,386.4478750000708,386.4478750000708,386.4478750000708,55,80,31,6,80,72,7.0,0.5805238001048565,387.04552279994823,389.041005600011,,,,,,,,,159,f,1,2023-04-03_16h41.18.569,RL,2022.2.4,60.34376640086161,
1,39,0,39,0,,,,,,,,,,None,389.041005600011,389.041005600011,389.041005600011,389.041005600011,389.041005600011,389.041005600011,f,0.11381030012853444,389.1768594000023,389.1768594000023,389.1768594000023,389.1768594000023,389.1768594000023,389.1768594000023,389.4738167000469,389.4738167000469,390.9692400000058,390.9692400000058,390.98615800007246,390.98615800007246,390.98615800007246,390.98615800007246,390.98615800007246,390.98615800007246,390.98615800007246,390.98615800007246,390.98615800007246,390.98615800007246,390.98615800007246,390.98615800007246,390.98615800007246,390.98615800007246,390.98615800007246,393.4952452001162,393.4952452001162,393.4952452001162,393.4952452001162,393.4952452001162,49,66,35,6,66,82,1.0,0.7631027998868376,394.2764159999788,396.0055702999234,,,,,,,,,159,f,1,2023-04-03_16h41.18.569,RL,2022.2.4,60.34376640086161,
1,40,0,40,0,,,,,,,,,,None,396.0055702999234,396.0055702999234,396.0055702999234,396.0055702999234,396.0055702999234,396.0055702999234,f,0.217047399841249,396.25839000009,396.25839000009,396.25839000009,396.25839000009,396.25839000009,396.25839000009,396.5541002000682,396.5541002000682,398.1665930999443,398.1665930999443,398.1665930999443,398.1665930999443,398.1665930999443,398.1665930999443,398.1665930999443,398.1665930999443,398.1665930999443,398.1665930999443,398.1665930999443,398.1665930999443,398.1665930999443,398.1665930999443,398.1665930999443,398.1665930999443,398.1665930999443,400.67564289993607,400.67564289993607,400.67564289993607,400.67564289993607,400.67564289993607,52,81,37,7,81,75,7.0,0.5148551999591291,401.2078126000706,402.75401580007747,,,,,,,,,159,f,1,2023-04-03_16h41.18.569,RL,2022.2.4,60.34376640086161,
1,41,0,41,0,,,,,,,,,,None,402.75401580007747,402.75401580007747,402.75401580007747,402.75401580007747,402.75401580007747,402.75401580007747,f,0.08924010000191629,402.8726719999686,402.8726719999686,402.8726719999686,402.8726719999686,402.8726719999686,402.8726719999686,403.1697180001065,403.1697180001065,404.2665250999853,404.2665250999853,404.2665250999853,404.2665250999853,404.2665250999853,404.2665250999853,404.2665250999853,404.2665250999853,404.2665250999853,404.2665250999853,404.2665250999853,404.2665250999853,404.2665250999853,404.2665250999853,404.2665250999853,404.2665250999853,404.2665250999853,406.77558870008215,406.77558870008215,406.77558870008215,406.77558870008215,406.77558870008215,51,78,35,3,78,52,7.0,0.5308290000539273,407.3239953999873,409.2697259001434,,,,,,,,,159,f,1,2023-04-03_16h41.18.569,RL,2022.2.4,60.34376640086161,
1,42,0,42,0,,,,,,,,,,None,409.2697259001434,409.2697259001434,409.2697259001434,409.2697259001434,409.2697259001434,409.2697259001434,f,0.471174499951303,409.77040509996004,409.77040509996004,409.77040509996004,409.77040509996004,409.77040509996004,409.77040509996004,410.0673938000109,410.0673938000109,411.3140120001044,411.3140120001044,411.33088600006886,411.33088600006886,411.33088600006886,411.33088600006886,411.33088600006886,411.33088600006886,411.33088600006886,411.33088600006886,411.33088600006886,411.33088600006886,411.33088600006886,411.33088600006886,411.33088600006886,411.33088600006886,411.33088600006886,413.839447400067,413.839447400067,413.839447400067,413.839447400067,413.839447400067,55,76,38,12,76,30,7.0,0.29838340007700026,414.15569830010645,416.067592300009,,,,,,,,,159,f,1,2023-04-03_16h41.18.569,RL,2022.2.4,60.34376640086161,
1,43,0,43,0,,,,,,,,,,None,416.067592300009,416.067592300009,416.067592300009,416.067592300009,416.067592300009,416.067592300009,f,0.06295259995386004,416.1524509000592,416.1524509000592,416.1524509000592,416.1524509000592,416.1524509000592,416.1524509000592,416.44981060014106,416.44981060014106,417.3310525000561,417.3310525000561,417.3310525000561,417.3310525000561,417.3310525000561,417.3310525000561,417.3310525000561,417.3310525000561,417.3310525000561,417.3310525000561,417.3310525000561,417.3310525000561,417.3310525000561,417.3310525000561,417.3310525000561,417.3310525000561,417.3310525000561,419.83996389992535,419.83996389992535,419.83996389992535,419.83996389992535,419.83996389992535,50,82,36,2,82,61,7.0,0.5642909999005497,420.4214137000963,422.3998851000797,,,,,,,,,159,f,1,2023-04-03_16h41.18.569,RL,2022.2.4,60.34376640086161,
1,44,0,44,0,,,,,,,,,,None,422.3998851000797,422.3998851000797,422.3998851000797,422.3998851000797,422.3998851000797,422.3998851000797,f,0.28002230008132756,422.701602099929,422.701602099929,422.701602099929,422.701602099929,422.701602099929,422.701602099929,422.9988925999496,422.9988925999496,424.4782799000386,424.4782799000386,424.4782799000386,424.4782799000386,424.4782799000386,424.4782799000386,424.4782799000386,424.4782799000386,424.4782799000386,424.4782799000386,424.4782799000386,424.4782799000386,424.4782799000386,424.4782799000386,424.4782799000386,424.4782799000386,424.4782799000386,426.98690679995343,426.98690679995343,426.98690679995343,426.98690679995343,426.98690679995343,43,72,34,14,72,71,7.0,0.7625589000526816,427.76746469992213,429.3978254001122,,,,,,,,,159,f,1,2023-04-03_16h41.18.569,RL,2022.2.4,60.34376640086161,
1,45,0,45,0,,,,,,,,,,None,429.3978254001122,429.3978254001122,429.3978254001122,429.3978254001122,429.3978254001122,429.3978254001122,f,0.28029430005699396,429.7003445001319,429.7003445001319,429.7003445001319,429.7003445001319,429.7003445001319,429.7003445001319,429.9967849999666,429.9967849999666,430.9103584999684,430.9103584999684,430.9103584999684,430.9103584999684,430.9103584999684,430.9103584999684,430.9103584999684,430.9103584999684,430.9103584999684,430.9103584999684,430.9103584999684,430.9103584999684,430.9103584999684,430.9103584999684,430.9103584999684,430.9103584999684,430.9103584999684,433.41978639992885,433.41978639992885,433.41978639992885,433.41978639992885,433.41978639992885,44,80,38,1,80,82,2.0,0.3646158999763429,433.80171180004254,435.6142953999806,,,,,,,,,159,f,1,2023-04-03_16h41.18.569,RL,2022.2.4,60.34376640086161,
1,46,0,46,0,,,,,,,,,,None,435.6142953999806,435.6142953999806,435.6142953999806,435.6142953999806,435.6142953999806,435.6142953999806,f,0.3584366999566555,435.9999804000836,435.9999804000836,435.9999804000836,435.9999804000836,435.9999804000836,435.9999804000836,436.2956531001255,436.2956531001255,438.0909627000801,438.0909627000801,438.0909627000801,438.0909627000801,438.0909627000801,438.0909627000801,438.0909627000801,438.0909627000801,438.0909627000801,438.0909627000801,438.0909627000801,438.0909627000801,438.0909627000801,438.0909627000801,438.0909627000801,438.0909627000801,438.0909627000801,440.59998800000176,440.59998800000176,440.59998800000176,440.59998800000176,440.59998800000176,47,77,40,5,77,76,7.0,0.3815060001797974,440.99888630001806,442.6615730000194,,,,,,,,,159,f,1,2023-04-03_16h41.18.569,RL,2022.2.4,60.34376640086161,
1,47,0,47,0,,,,,,,,,,None,442.6615730000194,442.6615730000194,442.6615730000194,442.6615730000194,442.6615730000194,442.6615730000194,f,0.3691462997812778,443.06384850014,443.06384850014,443.06384850014,443.06384850014,443.06384850014,443.06384850014,443.36001370009035,443.36001370009035,445.137818899937,445.137818899937,445.137818899937,445.137818899937,445.137818899937,445.137818899937,445.137818899937,445.137818899937,445.137818899937,445.137818899937,445.137818899937,445.137818899937,445.137818899937,445.137818899937,445.137818899937,445.137818899937,445.137818899937,447.6474834000692,447.6474834000692,447.6474834000692,447.6474834000692,447.6474834000692,46,72,46,11,72,53,7.0,0.48096109996549785,448.1460792000871,449.7756008999422,,,,,,,,,159,f,1,2023-04-03_16h41.18.569,RL,2022.2.4,60.34376640086161,
1,48,0,48,0,,,,,,,,,,None,449.7756008999422,449.7756008999422,449.7756008999422,449.7756008999422,449.7756008999422,449.7756008999422,f,0.2090866998769343,450.01269740005955,450.01269740005955,450.01269740005955,450.01269740005955,450.01269740005955,450.01269740005955,450.3078753000591,450.3078753000591,451.75369550008327,451.75369550008327,451.75369550008327,451.75369550008327,451.75369550008327,451.75369550008327,451.75369550008327,451.75369550008327,451.75369550008327,451.75369550008327,451.75369550008327,451.75369550008327,451.75369550008327,451.75369550008327,451.75369550008327,451.75369550008327,451.75369550008327,454.2622171000112,454.2622171000112,454.2622171000112,454.2622171000112,454.2622171000112,56,65,44,8,65,81,1.0,0.48078710003755987,454.76186560001224,456.34109300002456,,,,,,,,,159,f,1,2023-04-03_16h41.18.569,RL,2022.2.4,60.34376640086161,
1,49,0,49,0,,,,,,,,,,None,456.34109300002456,456.34109300002456,456.34109300002456,456.34109300002456,456.34109300002456,456.34109300002456,None,,,,,,,,,,,,,,,,,,,,,,,,,,,,,,,,60,75,39,9,0,**,None,None,462.3738647000864,463.9200796999503,457.863373799948,462.3738647000864,,,,,,,159,f,1,2023-04-03_16h41.18.569,RL,2022.2.4,60.34376640086161,
1,50,0,50,0,,,,,,,,,,None,463.9200796999503,463.9200796999503,463.9200796999503,463.9200796999503,463.9200796999503,463.9200796999503,f,0.38100320007652044,464.32283760001883,464.32283760001883,464.32283760001883,464.32283760001883,464.32283760001883,464.32283760001883,464.61876460001804,464.61876460001804,465.74886170006357,465.74886170006357,465.74886170006357,465.74886170006357,465.74886170006357,465.74886170006357,465.74886170006357,465.74886170006357,465.74886170006357,465.74886170006357,465.74886170006357,465.74886170006357,465.74886170006357,465.74886170006357,465.74886170006357,465.74886170006357,465.74886170006357,468.2579672001302,468.2579672001302,468.2579672001302,468.2579672001302,468.2579672001302,58,72,37,9,72,77,1.0,0.3637380001600832,468.640184200136,470.2863127000164,,,,,,,,,159,f,1,2023-04-03_16h41.18.569,RL,2022.2.4,60.34376640086161,
1,51,0,51,0,,,,,,,,,,None,470.2863127000164,470.2863127000164,470.2863127000164,470.2863127000164,470.2863127000164,470.2863127000164,r,0.43416210007853806,470.7544114999473,470.7544114999473,470.7544114999473,470.7544114999473,470.7544114999473,470.7544114999473,471.0510090000462,471.0510090000462,472.54728000005707,472.54728000005707,472.54728000005707,472.54728000005707,472.54728000005707,472.54728000005707,472.54728000005707,472.54728000005707,472.54728000005707,472.54728000005707,472.54728000005707,472.54728000005707,472.54728000005707,472.54728000005707,472.54728000005707,472.54728000005707,472.54728000005707,475.05547340004705,475.05547340004705,475.05547340004705,475.05547340004705,475.05547340004705,53,75,34,7,53,62,1.0,0.5980255000758916,475.67075329995714,477.4666653999593,,,,,,,,,159,f,1,2023-04-03_16h41.18.569,RL,2022.2.4,60.34376640086161,
1,52,0,52,0,,,,,,,,,,None,477.4666653999593,477.4666653999593,477.4666653999593,477.4666653999593,477.4666653999593,477.4666653999593,f,0.24689509999006987,477.7354346001521,477.7354346001521,477.7354346001521,477.7354346001521,477.7354346001521,477.7354346001521,478.03167259995826,478.03167259995826,479.4117382001132,479.4117382001132,479.4117382001132,479.4117382001132,479.4117382001132,479.4117382001132,479.4117382001132,479.4117382001132,479.4117382001132,479.4117382001132,479.4117382001132,479.4117382001132,479.4117382001132,479.4117382001132,479.4117382001132,479.4117382001132,479.4117382001132,481.9202773999423,481.9202773999423,481.9202773999423,481.9202773999423,481.9202773999423,50,67,39,16,67,68,1.0,0.3318610000424087,482.26945580006577,483.83236150001176,,,,,,,,,159,f,1,2023-04-03_16h41.18.569,RL,2022.2.4,60.34376640086161,
1,53,0,53,0,,,,,,,,,,None,483.83236150001176,483.83236150001176,483.83236150001176,483.83236150001176,483.83236150001176,483.83236150001176,f,0.27097780001349747,484.13299610000104,484.13299610000104,484.13299610000104,484.13299610000104,484.13299610000104,484.13299610000104,484.43156599998474,484.43156599998474,486.29254720010795,486.29254720010795,486.29254720010795,486.29254720010795,486.29254720010795,486.29254720010795,486.29254720010795,486.29254720010795,486.29254720010795,486.29254720010795,486.29254720010795,486.29254720010795,486.29254720010795,486.29254720010795,486.29254720010795,486.29254720010795,486.29254720010795,488.801613900112,488.801613900112,488.801613900112,488.801613900112,488.801613900112,62,64,36,26,64,67,2.0,0.18153490009717643,489.001065999968,490.7139232000336,,,,,,,,,159,f,1,2023-04-03_16h41.18.569,RL,2022.2.4,60.34376640086161,
1,54,0,54,0,,,,,,,,,,None,490.7139232000336,490.7139232000336,490.7139232000336,490.7139232000336,490.7139232000336,490.7139232000336,f,0.288038200000301,491.031577500049,491.031577500049,491.031577500049,491.031577500049,491.031577500049,491.031577500049,491.3289024999831,491.3289024999831,492.4759685001336,492.4759685001336,492.4759685001336,492.4759685001336,492.4759685001336,492.4759685001336,492.4759685001336,492.4759685001336,492.4759685001336,492.4759685001336,492.4759685001336,492.4759685001336,492.4759685001336,492.4759685001336,492.4759685001336,492.4759685001336,492.4759685001336,494.98476250004023,494.98476250004023,494.98476250004023,494.98476250004023,494.98476250004023,53,69,40,21,69,57,7.0,0.8126582999248058,495.8162410000805,497.71132569992915,,,,,,,,,159,f,1,2023-04-03_16h41.18.569,RL,2022.2.4,60.34376640086161,
1,55,0,55,0,,,,,,,,,,None,497.71132569992915,497.71132569992915,497.71132569992915,497.71132569992915,497.71132569992915,497.71132569992915,f,0.2147991000674665,497.9464366999455,497.9464366999455,497.9464366999455,497.9464366999455,497.9464366999455,497.9464366999455,498.24361250014044,498.24361250014044,500.1715728000272,500.1715728000272,500.1715728000272,500.1715728000272,500.1715728000272,500.1715728000272,500.1715728000272,500.1715728000272,500.1715728000272,500.1715728000272,500.1715728000272,500.1715728000272,500.1715728000272,500.1715728000272,500.1715728000272,500.1715728000272,500.1715728000272,502.6806952999905,502.6806952999905,502.6806952999905,502.6806952999905,502.6806952999905,62,60,37,21,60,59,7.0,0.6135213000234216,503.3126199999824,504.9749195999466,,,,,,,,,159,f,1,2023-04-03_16h41.18.569,RL,2022.2.4,60.34376640086161,
1,56,0,56,0,,,,,,,,,,None,504.9749195999466,504.9749195999466,504.9749195999466,504.9749195999466,504.9749195999466,504.9749195999466,f,0.22938819997943938,505.22664340003394,505.22664340003394,505.22664340003394,505.22664340003394,505.22664340003394,505.22664340003394,505.52386560011655,505.52386560011655,506.487710100133,506.487710100133,506.487710100133,506.487710100133,506.487710100133,506.487710100133,506.487710100133,506.487710100133,506.487710100133,506.487710100133,506.487710100133,506.487710100133,506.487710100133,506.487710100133,506.487710100133,506.487710100133,506.487710100133,508.9966188999824,508.9966188999824,508.9966188999824,508.9966188999824,508.9966188999824,61,60,49,23,60,56,7.0,0.3476164999883622,509.36240820004605,511.025193199981,,,,,,,,,159,f,1,2023-04-03_16h41.18.569,RL,2022.2.4,60.34376640086161,
1,57,0,57,0,,,,,,,,,,None,511.025193199981,511.025193199981,511.025193199981,511.025193199981,511.025193199981,511.025193199981,f,0.21895539993420243,511.2771322999615,511.2771322999615,511.2771322999615,511.2771322999615,511.2771322999615,511.2771322999615,511.5735045000911,511.5735045000911,512.8868420000654,512.8868420000654,512.8868420000654,512.8868420000654,512.8868420000654,512.8868420000654,512.8868420000654,512.8868420000654,512.8868420000654,512.8868420000654,512.8868420000654,512.8868420000654,512.8868420000654,512.8868420000654,512.8868420000654,512.8868420000654,512.8868420000654,515.3957195000257,515.3957195000257,515.3957195000257,515.3957195000257,515.3957195000257,68,63,36,26,63,57,7.0,0.4970982999075204,515.9111901000142,517.873085499974,,,,,,,,,159,f,1,2023-04-03_16h41.18.569,RL,2022.2.4,60.34376640086161,
1,58,0,58,0,,,,,,,,,,None,517.873085499974,517.873085499974,517.873085499974,517.873085499974,517.873085499974,517.873085499974,f,0.21881909994408488,518.1258334999438,518.1258334999438,518.1258334999438,518.1258334999438,518.1258334999438,518.1258334999438,518.4219635999762,518.4219635999762,519.6518515001517,519.6518515001517,519.6518515001517,519.6518515001517,519.6518515001517,519.6518515001517,519.6518515001517,519.6518515001517,519.6518515001517,519.6518515001517,519.6518515001517,519.6518515001517,519.6518515001517,519.6518515001517,519.6518515001517,519.6518515001517,519.6518515001517,522.160709900083,522.160709900083,522.160709900083,522.160709900083,522.160709900083,65,61,44,21,61,53,7.0,0.5143834000919014,522.6926222001202,524.554960800102,,,,,,,,,159,f,1,2023-04-03_16h41.18.569,RL,2022.2.4,60.34376640086161,
1,59,0,59,0,,,,,,,,,,None,524.554960800102,524.554960800102,524.554960800102,524.554960800102,524.554960800102,524.554960800102,f,0.25172080006450415,524.8404544999357,524.8404544999357,524.8404544999357,524.8404544999357,524.8404544999357,524.8404544999357,525.1369803000707,525.1369803000707,526.6326691000722,526.6326691000722,526.6326691000722,526.6326691000722,526.6326691000722,526.6326691000722,526.6326691000722,526.6326691000722,526.6326691000722,526.6326691000722,526.6326691000722,526.6326691000722,526.6326691000722,526.6326691000722,526.6326691000722,526.6326691000722,526.6326691000722,529.1415935000405,529.1415935000405,529.1415935000405,529.1415935000405,529.1415935000405,59,63,48,19,63,58,7.0,0.580735299969092,529.7401708001271,531.5363185999449,,,,,,,,,159,f,1,2023-04-03_16h41.18.569,RL,2022.2.4,60.34376640086161,
1,60,0,60,0,,,,,,,,,,None,531.5363185999449,531.5363185999449,531.5363185999449,531.5363185999449,531.5363185999449,531.5363185999449,f,0.2392672998830676,531.8038021000102,531.8038021000102,531.8038021000102,531.8038021000102,531.8038021000102,531.8038021000102,532.1010124001186,532.1010124001186,533.397553200135,533.397553200135,533.397553200135,533.397553200135,533.397553200135,533.397553200135,533.397553200135,533.397553200135,533.397553200135,533.397553200135,533.397553200135,533.397553200135,533.397553200135,533.397553200135,533.397553200135,533.397553200135,533.397553200135,535.9064507000148,535.9064507000148,535.9064507000148,535.9064507000148,535.9064507000148,64,58,43,17,58,67,1.0,0.4978796001523733,536.4216966999229,538.3005894001108,,,,,,,,,159,f,1,2023-04-03_16h41.18.569,RL,2022.2.4,60.34376640086161,
1,61,0,61,0,,,,,,,,,,None,538.3005894001108,538.3005894001108,538.3005894001108,538.3005894001108,538.3005894001108,538.3005894001108,f,0.24785209982655942,538.5675747999921,538.5675747999921,538.5675747999921,538.5675747999921,538.5675747999921,538.5675747999921,538.8659225001466,538.8659225001466,540.6277722001541,540.6277722001541,540.6447109000292,540.6447109000292,540.6447109000292,540.6447109000292,540.6447109000292,540.6447109000292,540.6447109000292,540.6447109000292,540.6447109000292,540.6447109000292,540.6447109000292,540.6447109000292,540.6447109000292,540.6447109000292,540.6447109000292,543.1530953999609,543.1530953999609,543.1530953999609,543.1530953999609,543.1530953999609,59,59,36,17,59,62,1.0,0.8797607999294996,544.0510563000571,545.8467781001236,,,,,,,,,159,f,1,2023-04-03_16h41.18.569,RL,2022.2.4,60.34376640086161,
1,62,0,62,0,,,,,,,,,,None,545.8467781001236,545.8467781001236,545.8467781001236,545.8467781001236,545.8467781001236,545.8467781001236,f,0.39948009978979826,546.2808002999518,546.2808002999518,546.2808002999518,546.2808002999518,546.2808002999518,546.2808002999518,546.5783611000516,546.5783611000516,547.6914013000205,547.6914013000205,547.6914013000205,547.6914013000205,547.6914013000205,547.6914013000205,547.6914013000205,547.6914013000205,547.6914013000205,547.6914013000205,547.6914013000205,547.6914013000205,547.6914013000205,547.6914013000205,547.6914013000205,547.6914013000205,547.6914013000205,550.200791399926,550.200791399926,550.200791399926,550.200791399926,550.200791399926,58,56,43,20,56,38,6.0,0.16493690013885498,550.3837073999457,551.9795498000458,,,,,,,,,159,f,1,2023-04-03_16h41.18.569,RL,2022.2.4,60.34376640086161,
1,63,0,63,0,,,,,,,,,,None,551.9795498000458,551.9795498000458,551.9795498000458,551.9795498000458,551.9795498000458,551.9795498000458,f,0.3216258001048118,552.3325159000233,552.3325159000233,552.3325159000233,552.3325159000233,552.3325159000233,552.3325159000233,552.6284245001152,552.6284245001152,554.5563827001024,554.5563827001024,554.5563827001024,554.5563827001024,554.5563827001024,554.5563827001024,554.5563827001024,554.5563827001024,554.5563827001024,554.5563827001024,554.5563827001024,554.5563827001024,554.5563827001024,554.5563827001024,554.5563827001024,554.5563827001024,554.5563827001024,557.0654534001369,557.0654534001369,557.0654534001369,557.0654534001369,557.0654534001369,56,60,30,12,60,55,6.0,0.31523109995760024,557.3977117999457,559.0939998000395,,,,,,,,,159,f,1,2023-04-03_16h41.18.569,RL,2022.2.4,60.34376640086161,
1,64,0,64,0,,,,,,,,,,None,559.0939998000395,559.0939998000395,559.0939998000395,559.0939998000395,559.0939998000395,559.0939998000395,f,0.5459620000328869,559.662305300124,559.662305300124,559.662305300124,559.662305300124,559.662305300124,559.662305300124,559.9583203999791,559.9583203999791,561.138513199985,561.138513199985,561.138513199985,561.138513199985,561.138513199985,561.138513199985,561.138513199985,561.138513199985,561.138513199985,561.138513199985,561.138513199985,561.138513199985,561.138513199985,561.138513199985,561.138513199985,561.138513199985,561.138513199985,563.6472519000527,563.6472519000527,563.6472519000527,563.6472519000527,563.6472519000527,46,54,41,22,54,57,2.0,0.19834790006279945,563.86307880003,565.7588861000258,,,,,,,,,159,f,1,2023-04-03_16h41.18.569,RL,2022.2.4,60.34376640086161,
1,65,0,65,0,,,,,,,,,,None,565.7588861000258,565.7588861000258,565.7588861000258,565.7588861000258,565.7588861000258,565.7588861000258,f,0.33932840009219944,566.127855299972,566.127855299972,566.127855299972,566.127855299972,566.127855299972,566.127855299972,566.4241655000951,566.4241655000951,567.9529643999413,567.9529643999413,567.9529643999413,567.9529643999413,567.9529643999413,567.9529643999413,567.9529643999413,567.9529643999413,567.9529643999413,567.9529643999413,567.9529643999413,567.9529643999413,567.9529643999413,567.9529643999413,567.9529643999413,567.9529643999413,567.9529643999413,570.4622792999726,570.4622792999726,570.4622792999726,570.4622792999726,570.4622792999726,57,60,36,17,60,63,2.0,0.2983928001485765,570.7783435999881,572.2910081001464,,,,,,,,,159,f,1,2023-04-03_16h41.18.569,RL,2022.2.4,60.34376640086161,
1,66,0,66,0,,,,,,,,,,None,572.2910081001464,572.2910081001464,572.2910081001464,572.2910081001464,572.2910081001464,572.2910081001464,f,0.31126459990628064,572.626905299956,572.626905299956,572.626905299956,572.626905299956,572.626905299956,572.626905299956,572.9234844001476,572.9234844001476,573.9698151000775,573.9698151000775,573.9698151000775,573.9698151000775,573.9698151000775,573.9698151000775,573.9698151000775,573.9698151000775,573.9698151000775,573.9698151000775,573.9698151000775,573.9698151000775,573.9698151000775,573.9698151000775,573.9698151000775,573.9698151000775,573.9698151000775,576.47879069997,576.47879069997,576.47879069997,576.47879069997,576.47879069997,51,63,30,19,63,53,7.0,0.3480863000731915,576.8448839001358,578.7735433001071,,,,,,,,,159,f,1,2023-04-03_16h41.18.569,RL,2022.2.4,60.34376640086161,
1,67,0,67,0,,,,,,,,,,None,578.7735433001071,578.7735433001071,578.7735433001071,578.7735433001071,578.7735433001071,578.7735433001071,f,0.342924099881202,579.1422657000367,579.1422657000367,579.1422657000367,579.1422657000367,579.1422657000367,579.1422657000367,579.4386617001146,579.4386617001146,581.0676055001095,581.0676055001095,581.0676055001095,581.0676055001095,581.0676055001095,581.0676055001095,581.0676055001095,581.0676055001095,581.0676055001095,581.0676055001095,581.0676055001095,581.0676055001095,581.0676055001095,581.0676055001095,581.0676055001095,581.0676055001095,581.0676055001095,583.5761047000997,583.5761047000997,583.5761047000997,583.5761047000997,583.5761047000997,48,55,28,28,55,53,7.0,0.24797959998250008,583.8422052001115,585.7710568001494,,,,,,,,,159,f,1,2023-04-03_16h41.18.569,RL,2022.2.4,60.34376640086161,
1,68,0,68,0,,,,,,,,,,None,585.7710568001494,585.7710568001494,585.7710568001494,585.7710568001494,585.7710568001494,585.7710568001494,f,0.45950470003299415,586.25480110012,586.25480110012,586.25480110012,586.25480110012,586.25480110012,586.25480110012,586.5525782001205,586.5525782001205,587.682784399949,587.682784399949,587.682784399949,587.682784399949,587.682784399949,587.682784399949,587.682784399949,587.682784399949,587.682784399949,587.682784399949,587.682784399949,587.682784399949,587.682784399949,587.682784399949,587.682784399949,587.682784399949,587.682784399949,590.1919724000618,590.1919724000618,590.1919724000618,590.1919724000618,590.1919724000618,50,61,28,18,61,59,7.0,0.697124500060454,590.9065002000425,592.5860089999624,,,,,,,,,159,f,1,2023-04-03_16h41.18.569,RL,2022.2.4,60.34376640086161,
1,69,0,69,0,,,,,,,,,,None,592.5860089999624,592.5860089999624,592.5860089999624,592.5860089999624,592.5860089999624,592.5860089999624,f,0.332864300115034,592.954329600092,592.954329600092,592.954329600092,592.954329600092,592.954329600092,592.954329600092,593.2511350000277,593.2511350000277,594.2148778000847,594.2148778000847,594.2316896999255,594.2316896999255,594.2316896999255,594.2316896999255,594.2316896999255,594.2316896999255,594.2316896999255,594.2316896999255,594.2316896999255,594.2316896999255,594.2316896999255,594.2316896999255,594.2316896999255,594.2316896999255,594.2316896999255,596.740267300047,596.740267300047,596.740267300047,596.740267300047,596.740267300047,42,61,30,27,61,61,4.0,0.44890980003401637,597.205881100148,599.1348230999429,,,,,,,,,159,f,1,2023-04-03_16h41.18.569,RL,2022.2.4,60.34376640086161,
1,70,0,70,0,,,,,,,,,,None,599.1348230999429,599.1348230999429,599.1348230999429,599.1348230999429,599.1348230999429,599.1348230999429,f,0.31825500004924834,599.4853706001304,599.4853706001304,599.4853706001304,599.4853706001304,599.4853706001304,599.4853706001304,599.7830918999389,599.7830918999389,600.8632189000491,600.8632189000491,600.8800379999448,600.8800379999448,600.8800379999448,600.8800379999448,600.8800379999448,600.8800379999448,600.8800379999448,600.8800379999448,600.8800379999448,600.8800379999448,600.8800379999448,600.8800379999448,600.8800379999448,600.8800379999448,600.8800379999448,603.3890986000188,603.3890986000188,603.3890986000188,603.3890986000188,603.3890986000188,46,49,28,31,49,63,4.0,1.0961316002067178,604.5025333000813,606.4147928999737,,,,,,,,,159,f,1,2023-04-03_16h41.18.569,RL,2022.2.4,60.34376640086161,
1,71,0,71,0,,,,,,,,,,None,606.4147928999737,606.4147928999737,606.4147928999737,606.4147928999737,606.4147928999737,606.4147928999737,f,0.4520470998249948,606.8985848999582,606.8985848999582,606.8985848999582,606.8985848999582,606.8985848999582,606.8985848999582,607.1959595000371,607.1959595000371,608.8911087000743,608.8911087000743,608.8911087000743,608.8911087000743,608.8911087000743,608.8911087000743,608.8911087000743,608.8911087000743,608.8911087000743,608.8911087000743,608.8911087000743,608.8911087000743,608.8911087000743,608.8911087000743,608.8911087000743,608.8911087000743,608.8911087000743,611.4006181999575,611.4006181999575,611.4006181999575,611.4006181999575,611.4006181999575,42,59,27,36,59,60,3.0,0.31510269991122186,611.7330434999894,613.6947735999711,,,,,,,,,159,f,1,2023-04-03_16h41.18.569,RL,2022.2.4,60.34376640086161,
1,72,0,72,0,,,,,,,,,,None,613.6947735999711,613.6947735999711,613.6947735999711,613.6947735999711,613.6947735999711,613.6947735999711,f,0.29142570006661117,614.012555600144,614.012555600144,614.012555600144,614.012555600144,614.012555600144,614.012555600144,614.3099636000115,614.3099636000115,616.1552059000824,616.1552059000824,616.1552059000824,616.1552059000824,616.1552059000824,616.1552059000824,616.1552059000824,616.1552059000824,616.1552059000824,616.1552059000824,616.1552059000824,616.1552059000824,616.1552059000824,616.1552059000824,616.1552059000824,616.1552059000824,616.1552059000824,618.6639934999403,618.6639934999403,618.6639934999403,618.6639934999403,618.6639934999403,48,45,37,33,45,41,7.0,0.4147745000664145,619.0963942999952,620.9752046000212,,,,,,,,,159,f,1,2023-04-03_16h41.18.569,RL,2022.2.4,60.34376640086161,
1,73,0,73,0,,,,,,,,,,None,620.9752046000212,620.9752046000212,620.9752046000212,620.9752046000212,620.9752046000212,620.9752046000212,f,0.5249670001212507,621.5271030000877,621.5271030000877,621.5271030000877,621.5271030000877,621.5271030000877,621.5271030000877,621.8231106000021,621.8231106000021,623.5349834000226,623.5349834000226,623.5349834000226,623.5349834000226,623.5349834000226,623.5349834000226,623.5349834000226,623.5349834000226,623.5349834000226,623.5349834000226,623.5349834000226,623.5349834000226,623.5349834000226,623.5349834000226,623.5349834000226,623.5349834000226,623.5349834000226,626.0436509000137,626.0436509000137,626.0436509000137,626.0436509000137,626.0436509000137,44,49,25,32,49,58,1.0,0.6311097000725567,626.6918452000245,628.221630099928,,,,,,,,,159,f,1,2023-04-03_16h41.18.569,RL,2022.2.4,60.34376640086161,
1,74,0,74,0,,,,,,,,,,None,628.221630099928,628.221630099928,628.221630099928,628.221630099928,628.221630099928,628.221630099928,f,0.3165923000779003,628.574487300124,628.574487300124,628.574487300124,628.574487300124,628.574487300124,628.574487300124,628.8702025001403,628.8702025001403,630.765465100063,630.765465100063,630.7819014000706,630.7819014000706,630.7819014000706,630.7819014000706,630.7819014000706,630.7819014000706,630.7819014000706,630.7819014000706,630.7819014000706,630.7819014000706,630.7819014000706,630.7819014000706,630.7819014000706,630.7819014000706,630.7819014000706,633.2908968001138,633.2908968001138,633.2908968001138,633.2908968001138,633.2908968001138,60,63,30,44,63,60,7.0,0.06561619997955859,633.3740856000222,635.3026233001146,,,,,,,,,159,f,1,2023-04-03_16h41.18.569,RL,2022.2.4,60.34376640086161,
1,75,0,75,0,,,,,,,,,,q,673.1991838000249,673.1991838000249,673.1991838000249,673.1991838000249,673.1991838000249,673.1991838000249,f,0.7247294001281261,673.9509686999954,673.9509686999954,673.9509686999954,673.9509686999954,673.9509686999954,673.9509686999954,674.2466756000649,674.2466756000649,675.2436003000475,675.2436003000475,675.2604611001443,675.2604611001443,675.2604611001443,675.2604611001443,675.2604611001443,675.2604611001443,675.2604611001443,675.2604611001443,675.2604611001443,675.2604611001443,675.2604611001443,675.2604611001443,675.2604611001443,675.2604611001443,675.2604611001443,677.7690916000865,677.7690916000865,677.7690916000865,677.7690916000865,677.7690916000865,47,52,27,38,52,73,1.0,1.6943121999502182,679.4814706000034,681.1940031999256,,,635.3026233001146,635.3026233001146,37.87186800013296,,,,159,f,1,2023-04-03_16h41.18.569,RL,2022.2.4,60.34376640086161,
1,76,0,76,0,,,,,,,,,,None,681.1940031999256,681.1940031999256,681.1940031999256,681.1940031999256,681.1940031999256,681.1940031999256,i,0.43847019993700087,681.6617246000096,681.6617246000096,681.6617246000096,681.6617246000096,681.6617246000096,681.6617246000096,681.9586813000496,681.9586813000496,683.0559853999875,683.0559853999875,683.0559853999875,683.0559853999875,683.0559853999875,683.0559853999875,683.0559853999875,683.0559853999875,683.0559853999875,683.0559853999875,683.0559853999875,683.0559853999875,683.0559853999875,683.0559853999875,683.0559853999875,683.0559853999875,683.0559853999875,685.5651380000636,685.5651380000636,685.5651380000636,685.5651380000636,685.5651380000636,52,60,23,36,23,60,1.0,0.5472633999306709,686.1301915000658,687.7929758001119,,,,,,,,,159,f,1,2023-04-03_16h41.18.569,RL,2022.2.4,60.34376640086161,
1,77,0,77,0,,,,,,,,,,None,687.7929758001119,687.7929758001119,687.7929758001119,687.7929758001119,687.7929758001119,687.7929758001119,j,0.2934512000065297,688.1125064000953,688.1125064000953,688.1125064000953,688.1125064000953,688.1125064000953,688.1125064000953,688.4080996001139,688.4080996001139,689.8375587000046,689.8375587000046,689.8375587000046,689.8375587000046,689.8375587000046,689.8375587000046,689.8375587000046,689.8375587000046,689.8375587000046,689.8375587000046,689.8375587000046,689.8375587000046,689.8375587000046,689.8375587000046,689.8375587000046,689.8375587000046,689.8375587000046,692.3462871001102,692.3462871001102,692.3462871001102,692.3462871001102,692.3462871001102,54,56,26,46,46,58,1.0,0.48064600001089275,692.8448944000993,694.3582129001152,,,,,,,,,159,f,1,2023-04-03_16h41.18.569,RL,2022.2.4,60.34376640086161,
1,78,0,78,0,,,,,,,,,,None,694.3582129001152,694.3582129001152,694.3582129001152,694.3582129001152,694.3582129001152,694.3582129001152,r,0.3764865000266582,694.7600066000596,694.7600066000596,694.7600066000596,694.7600066000596,694.7600066000596,694.7600066000596,695.056287900079,695.056287900079,695.9208907999564,695.9208907999564,695.9208907999564,695.9208907999564,695.9208907999564,695.9208907999564,695.9208907999564,695.9208907999564,695.9208907999564,695.9208907999564,695.9208907999564,695.9208907999564,695.9208907999564,695.9208907999564,695.9208907999564,695.9208907999564,695.9208907999564,698.429793999996,698.429793999996,698.429793999996,698.429793999996,698.429793999996,51,69,27,46,51,72,1.0,0.5314517999067903,698.9784282001201,700.7902029000688,,,,,,,,,159,f,1,2023-04-03_16h41.18.569,RL,2022.2.4,60.34376640086161,
1,79,0,79,0,,,,,,,,,,None,700.7902029000688,700.7902029000688,700.7902029000688,700.7902029000688,700.7902029000688,700.7902029000688,f,0.2640673001296818,701.0760040001478,701.0760040001478,701.0760040001478,701.0760040001478,701.0760040001478,701.0760040001478,701.372569500003,701.372569500003,702.2202383000404,702.2202383000404,702.2369073000737,702.2369073000737,702.2369073000737,702.2369073000737,702.2369073000737,702.2369073000737,702.2369073000737,702.2369073000737,702.2369073000737,702.2369073000737,702.2369073000737,702.2369073000737,702.2369073000737,702.2369073000737,702.2369073000737,704.7455168000888,704.7455168000888,704.7455168000888,704.7455168000888,704.7455168000888,54,65,23,39,65,54,7.0,0.1996111001353711,704.9617272999603,706.7575042000972,,,,,,,,,159,f,1,2023-04-03_16h41.18.569,RL,2022.2.4,60.34376640086161,
1,80,0,80,0,,,,,,,,,,None,706.7575042000972,706.7575042000972,706.7575042000972,706.7575042000972,706.7575042000972,706.7575042000972,f,0.25648199999704957,707.043551400071,707.043551400071,707.043551400071,707.043551400071,707.043551400071,707.043551400071,707.3401015000418,707.3401015000418,709.3506080000661,709.3506080000661,709.3506080000661,709.3506080000661,709.3506080000661,709.3506080000661,709.3506080000661,709.3506080000661,709.3506080000661,709.3506080000661,709.3506080000661,709.3506080000661,709.3506080000661,709.3506080000661,709.3506080000661,709.3506080000661,709.3506080000661,711.8596064001322,711.8596064001322,711.8596064001322,711.8596064001322,711.8596064001322,38,66,27,34,66,55,7.0,0.4475718999747187,712.3250071001239,714.0544732001144,,,,,,,,,159,f,1,2023-04-03_16h41.18.569,RL,2022.2.4,60.34376640086161,
1,81,0,81,0,,,,,,,,,,None,714.0544732001144,714.0544732001144,714.0544732001144,714.0544732001144,714.0544732001144,714.0544732001144,f,0.3232284998521209,714.4069759000558,714.4069759000558,714.4069759000558,714.4069759000558,714.4069759000558,714.4069759000558,714.7030045001302,714.7030045001302,715.7324119000696,715.7324119000696,715.7493207000662,715.7493207000662,715.7493207000662,715.7493207000662,715.7493207000662,715.7493207000662,715.7493207000662,715.7493207000662,715.7493207000662,715.7493207000662,715.7493207000662,715.7493207000662,715.7493207000662,715.7493207000662,715.7493207000662,718.2592899000738,718.2592899000738,718.2592899000738,718.2592899000738,718.2592899000738,42,63,33,43,63,63,4.0,0.33170360000804067,718.6082874999847,720.5198522000574,,,,,,,,,159,f,1,2023-04-03_16h41.18.569,RL,2022.2.4,60.34376640086161,
1,82,0,82,0,,,,,,,,,,None,720.5198522000574,720.5198522000574,720.5198522000574,720.5198522000574,720.5198522000574,720.5198522000574,f,0.3966431000735611,720.9361483999528,720.9361483999528,720.9361483999528,720.9361483999528,720.9361483999528,720.9361483999528,721.2349082001019,721.2349082001019,722.1160576001275,722.1160576001275,722.1160576001275,722.1160576001275,722.1160576001275,722.1160576001275,722.1160576001275,722.1160576001275,722.1160576001275,722.1160576001275,722.1160576001275,722.1160576001275,722.1160576001275,722.1160576001275,722.1160576001275,722.1160576001275,722.1160576001275,724.6248674001545,724.6248674001545,724.6248674001545,724.6248674001545,724.6248674001545,42,65,17,39,65,66,3.0,0.4644599000457674,725.1069372000638,726.7531326001044,,,,,,,,,159,f,1,2023-04-03_16h41.18.569,RL,2022.2.4,60.34376640086161,
1,83,0,83,0,,,,,,,,,,None,726.7531326001044,726.7531326001044,726.7531326001044,726.7531326001044,726.7531326001044,726.7531326001044,j,0.3970328001305461,727.1726011999417,727.1726011999417,727.1726011999417,727.1726011999417,727.1726011999417,727.1726011999417,727.468036999926,727.468036999926,729.0302339000627,729.0302339000627,729.0467904000543,729.0467904000543,729.0467904000543,729.0467904000543,729.0467904000543,729.0467904000543,729.0467904000543,729.0467904000543,729.0467904000543,729.0467904000543,729.0467904000543,729.0467904000543,729.0467904000543,729.0467904000543,729.0467904000543,731.5561748000327,731.5561748000327,731.5561748000327,731.5561748000327,731.5561748000327,42,63,26,40,40,55,1.0,1.3124974998645484,732.8856015999336,734.4987417000812,,,,,,,,,159,f,1,2023-04-03_16h41.18.569,RL,2022.2.4,60.34376640086161,
1,84,0,84,0,,,,,,,,,,None,734.4987417000812,734.4987417000812,734.4987417000812,734.4987417000812,734.4987417000812,734.4987417000812,i,0.2845135999377817,734.8175592999905,734.8175592999905,734.8175592999905,734.8175592999905,734.8175592999905,734.8175592999905,735.1137767999899,735.1137767999899,736.8419639000203,736.8419639000203,736.8419639000203,736.8419639000203,736.8419639000203,736.8419639000203,736.8419639000203,736.8419639000203,736.8419639000203,736.8419639000203,736.8419639000203,736.8419639000203,736.8419639000203,736.8419639000203,736.8419639000203,736.8419639000203,736.8419639000203,739.3514576000161,739.3514576000161,739.3514576000161,739.3514576000161,739.3514576000161,49,62,32,40,32,53,2.0,0.76414839993231,740.1323754000477,741.9948803000152,,,,,,,,,159,f,1,2023-04-03_16h41.18.569,RL,2022.2.4,60.34376640086161,
1,85,0,85,0,,,,,,,,,,None,741.9948803000152,741.9948803000152,741.9948803000152,741.9948803000152,741.9948803000152,741.9948803000152,r,0.2515772997867316,742.2801777001005,742.2801777001005,742.2801777001005,742.2801777001005,742.2801777001005,742.2801777001005,742.5767767999787,742.5767767999787,744.5043476000428,744.5043476000428,744.5043476000428,744.5043476000428,744.5043476000428,744.5043476000428,744.5043476000428,744.5043476000428,744.5043476000428,744.5043476000428,744.5043476000428,744.5043476000428,744.5043476000428,744.5043476000428,744.5043476000428,744.5043476000428,744.5043476000428,747.0137329001445,747.0137329001445,747.0137329001445,747.0137329001445,747.0137329001445,47,74,36,39,47,66,3.0,0.5306651999708265,747.5625295999926,749.2582411000039,,,,,,,,,159,f,1,2023-04-03_16h41.18.569,RL,2022.2.4,60.34376640086161,
1,86,0,86,0,,,,,,,,,,None,749.2582411000039,749.2582411000039,749.2582411000039,749.2582411000039,749.2582411000039,749.2582411000039,f,0.327979400055483,749.610889500007,749.610889500007,749.610889500007,749.610889500007,749.610889500007,749.610889500007,749.9068823000416,749.9068823000416,750.8705430000555,750.8705430000555,750.8705430000555,750.8705430000555,750.8705430000555,750.8705430000555,750.8705430000555,750.8705430000555,750.8705430000555,750.8705430000555,750.8705430000555,750.8705430000555,750.8705430000555,750.8705430000555,750.8705430000555,750.8705430000555,750.8705430000555,753.379445000086,753.379445000086,753.379445000086,753.379445000086,753.379445000086,42,65,30,40,65,56,7.0,0.48234399990178645,753.8782810000703,755.8070996000897,,,,,,,,,159,f,1,2023-04-03_16h41.18.569,RL,2022.2.4,60.34376640086161,
1,87,0,87,0,,,,,,,,,,None,755.8070996000897,755.8070996000897,755.8070996000897,755.8070996000897,755.8070996000897,755.8070996000897,f,0.29154889984056354,756.1244930999819,756.1244930999819,756.1244930999819,756.1244930999819,756.1244930999819,756.1244930999819,756.4225270999596,756.4225270999596,758.3999302999582,758.3999302999582,758.3999302999582,758.3999302999582,758.3999302999582,758.3999302999582,758.3999302999582,758.3999302999582,758.3999302999582,758.3999302999582,758.3999302999582,758.3999302999582,758.3999302999582,758.3999302999582,758.3999302999582,758.3999302999582,758.3999302999582,760.9093532999977,760.9093532999977,760.9093532999977,760.9093532999977,760.9093532999977,42,70,38,32,70,30,7.0,0.14754009991884232,761.0752308999654,762.7713741001207,,,,,,,,,159,f,1,2023-04-03_16h41.18.569,RL,2022.2.4,60.34376640086161,
1,88,0,88,0,,,,,,,,,,None,762.7713741001207,762.7713741001207,762.7713741001207,762.7713741001207,762.7713741001207,762.7713741001207,f,0.42036689980886877,763.2228182000108,763.2228182000108,763.2228182000108,763.2228182000108,763.2228182000108,763.2228182000108,763.519357000012,763.519357000012,764.9821560001001,764.9821560001001,764.9990533001255,764.9990533001255,764.9990533001255,764.9990533001255,764.9990533001255,764.9990533001255,764.9990533001255,764.9990533001255,764.9990533001255,764.9990533001255,764.9990533001255,764.9990533001255,764.9990533001255,764.9990533001255,764.9990533001255,767.5077949999832,767.5077949999832,767.5077949999832,767.5077949999832,767.5077949999832,47,65,31,35,65,63,7.0,0.18168349983170629,767.7073633000255,769.3038018001243,,,,,,,,,159,f,1,2023-04-03_16h41.18.569,RL,2022.2.4,60.34376640086161,
1,89,0,89,0,,,,,,,,,,None,769.3038018001243,769.3038018001243,769.3038018001243,769.3038018001243,769.3038018001243,769.3038018001243,f,0.4469444998539984,769.7709182000253,769.7709182000253,769.7709182000253,769.7709182000253,769.7709182000253,769.7709182000253,770.0684609001037,770.0684609001037,771.1652792999521,771.1652792999521,771.1652792999521,771.1652792999521,771.1652792999521,771.1652792999521,771.1652792999521,771.1652792999521,771.1652792999521,771.1652792999521,771.1652792999521,771.1652792999521,771.1652792999521,771.1652792999521,771.1652792999521,771.1652792999521,771.1652792999521,773.6744689999614,773.6744689999614,773.6744689999614,773.6744689999614,773.6744689999614,40,69,32,44,69,55,7.0,0.4807786999735981,774.1730118000414,775.802367700031,,,,,,,,,159,f,1,2023-04-03_16h41.18.569,RL,2022.2.4,60.34376640086161,
1,90,0,90,0,,,,,,,,,,None,775.802367700031,775.802367700031,775.802367700031,775.802367700031,775.802367700031,775.802367700031,f,0.42247390002012253,776.2549521001056,776.2549521001056,776.2549521001056,776.2549521001056,776.2549521001056,776.2549521001056,776.5507171000354,776.5507171000354,777.6476779000368,777.6476779000368,777.6476779000368,777.6476779000368,777.6476779000368,777.6476779000368,777.6476779000368,777.6476779000368,777.6476779000368,777.6476779000368,777.6476779000368,777.6476779000368,777.6476779000368,777.6476779000368,777.6476779000368,777.6476779000368,777.6476779000368,780.156781299971,780.156781299971,780.156781299971,780.156781299971,780.156781299971,52,65,31,29,65,33,7.0,0.6136823000852019,780.7883433001116,782.8002760000527,,,,,,,,,159,f,1,2023-04-03_16h41.18.569,RL,2022.2.4,60.34376640086161,
1,91,0,91,0,,,,,,,,,,None,782.8002760000527,782.8002760000527,782.8002760000527,782.8002760000527,782.8002760000527,782.8002760000527,f,0.24773860001005232,783.0676410000306,783.0676410000306,783.0676410000306,783.0676410000306,783.0676410000306,783.0676410000306,783.3655217001215,783.3655217001215,784.6452744000126,784.6452744000126,784.6452744000126,784.6452744000126,784.6452744000126,784.6452744000126,784.6452744000126,784.6452744000126,784.6452744000126,784.6452744000126,784.6452744000126,784.6452744000126,784.6452744000126,784.6452744000126,784.6452744000126,784.6452744000126,784.6452744000126,787.1543040000834,787.1543040000834,787.1543040000834,787.1543040000834,787.1543040000834,48,67,34,46,67,29,7.0,0.3316484000533819,787.5029585000593,789.3318211999722,,,,,,,,,159,f,1,2023-04-03_16h41.18.569,RL,2022.2.4,60.34376640086161,
1,92,0,92,0,,,,,,,,,,None,789.3318211999722,789.3318211999722,789.3318211999722,789.3318211999722,789.3318211999722,789.3318211999722,f,0.2605920999776572,789.6170564000495,789.6170564000495,789.6170564000495,789.6170564000495,789.6170564000495,789.6170564000495,789.9140027000103,789.9140027000103,791.6597504001111,791.6597504001111,791.6597504001111,791.6597504001111,791.6597504001111,791.6597504001111,791.6597504001111,791.6597504001111,791.6597504001111,791.6597504001111,791.6597504001111,791.6597504001111,791.6597504001111,791.6597504001111,791.6597504001111,791.6597504001111,791.6597504001111,794.1685661999509,794.1685661999509,794.1685661999509,794.1685661999509,794.1685661999509,55,66,39,41,66,73,1.0,0.3815064001828432,794.5673702999484,796.0802507000044,,,,,,,,,159,f,1,2023-04-03_16h41.18.569,RL,2022.2.4,60.34376640086161,
1,93,0,93,0,,,,,,,,,,None,796.0802507000044,796.0802507000044,796.0802507000044,796.0802507000044,796.0802507000044,796.0802507000044,f,0.3847903998102993,796.4965327000245,796.4965327000245,796.4965327000245,796.4965327000245,796.4965327000245,796.4965327000245,796.7951315999962,796.7951315999962,798.341284800088,798.341284800088,798.341284800088,798.341284800088,798.341284800088,798.341284800088,798.341284800088,798.341284800088,798.341284800088,798.341284800088,798.341284800088,798.341284800088,798.341284800088,798.341284800088,798.341284800088,798.341284800088,798.341284800088,800.8501081999857,800.8501081999857,800.8501081999857,800.8501081999857,800.8501081999857,46,70,42,42,70,63,7.0,0.13102159998379648,800.9995430000126,802.6956436999608,,,,,,,,,159,f,1,2023-04-03_16h41.18.569,RL,2022.2.4,60.34376640086161,
1,94,0,94,0,,,,,,,,,,None,802.6956436999608,802.6956436999608,802.6956436999608,802.6956436999608,802.6956436999608,802.6956436999608,f,0.4383209999650717,803.1613301001489,803.1613301001489,803.1613301001489,803.1613301001489,803.1613301001489,803.1613301001489,803.4603921999224,803.4603921999224,804.80707910005,804.80707910005,804.80707910005,804.80707910005,804.80707910005,804.80707910005,804.80707910005,804.80707910005,804.80707910005,804.80707910005,804.80707910005,804.80707910005,804.80707910005,804.80707910005,804.80707910005,804.80707910005,804.80707910005,807.3159744001459,807.3159744001459,807.3159744001459,807.3159744001459,807.3159744001459,51,82,41,39,82,59,7.0,0.5976368000265211,807.9309277001303,809.477458700072,,,,,,,,,159,f,1,2023-04-03_16h41.18.569,RL,2022.2.4,60.34376640086161,
1,95,0,95,0,,,,,,,,,,None,809.477458700072,809.477458700072,809.477458700072,809.477458700072,809.477458700072,809.477458700072,f,0.48011260014027357,809.9783161000814,809.9783161000814,809.9783161000814,809.9783161000814,809.9783161000814,809.9783161000814,810.2751376000233,810.2751376000233,811.521624899935,811.521624899935,811.521624899935,811.521624899935,811.521624899935,811.521624899935,811.521624899935,811.521624899935,811.521624899935,811.521624899935,811.521624899935,811.521624899935,811.521624899935,811.521624899935,811.521624899935,811.521624899935,811.521624899935,814.030448100064,814.030448100064,814.030448100064,814.030448100064,814.030448100064,52,77,52,39,77,64,6.0,0.21553890011273324,814.2632882001344,815.8267119000666,,,,,,,,,159,f,1,2023-04-03_16h41.18.569,RL,2022.2.4,60.34376640086161,
1,96,0,96,0,,,,,,,,,,None,815.8267119000666,815.8267119000666,815.8267119000666,815.8267119000666,815.8267119000666,815.8267119000666,f,0.31970259989611804,816.1794255001005,816.1794255001005,816.1794255001005,816.1794255001005,816.1794255001005,816.1794255001005,816.4748142999597,816.4748142999597,817.5553443999961,817.5553443999961,817.5553443999961,817.5553443999961,817.5553443999961,817.5553443999961,817.5553443999961,817.5553443999961,817.5553443999961,817.5553443999961,817.5553443999961,817.5553443999961,817.5553443999961,817.5553443999961,817.5553443999961,817.5553443999961,817.5553443999961,820.0645125999581,820.0645125999581,820.0645125999581,820.0645125999581,820.0645125999581,49,75,54,42,75,46,7.0,0.2653712001629174,820.3470427999273,822.2425991001073,,,,,,,,,159,f,1,2023-04-03_16h41.18.569,RL,2022.2.4,60.34376640086161,
1,97,0,97,0,,,,,,,,,,None,822.2425991001073,822.2425991001073,822.2425991001073,822.2425991001073,822.2425991001073,822.2425991001073,f,0.3039802999701351,822.5790818000678,822.5790818000678,822.5790818000678,822.5790818000678,822.5790818000678,822.5790818000678,822.8745172999334,822.8745172999334,824.7024040000979,824.7024040000979,824.7024040000979,824.7024040000979,824.7024040000979,824.7024040000979,824.7024040000979,824.7024040000979,824.7024040000979,824.7024040000979,824.7024040000979,824.7024040000979,824.7024040000979,824.7024040000979,824.7024040000979,824.7024040000979,824.7024040000979,827.2118027000688,827.2118027000688,827.2118027000688,827.2118027000688,827.2118027000688,57,71,55,47,71,40,7.0,0.3311968999914825,827.5603610000107,829.4396929000504,,,,,,,,,159,f,1,2023-04-03_16h41.18.569,RL,2022.2.4,60.34376640086161,
1,98,0,98,0,,,,,,,,,,None,829.4396929000504,829.4396929000504,829.4396929000504,829.4396929000504,829.4396929000504,829.4396929000504,f,0.23968650004826486,829.7067339001223,829.7067339001223,829.7067339001223,829.7067339001223,829.7067339001223,829.7067339001223,830.0049086001236,830.0049086001236,831.9821387000848,831.9821387000848,831.9821387000848,831.9821387000848,831.9821387000848,831.9821387000848,831.9821387000848,831.9821387000848,831.9821387000848,831.9821387000848,831.9821387000848,831.9821387000848,831.9821387000848,831.9821387000848,831.9821387000848,831.9821387000848,831.9821387000848,834.4920296999626,834.4920296999626,834.4920296999626,834.4920296999626,834.4920296999626,62,77,51,42,77,58,7.0,0.08252759999595582,834.5912619000301,836.5368377000559,,,,,,,,,159,f,1,2023-04-03_16h41.18.569,RL,2022.2.4,60.34376640086161,
1,99,0,99,0,,,,,,,,,,None,836.5368377000559,836.5368377000559,836.5368377000559,836.5368377000559,836.5368377000559,836.5368377000559,f,0.33495700010098517,836.9061135000084,836.9061135000084,836.9061135000084,836.9061135000084,836.9061135000084,836.9061135000084,837.2022699001245,837.2022699001245,838.8805680000223,838.8805680000223,838.8805680000223,838.8805680000223,838.8805680000223,838.8805680000223,838.8805680000223,838.8805680000223,838.8805680000223,838.8805680000223,838.8805680000223,838.8805680000223,838.8805680000223,838.8805680000223,838.8805680000223,838.8805680000223,838.8805680000223,841.3896192000248,841.3896192000248,841.3896192000248,841.3896192000248,841.3896192000248,55,87,56,45,87,46,7.0,0.38320040004327893,841.7884577000514,843.3349824000616,,,,,,,,,159,f,1,2023-04-03_16h41.18.569,RL,2022.2.4,60.34376640086161,
1,100,0,100,0,,,,,,,,,,None,843.3349824000616,843.3349824000616,843.3349824000616,843.3349824000616,843.3349824000616,843.3349824000616,f,0.20161049999296665,843.5704963000026,843.5704963000026,843.5704963000026,843.5704963000026,843.5704963000026,843.5704963000026,843.8668154999614,843.8668154999614,845.3630935000256,845.3630935000256,845.3630935000256,845.3630935000256,845.3630935000256,845.3630935000256,845.3630935000256,845.3630935000256,845.3630935000256,845.3630935000256,845.3630935000256,845.3630935000256,845.3630935000256,845.3630935000256,845.3630935000256,845.3630935000256,845.3630935000256,847.8720456999727,847.8720456999727,847.8720456999727,847.8720456999727,847.8720456999727,63,82,58,44,82,51,7.0,0.13224969990551472,848.0214238001499,849.8505005000625,,,,,,,,,159,f,1,2023-04-03_16h41.18.569,RL,2022.2.4,60.34376640086161,
1,101,0,101,0,,,,,,,,,,None,849.8505005000625,849.8505005000625,849.8505005000625,849.8505005000625,849.8505005000625,849.8505005000625,f,0.26874900003895164,850.1527293999679,850.1527293999679,850.1527293999679,850.1527293999679,850.1527293999679,850.1527293999679,850.4487497999799,850.4487497999799,851.5958294000011,851.5958294000011,851.612668100046,851.612668100046,851.612668100046,851.612668100046,851.612668100046,851.612668100046,851.612668100046,851.612668100046,851.612668100046,851.612668100046,851.612668100046,851.612668100046,851.612668100046,851.612668100046,851.612668100046,854.1212543000001,854.1212543000001,854.1212543000001,854.1212543000001,854.1212543000001,63,78,50,45,78,57,7.0,0.4472226998768747,854.5870485999621,856.3991905001458,,,,,,,,,159,f,1,2023-04-03_16h41.18.569,RL,2022.2.4,60.34376640086161,
1,102,0,102,0,,,,,,,,,,None,856.3991905001458,856.3991905001458,856.3991905001458,856.3991905001458,856.3991905001458,856.3991905001458,f,0.23395229992456734,856.6664076999296,856.6664076999296,856.6664076999296,856.6664076999296,856.6664076999296,856.6664076999296,856.9643922001123,856.9643922001123,858.9588115001097,858.9588115001097,858.9588115001097,858.9588115001097,858.9588115001097,858.9588115001097,858.9588115001097,858.9588115001097,858.9588115001097,858.9588115001097,858.9588115001097,858.9588115001097,858.9588115001097,858.9588115001097,858.9588115001097,858.9588115001097,858.9588115001097,861.4684063999448,861.4684063999448,861.4684063999448,861.4684063999448,861.4684063999448,50,70,47,50,70,50,7.0,0.3978027000557631,861.8836946000811,863.6626192999538,,,,,,,,,159,f,1,2023-04-03_16h41.18.569,RL,2022.2.4,60.34376640086161,
1,103,0,103,0,,,,,,,,,,None,863.6626192999538,863.6626192999538,863.6626192999538,863.6626192999538,863.6626192999538,863.6626192999538,f,0.19917529984377325,863.881914800033,863.881914800033,863.881914800033,863.881914800033,863.881914800033,863.881914800033,864.1784657000098,864.1784657000098,865.29186820006,865.29186820006,865.29186820006,865.29186820006,865.29186820006,865.29186820006,865.29186820006,865.29186820006,865.29186820006,865.29186820006,865.29186820006,865.29186820006,865.29186820006,865.29186820006,865.29186820006,865.29186820006,865.29186820006,867.8007076999638,867.8007076999638,867.8007076999638,867.8007076999638,867.8007076999638,55,72,54,51,72,35,7.0,0.06539909983985126,867.8841172999237,869.7625611000694,,,,,,,,,159,f,1,2023-04-03_16h41.18.569,RL,2022.2.4,60.34376640086161,
1,104,0,104,0,,,,,,,,,,None,869.7625611000694,869.7625611000694,869.7625611000694,869.7625611000694,869.7625611000694,869.7625611000694,f,0.26378990011289716,870.0490803001449,870.0490803001449,870.0490803001449,870.0490803001449,870.0490803001449,870.0490803001449,870.3447088999674,870.3447088999674,872.2728949000593,872.2728949000593,872.2728949000593,872.2728949000593,872.2728949000593,872.2728949000593,872.2728949000593,872.2728949000593,872.2728949000593,872.2728949000593,872.2728949000593,872.2728949000593,872.2728949000593,872.2728949000593,872.2728949000593,872.2728949000593,872.2728949000593,874.7813510999549,874.7813510999549,874.7813510999549,874.7813510999549,874.7813510999549,54,75,52,51,75,36,7.0,0.3493220000527799,875.147915800102,877.0597155001014,,,,,,,,,159,f,1,2023-04-03_16h41.18.569,RL,2022.2.4,60.34376640086161,
1,105,0,105,0,,,,,,,,,,None,877.0597155001014,877.0597155001014,877.0597155001014,877.0597155001014,877.0597155001014,877.0597155001014,f,0.3605641999747604,877.4432936001103,877.4432936001103,877.4432936001103,877.4432936001103,877.4432936001103,877.4432936001103,877.7411478001159,877.7411478001159,879.6530603999272,879.6530603999272,879.6530603999272,879.6530603999272,879.6530603999272,879.6530603999272,879.6530603999272,879.6530603999272,879.6530603999272,879.6530603999272,879.6530603999272,879.6530603999272,879.6530603999272,879.6530603999272,879.6530603999272,879.6530603999272,879.6530603999272,882.1618973000441,882.1618973000441,882.1618973000441,882.1618973000441,882.1618973000441,57,73,51,51,73,53,7.0,0.6138524000998586,882.7933513000607,884.7886014999822,,,,,,,,,159,f,1,2023-04-03_16h41.18.569,RL,2022.2.4,60.34376640086161,
1,106,0,106,0,,,,,,,,,,None,884.7886014999822,884.7886014999822,884.7886014999822,884.7886014999822,884.7886014999822,884.7886014999822,f,0.16754449997097254,884.9911204001401,884.9911204001401,884.9911204001401,884.9911204001401,884.9911204001401,884.9911204001401,885.2873832001351,885.2873832001351,887.2985525999684,887.2985525999684,887.2985525999684,887.2985525999684,887.2985525999684,887.2985525999684,887.2985525999684,887.2985525999684,887.2985525999684,887.2985525999684,887.2985525999684,887.2985525999684,887.2985525999684,887.2985525999684,887.2985525999684,887.2985525999684,887.2985525999684,889.8073939001188,889.8073939001188,889.8073939001188,889.8073939001188,889.8073939001188,59,74,55,56,74,55,7.0,0.014566400088369846,889.8406192001421,891.8192128001247,,,,,,,,,159,f,1,2023-04-03_16h41.18.569,RL,2022.2.4,60.34376640086161,
1,107,0,107,0,,,,,,,,,,None,891.8192128001247,891.8192128001247,891.8192128001247,891.8192128001247,891.8192128001247,891.8192128001247,f,0.20551320002414286,892.055808500154,892.055808500154,892.055808500154,892.055808500154,892.055808500154,892.055808500154,892.351499499986,892.351499499986,893.381867500022,893.381867500022,893.398147800006,893.398147800006,893.398147800006,893.398147800006,893.398147800006,893.398147800006,893.398147800006,893.398147800006,893.398147800006,893.398147800006,893.398147800006,893.398147800006,893.398147800006,893.398147800006,893.398147800006,895.9076003001537,895.9076003001537,895.9076003001537,895.9076003001537,895.9076003001537,57,80,63,44,80,44,7.0,0.4460668999236077,896.3722988001537,898.2681434999686,,,,,,,,,159,f,1,2023-04-03_16h41.18.569,RL,2022.2.4,60.34376640086161,
1,108,0,108,0,,,,,,,,,,None,898.2681434999686,898.2681434999686,898.2681434999686,898.2681434999686,898.2681434999686,898.2681434999686,f,0.47560760006308556,898.7692959001288,898.7692959001288,898.7692959001288,898.7692959001288,898.7692959001288,898.7692959001288,899.0665788000915,899.0665788000915,900.8946452999953,900.8946452999953,900.8946452999953,900.8946452999953,900.8946452999953,900.8946452999953,900.8946452999953,900.8946452999953,900.8946452999953,900.8946452999953,900.8946452999953,900.8946452999953,900.8946452999953,900.8946452999953,900.8946452999953,900.8946452999953,900.8946452999953,903.4032548000105,903.4032548000105,903.4032548000105,903.4032548000105,903.4032548000105,57,68,58,49,68,49,7.0,0.5136523998808116,903.9357007001527,905.6483988000546,,,,,,,,,159,f,1,2023-04-03_16h41.18.569,RL,2022.2.4,60.34376640086161,
1,109,0,109,0,,,,,,,,,,None,905.6483988000546,905.6483988000546,905.6483988000546,905.6483988000546,905.6483988000546,905.6483988000546,f,0.7687190999276936,906.4485816000961,906.4485816000961,906.4485816000961,906.4485816000961,906.4485816000961,906.4485816000961,906.7454788000323,906.7454788000323,908.1417632999364,908.1417632999364,908.1417632999364,908.1417632999364,908.1417632999364,908.1417632999364,908.1417632999364,908.1417632999364,908.1417632999364,908.1417632999364,908.1417632999364,908.1417632999364,908.1417632999364,908.1417632999364,908.1417632999364,908.1417632999364,908.1417632999364,910.6503457999788,910.6503457999788,910.6503457999788,910.6503457999788,910.6503457999788,59,64,61,47,64,48,7.0,0.3142457001376897,910.9829947000835,912.678967300104,,,,,,,,,159,f,1,2023-04-03_16h41.18.569,RL,2022.2.4,60.34376640086161,
1,110,0,110,0,,,,,,,,,,None,912.678967300104,912.678967300104,912.678967300104,912.678967300104,912.678967300104,912.678967300104,f,0.7664823001250625,913.4775072000921,913.4775072000921,913.4775072000921,913.4775072000921,913.4775072000921,913.4775072000921,913.7762901999522,913.7762901999522,915.7039580000564,915.7039580000564,915.7039580000564,915.7039580000564,915.7039580000564,915.7039580000564,915.7039580000564,915.7039580000564,915.7039580000564,915.7039580000564,915.7039580000564,915.7039580000564,915.7039580000564,915.7039580000564,915.7039580000564,915.7039580000564,915.7039580000564,918.2132983000483,918.2132983000483,918.2132983000483,918.2132983000483,918.2132983000483,55,71,57,44,71,44,7.0,0.5147679999936372,918.7454268999863,920.4575994999614,,,,,,,,,159,f,1,2023-04-03_16h41.18.569,RL,2022.2.4,60.34376640086161,
1,111,0,111,0,,,,,,,,,,None,920.4575994999614,920.4575994999614,920.4575994999614,920.4575994999614,920.4575994999614,920.4575994999614,f,0.015457999892532825,920.4942874999251,920.4942874999251,920.4942874999251,920.4942874999251,920.4942874999251,920.4942874999251,920.7903263000771,920.7903263000771,921.6048435999546,921.6048435999546,921.6048435999546,921.6048435999546,921.6048435999546,921.6048435999546,921.6048435999546,921.6048435999546,921.6048435999546,921.6048435999546,921.6048435999546,921.6048435999546,921.6048435999546,921.6048435999546,921.6048435999546,921.6048435999546,921.6048435999546,924.11406120006,924.11406120006,924.11406120006,924.11406120006,924.11406120006,55,72,56,49,72,40,7.0,0.39830100000835955,924.5294612001162,926.3250971001107,,,,,,,,,159,f,1,2023-04-03_16h41.18.569,RL,2022.2.4,60.34376640086161,
1,112,0,112,0,,,,,,,,,,None,926.3250971001107,926.3250971001107,926.3250971001107,926.3250971001107,926.3250971001107,926.3250971001107,f,0.29719540011137724,926.644455099944,926.644455099944,926.644455099944,926.644455099944,926.644455099944,926.644455099944,926.9404708000366,926.9404708000366,928.1039390000515,928.1039390000515,928.1039390000515,928.1039390000515,928.1039390000515,928.1039390000515,928.1039390000515,928.1039390000515,928.1039390000515,928.1039390000515,928.1039390000515,928.1039390000515,928.1039390000515,928.1039390000515,928.1039390000515,928.1039390000515,928.1039390000515,930.6124889000785,930.6124889000785,930.6124889000785,930.6124889000785,930.6124889000785,53,70,50,55,70,54,7.0,0.3147736999671906,930.9452035001013,932.7077619000338,,,,,,,,,159,f,1,2023-04-03_16h41.18.569,RL,2022.2.4,60.34376640086161,
1,113,0,113,0,,,,,,,,,,None,932.7077619000338,932.7077619000338,932.7077619000338,932.7077619000338,932.7077619000338,932.7077619000338,f,0.2239211001433432,932.9585180000868,932.9585180000868,932.9585180000868,932.9585180000868,932.9585180000868,932.9585180000868,933.2563724999782,933.2563724999782,935.2011935999617,935.2011935999617,935.2011935999617,935.2011935999617,935.2011935999617,935.2011935999617,935.2011935999617,935.2011935999617,935.2011935999617,935.2011935999617,935.2011935999617,935.2011935999617,935.2011935999617,935.2011935999617,935.2011935999617,935.2011935999617,935.2011935999617,937.7102735999506,937.7102735999506,937.7102735999506,937.7102735999506,937.7102735999506,48,57,37,53,57,53,7.0,0.38063209992833436,938.1090584001504,939.8049719999544,,,,,,,,,159,f,1,2023-04-03_16h41.18.569,RL,2022.2.4,60.34376640086161,
1,114,0,114,0,,,,,,,,,,None,939.8049719999544,939.8049719999544,939.8049719999544,939.8049719999544,939.8049719999544,939.8049719999544,f,0.17520279996097088,940.0072113000788,940.0072113000788,940.0072113000788,940.0072113000788,940.0072113000788,940.0072113000788,940.3038204000331,940.3038204000331,942.1820686000865,942.1820686000865,942.1820686000865,942.1820686000865,942.1820686000865,942.1820686000865,942.1820686000865,942.1820686000865,942.1820686000865,942.1820686000865,942.1820686000865,942.1820686000865,942.1820686000865,942.1820686000865,942.1820686000865,942.1820686000865,942.1820686000865,944.6912184001412,944.6912184001412,944.6912184001412,944.6912184001412,944.6912184001412,41,61,46,51,61,65,1.0,0.39770129998214543,945.1060917000286,946.8856919000391,,,,,,,,,159,f,1,2023-04-03_16h41.18.569,RL,2022.2.4,60.34376640086161,
1,115,0,115,0,,,,,,,,,,None,946.8856919000391,946.8856919000391,946.8856919000391,946.8856919000391,946.8856919000391,946.8856919000391,r,0.477210900047794,947.3871875000186,947.3871875000186,947.3871875000186,947.3871875000186,947.3871875000186,947.3871875000186,947.6838412999641,947.6838412999641,949.162538100034,949.162538100034,949.179374499945,949.179374499945,949.179374499945,949.179374499945,949.179374499945,949.179374499945,949.179374499945,949.179374499945,949.179374499945,949.179374499945,949.179374499945,949.179374499945,949.179374499945,949.179374499945,949.179374499945,951.6884335000068,951.6884335000068,951.6884335000068,951.6884335000068,951.6884335000068,42,46,48,56,42,57,2.0,0.6975231999531388,952.4034446000587,954.1824141999241,,,,,,,,,159,f,1,2023-04-03_16h41.18.569,RL,2022.2.4,60.34376640086161,
