bandit,trials.thisRepN,trials.thisTrialN,trials.thisN,trials.thisIndex,instru_img1.started,instru_resp.started,instru_resp.keys,instru_resp.rt,instru_img2.started,instru_resp2.started,instru_resp2.keys,instru_resp2.rt,fixbefore_2.started,rest_response.keys,red.started,green.started,yellow.started,blue.started,choose_bandit.started,Fixation.started,choose_bandit.keys,choose_bandit.rt,black.started,red_2.started,green_2.started,yellow_2.started,blue_2.started,fixation_2.started,docs.started,image_2.started,docs.stopped,image_2.stopped,black.stopped,red_2.stopped,green_2.stopped,yellow_2.stopped,blue_2.stopped,fixation_2.stopped,black_com.started,reward_sub.started,palyerb.started,reward__sub.started,compare.started,red_compare.started,green_com.started,yellow_com.started,blue_com.started,image_3.started,slider.started,text.started,image_4.started,image_5.started,rewardyellow,rewardred,rewardblue,rewardgreen,subchoose,playerb,slider.response,slider.rt,intertrialfix.started,intertrialfix.stopped,rest_image.started,rest_response.started,rest_response.rt,image.started,key_resp.started,key_resp.keys,participant,Gender,Age,date,expName,psychopyVersion,frameRate,
,,,,,31.973453671002062,31.973453671002062,space,1.8757077620102791,,,,,,,,,,,,,,,,,,,,,,,,,,,,,,,,,,,,,,,,,,,,,,,,,,,,,,,,,,,,,160,m,22,2023-04-05_09h45.29.658,RL,2022.2.4,59.92912984926362,
,,,,,,,,,33.89413996800431,33.89413996800431,y,51.008963318992755,,,,,,,,,,,,,,,,,,,,,,,,,,,,,,,,,,,,,,,,,,,,,,,,,,,,,,,,,160,m,22,2023-04-05_09h45.29.658,RL,2022.2.4,59.92912984926362,
1,0,0,0,0,,,,,,,,,84.92091190601059,None,85.94742773100734,85.94742773100734,85.94742773100734,85.94742773100734,85.94742773100734,85.94742773100734,r,0.7045041309902444,86.71310607501073,86.71310607501073,86.71310607501073,86.71310607501073,86.71310607501073,86.71310607501073,86.96075670199934,86.96075670199934,88.31226699800754,88.31226699800754,88.37371944800543,88.37371944800543,88.37371944800543,88.37371944800543,88.37371944800543,88.37371944800543,88.37371944800543,88.37371944800543,88.37371944800543,88.37371944800543,88.37371944800543,88.37371944800543,88.37371944800543,88.37371944800543,88.37371944800543,90.88887534300738,90.88887534300738,90.88887534300738,90.88887534300738,90.88887534300738,66,48,40,45,66,37,6.0,2.08133775999886,92.98355141399952,94.50496254800237,,,,,,,160,m,22,2023-04-05_09h45.29.658,RL,2022.2.4,59.92912984926362,
1,1,0,1,0,,,,,,,,,,None,94.50496254800237,94.50496254800237,94.50496254800237,94.50496254800237,94.50496254800237,94.50496254800237,i,0.39363884599879384,94.9479085940111,94.9479085940111,94.9479085940111,94.9479085940111,94.9479085940111,94.9479085940111,95.22111929200764,95.22111929200764,97.13387365901144,97.13387365901144,97.17710176800028,97.17710176800028,97.17710176800028,97.17710176800028,97.17710176800028,97.17710176800028,97.17710176800028,97.17710176800028,97.17710176800028,97.17710176800028,97.17710176800028,97.17710176800028,97.17710176800028,97.17710176800028,97.17710176800028,99.68028982399846,99.68028982399846,99.68028982399846,99.68028982399846,99.68028982399846,65,40,31,44,31,57,3.0,1.8276877600001171,101.52393909700913,103.50929563700629,,,,,,,160,m,22,2023-04-05_09h45.29.658,RL,2022.2.4,59.92912984926362,
1,2,0,2,0,,,,,,,,,,None,103.50929563700629,103.50929563700629,103.50929563700629,103.50929563700629,103.50929563700629,103.50929563700629,f,0.41696089100150857,103.96326447901083,103.96326447901083,103.96326447901083,103.96326447901083,103.96326447901083,103.96326447901083,104.2353350110061,104.2353350110061,106.0365335450042,106.0365335450042,106.07797027300694,106.07797027300694,106.07797027300694,106.07797027300694,106.07797027300694,106.07797027300694,106.07797027300694,106.07797027300694,106.07797027300694,106.07797027300694,106.07797027300694,106.07797027300694,106.07797027300694,106.07797027300694,106.07797027300694,108.58736627000326,108.58736627000326,108.58736627000326,108.58736627000326,108.58736627000326,68,40,30,50,40,45,3.0,1.7875278760038782,110.39108534800471,111.93014465800661,,,,,,,160,m,22,2023-04-05_09h45.29.658,RL,2022.2.4,59.92912984926362,
1,3,0,3,0,,,,,,,,,,None,111.93014465800661,111.93014465800661,111.93014465800661,111.93014465800661,111.93014465800661,111.93014465800661,j,0.367717052999069,112.33577520999825,112.33577520999825,112.33577520999825,112.33577520999825,112.33577520999825,112.33577520999825,112.62070624600165,112.62070624600165,114.34269089200825,114.34269089200825,114.36763953200716,114.36763953200716,114.36763953200716,114.36763953200716,114.36763953200716,114.36763953200716,114.36763953200716,114.36763953200716,114.36763953200716,114.36763953200716,114.36763953200716,114.36763953200716,114.36763953200716,114.36763953200716,114.36763953200716,116.88112519300194,116.88112519300194,116.88112519300194,116.88112519300194,116.88112519300194,71,37,37,42,42,63,2.0,1.0632675150118303,117.95574415700685,119.7679380900081,,,,,,,160,m,22,2023-04-05_09h45.29.658,RL,2022.2.4,59.92912984926362,
1,4,0,4,0,,,,,,,,,,None,119.7679380900081,119.7679380900081,119.7679380900081,119.7679380900081,119.7679380900081,119.7679380900081,r,0.3617174949904438,120.17343606700888,120.17343606700888,120.17343606700888,120.17343606700888,120.17343606700888,120.17343606700888,120.45186953899974,120.45186953899974,121.32527592600673,121.32527592600673,121.34920377899834,121.34920377899834,121.34920377899834,121.34920377899834,121.34920377899834,121.34920377899834,121.34920377899834,121.34920377899834,121.34920377899834,121.34920377899834,121.34920377899834,121.34920377899834,121.34920377899834,121.34920377899834,121.34920377899834,123.84737573900202,123.84737573900202,123.84737573900202,123.84737573900202,123.84737573900202,70,41,31,40,70,66,5.0,2.355082783004036,126.2193205299991,128.10538160400756,,,,,,,160,m,22,2023-04-05_09h45.29.658,RL,2022.2.4,59.92912984926362,
1,5,0,5,0,,,,,,,,,,None,128.10538160400756,128.10538160400756,128.10538160400756,128.10538160400756,128.10538160400756,128.10538160400756,r,0.3022722379973857,128.45754642500833,128.45754642500833,128.45754642500833,128.45754642500833,128.45754642500833,128.45754642500833,128.73133323100046,128.73133323100046,129.71177891000116,129.71177891000116,129.75337015101104,129.75337015101104,129.75337015101104,129.75337015101104,129.75337015101104,129.75337015101104,129.75337015101104,129.75337015101104,129.75337015101104,129.75337015101104,129.75337015101104,129.75337015101104,129.75337015101104,129.75337015101104,129.75337015101104,132.26487950600858,132.26487950600858,132.26487950600858,132.26487950600858,132.26487950600858,72,43,28,39,72,66,6.0,2.3854664149985183,134.66337079500954,136.39112759300042,,,,,,,160,m,22,2023-04-05_09h45.29.658,RL,2022.2.4,59.92912984926362,
1,6,0,6,0,,,,,,,,,,None,136.39112759300042,136.39112759300042,136.39112759300042,136.39112759300042,136.39112759300042,136.39112759300042,r,0.3563646789989434,136.8011474970117,136.8011474970117,136.8011474970117,136.8011474970117,136.8011474970117,136.8011474970117,137.06985123999766,137.06985123999766,138.793686739009,138.793686739009,138.83462957201118,138.83462957201118,138.83462957201118,138.83462957201118,138.83462957201118,138.83462957201118,138.83462957201118,138.83462957201118,138.83462957201118,138.83462957201118,138.83462957201118,138.83462957201118,138.83462957201118,138.83462957201118,138.83462957201118,141.33961468900088,141.33961468900088,141.33961468900088,141.33961468900088,141.33961468900088,76,43,23,40,76,71,5.0,2.751287532999413,144.1050209840032,145.7795765470073,,,,,,,160,m,22,2023-04-05_09h45.29.658,RL,2022.2.4,59.92912984926362,
1,7,0,7,0,,,,,,,,,,None,145.7795765470073,145.7795765470073,145.7795765470073,145.7795765470073,145.7795765470073,145.7795765470073,r,0.3635521889955271,146.18736139200337,146.18736139200337,146.18736139200337,146.18736139200337,146.18736139200337,146.18736139200337,146.45841064299748,146.45841064299748,147.59027281100862,147.59027281100862,147.61177696401137,147.61177696401137,147.61177696401137,147.61177696401137,147.61177696401137,147.61177696401137,147.61177696401137,147.61177696401137,147.61177696401137,147.61177696401137,147.61177696401137,147.61177696401137,147.61177696401137,147.61177696401137,147.61177696401137,150.12584905599942,150.12584905599942,150.12584905599942,150.12584905599942,150.12584905599942,66,43,23,31,66,64,4.0,2.1831059619871667,152.3223017200071,154.18500581900298,,,,,,,160,m,22,2023-04-05_09h45.29.658,RL,2022.2.4,59.92912984926362,
1,8,0,8,0,,,,,,,,,,None,154.18500581900298,154.18500581900298,154.18500581900298,154.18500581900298,154.18500581900298,154.18500581900298,f,0.3316885320091387,154.5578152930102,154.5578152930102,154.5578152930102,154.5578152930102,154.5578152930102,154.5578152930102,154.8276339110016,154.8276339110016,156.424230567005,156.424230567005,156.4658922360104,156.4658922360104,156.4658922360104,156.4658922360104,156.4658922360104,156.4658922360104,156.4658922360104,156.4658922360104,156.4658922360104,156.4658922360104,156.4658922360104,156.4658922360104,156.4658922360104,156.4658922360104,156.4658922360104,158.96412794099888,158.96412794099888,158.96412794099888,158.96412794099888,158.96412794099888,56,37,28,34,37,61,2.0,1.7829538689984474,160.76224121901032,162.55424027799745,,,,,,,160,m,22,2023-04-05_09h45.29.658,RL,2022.2.4,59.92912984926362,
1,9,0,9,0,,,,,,,,,,None,162.55424027799745,162.55424027799745,162.55424027799745,162.55424027799745,162.55424027799745,162.55424027799745,i,0.38604475698957685,162.97771482600365,162.97771482600365,162.97771482600365,162.97771482600365,162.97771482600365,162.97771482600365,163.2473392910033,163.2473392910033,164.72075734700775,164.72075734700775,164.7429522320017,164.7429522320017,164.7429522320017,164.7429522320017,164.7429522320017,164.7429522320017,164.7429522320017,164.7429522320017,164.7429522320017,164.7429522320017,164.7429522320017,164.7429522320017,164.7429522320017,164.7429522320017,164.7429522320017,167.2442484380008,167.2442484380008,167.2442484380008,167.2442484380008,167.2442484380008,60,38,39,35,39,66,1.0,1.7043318670039298,168.96192381699802,170.9589441880089,,,,,,,160,m,22,2023-04-05_09h45.29.658,RL,2022.2.4,59.92912984926362,
1,10,0,10,0,,,,,,,,,,None,170.9589441880089,170.9589441880089,170.9589441880089,170.9589441880089,170.9589441880089,170.9589441880089,r,0.24184924499422777,171.24904752100701,171.24904752100701,171.24904752100701,171.24904752100701,171.24904752100701,171.24904752100701,171.51839748000202,171.51839748000202,173.06933859900164,173.06933859900164,173.10727981200034,173.10727981200034,173.10727981200034,173.10727981200034,173.10727981200034,173.10727981200034,173.10727981200034,173.10727981200034,173.10727981200034,173.10727981200034,173.10727981200034,173.10727981200034,173.10727981200034,173.10727981200034,173.10727981200034,175.60431261800113,175.60431261800113,175.60431261800113,175.60431261800113,175.60431261800113,67,36,36,38,67,63,5.0,2.1152467130013974,177.73488217299746,179.37948104800307,,,,,,,160,m,22,2023-04-05_09h45.29.658,RL,2022.2.4,59.92912984926362,
1,11,0,11,0,,,,,,,,,,None,179.37948104800307,179.37948104800307,179.37948104800307,179.37948104800307,179.37948104800307,179.37948104800307,j,0.25931067200144753,179.67781053800718,179.67781053800718,179.67781053800718,179.67781053800718,179.67781053800718,179.67781053800718,179.95233530500263,179.95233530500263,181.49775801099895,181.49775801099895,181.52577674500935,181.52577674500935,181.52577674500935,181.52577674500935,181.52577674500935,181.52577674500935,181.52577674500935,181.52577674500935,181.52577674500935,181.52577674500935,181.52577674500935,181.52577674500935,181.52577674500935,181.52577674500935,181.52577674500935,184.0262180389982,184.0262180389982,184.0262180389982,184.0262180389982,184.0262180389982,64,45,36,29,29,61,2.0,1.1847039560088888,185.22520642500604,186.7664553430077,,,,,,,160,m,22,2023-04-05_09h45.29.658,RL,2022.2.4,59.92912984926362,
1,12,0,12,0,,,,,,,,,,None,186.7664553430077,186.7664553430077,186.7664553430077,186.7664553430077,186.7664553430077,186.7664553430077,r,0.2755404529889347,187.08997581200674,187.08997581200674,187.08997581200674,187.08997581200674,187.08997581200674,187.08997581200674,187.35991740500322,187.35991740500322,188.94899604600505,188.94899604600505,188.98800664300506,188.98800664300506,188.98800664300506,188.98800664300506,188.98800664300506,188.98800664300506,188.98800664300506,188.98800664300506,188.98800664300506,188.98800664300506,188.98800664300506,188.98800664300506,188.98800664300506,188.98800664300506,188.98800664300506,191.49486849700043,191.49486849700043,191.49486849700043,191.49486849700043,191.49486849700043,70,46,32,44,70,36,6.0,2.2340831280016573,193.7453909379983,195.71768066300137,,,,,,,160,m,22,2023-04-05_09h45.29.658,RL,2022.2.4,59.92912984926362,
1,13,0,13,0,,,,,,,,,,None,195.71768066300137,195.71768066300137,195.71768066300137,195.71768066300137,195.71768066300137,195.71768066300137,r,0.26167862200236414,196.02014609100297,196.02014609100297,196.02014609100297,196.02014609100297,196.02014609100297,196.02014609100297,196.29229323699838,196.29229323699838,197.71507701500377,197.71507701500377,197.7370319610054,197.7370319610054,197.7370319610054,197.7370319610054,197.7370319610054,197.7370319610054,197.7370319610054,197.7370319610054,197.7370319610054,197.7370319610054,197.7370319610054,197.7370319610054,197.7370319610054,197.7370319610054,197.7370319610054,200.25524100400798,200.25524100400798,200.25524100400798,200.25524100400798,200.25524100400798,61,38,31,42,61,72,3.0,0.814212037003017,201.08233935100725,202.63885108999966,,,,,,,160,m,22,2023-04-05_09h45.29.658,RL,2022.2.4,59.92912984926362,
1,14,0,14,0,,,,,,,,,,None,202.63885108999966,202.63885108999966,202.63885108999966,202.63885108999966,202.63885108999966,202.63885108999966,r,0.2519139499927405,202.92685256800905,202.92685256800905,202.92685256800905,202.92685256800905,202.92685256800905,202.92685256800905,203.19580212701112,203.19580212701112,204.13286438900104,204.13286438900104,204.15634720699745,204.15634720699745,204.15634720699745,204.15634720699745,204.15634720699745,204.15634720699745,204.15634720699745,204.15634720699745,204.15634720699745,204.15634720699745,204.15634720699745,204.15634720699745,204.15634720699745,204.15634720699745,204.15634720699745,206.65666719900037,206.65666719900037,206.65666719900037,206.65666719900037,206.65666719900037,52,40,29,41,52,67,2.0,1.665161947006709,208.3344423110102,209.8940197769989,,,,,,,160,m,22,2023-04-05_09h45.29.658,RL,2022.2.4,59.92912984926362,
1,15,0,15,0,,,,,,,,,,None,209.8940197769989,209.8940197769989,209.8940197769989,209.8940197769989,209.8940197769989,209.8940197769989,f,0.2651148760051001,210.19830960500985,210.19830960500985,210.19830960500985,210.19830960500985,210.19830960500985,210.19830960500985,210.4667961170053,210.4667961170053,211.3485001240042,211.3485001240042,211.3922785980103,211.3922785980103,211.3922785980103,211.3922785980103,211.3922785980103,211.3922785980103,211.3922785980103,211.3922785980103,211.3922785980103,211.3922785980103,211.3922785980103,211.3922785980103,211.3922785980103,211.3922785980103,211.3922785980103,213.9053410320048,213.9053410320048,213.9053410320048,213.9053410320048,213.9053410320048,62,45,37,37,45,58,2.0,0.7697985590057215,214.68793525100045,216.31274913001107,,,,,,,160,m,22,2023-04-05_09h45.29.658,RL,2022.2.4,59.92912984926362,
1,16,0,16,0,,,,,,,,,,None,216.31274913001107,216.31274913001107,216.31274913001107,216.31274913001107,216.31274913001107,216.31274913001107,j,0.8262338089989498,217.18202762000146,217.18202762000146,217.18202762000146,217.18202762000146,217.18202762000146,217.18202762000146,217.4545780650078,217.4545780650078,219.4028822370019,219.4028822370019,219.44317318301182,219.44317318301182,219.44317318301182,219.44317318301182,219.44317318301182,219.44317318301182,219.44317318301182,219.44317318301182,219.44317318301182,219.44317318301182,219.44317318301182,219.44317318301182,219.44317318301182,219.44317318301182,219.44317318301182,221.93937949000974,221.93937949000974,221.93937949000974,221.93937949000974,221.93937949000974,70,42,38,40,40,67,2.0,1.3044334150035866,223.2606381240039,225.21725929500826,,,,,,,160,m,22,2023-04-05_09h45.29.658,RL,2022.2.4,59.92912984926362,
1,17,0,17,0,,,,,,,,,,None,225.21725929500826,225.21725929500826,225.21725929500826,225.21725929500826,225.21725929500826,225.21725929500826,i,0.33269243899849243,225.60356639200472,225.60356639200472,225.60356639200472,225.60356639200472,225.60356639200472,225.60356639200472,225.87471684601041,225.87471684601041,227.56311638699844,227.56311638699844,227.6025476960058,227.6025476960058,227.6025476960058,227.6025476960058,227.6025476960058,227.6025476960058,227.6025476960058,227.6025476960058,227.6025476960058,227.6025476960058,227.6025476960058,227.6025476960058,227.6025476960058,227.6025476960058,227.6025476960058,230.11125773801177,230.11125773801177,230.11125773801177,230.11125773801177,230.11125773801177,68,33,26,46,26,74,1.0,0.602124601995456,230.72627328800445,232.58653078300995,,,,,,,160,m,22,2023-04-05_09h45.29.658,RL,2022.2.4,59.92912984926362,
1,18,0,18,0,,,,,,,,,,None,232.58653078300995,232.58653078300995,232.58653078300995,232.58653078300995,232.58653078300995,232.58653078300995,r,0.2735309489944484,232.90417326700117,232.90417326700117,232.90417326700117,232.90417326700117,232.90417326700117,232.90417326700117,233.18016333700507,233.18016333700507,234.8009756399988,234.8009756399988,234.82387775300595,234.82387775300595,234.82387775300595,234.82387775300595,234.82387775300595,234.82387775300595,234.82387775300595,234.82387775300595,234.82387775300595,234.82387775300595,234.82387775300595,234.82387775300595,234.82387775300595,234.82387775300595,234.82387775300595,237.32923935299914,237.32923935299914,237.32923935299914,237.32923935299914,237.32923935299914,66,38,45,43,66,66,4.0,0.6454598349955631,237.9922480610112,239.9740839349979,,,,,,,160,m,22,2023-04-05_09h45.29.658,RL,2022.2.4,59.92912984926362,
1,19,0,19,0,,,,,,,,,,None,239.9740839349979,239.9740839349979,239.9740839349979,239.9740839349979,239.9740839349979,239.9740839349979,r,0.2441777269996237,240.25903743100935,240.25903743100935,240.25903743100935,240.25903743100935,240.25903743100935,240.25903743100935,240.5318838920066,240.5318838920066,242.17875418601034,242.17875418601034,242.219358871007,242.219358871007,242.219358871007,242.219358871007,242.219358871007,242.219358871007,242.219358871007,242.219358871007,242.219358871007,242.219358871007,242.219358871007,242.219358871007,242.219358871007,242.219358871007,242.219358871007,244.7298079290049,244.7298079290049,244.7298079290049,244.7298079290049,244.7298079290049,64,41,38,59,64,58,6.0,1.2763584750064183,246.01979836300598,247.8442770170077,,,,,,,160,m,22,2023-04-05_09h45.29.658,RL,2022.2.4,59.92912984926362,
1,20,0,20,0,,,,,,,,,,None,247.8442770170077,247.8442770170077,247.8442770170077,247.8442770170077,247.8442770170077,247.8442770170077,r,0.4410924809926655,248.33111018400814,248.33111018400814,248.33111018400814,248.33111018400814,248.33111018400814,248.33111018400814,248.6033085710078,248.6033085710078,250.1323808849993,250.1323808849993,250.1562018810073,250.1562018810073,250.1562018810073,250.1562018810073,250.1562018810073,250.1562018810073,250.1562018810073,250.1562018810073,250.1562018810073,250.1562018810073,250.1562018810073,250.1562018810073,250.1562018810073,250.1562018810073,250.1562018810073,252.67100379501062,252.67100379501062,252.67100379501062,252.67100379501062,252.67100379501062,51,33,43,54,51,66,3.0,0.8076670180016663,253.49290726101026,255.0981472709973,,,,,,,160,m,22,2023-04-05_09h45.29.658,RL,2022.2.4,59.92912984926362,
1,21,0,21,0,,,,,,,,,,None,255.0981472709973,255.0981472709973,255.0981472709973,255.0981472709973,255.0981472709973,255.0981472709973,i,0.28255396799067967,255.41766732699762,255.41766732699762,255.41766732699762,255.41766732699762,255.41766732699762,255.41766732699762,255.68854067900975,255.68854067900975,257.13231931500195,257.13231931500195,257.1538558489992,257.1538558489992,257.1538558489992,257.1538558489992,257.1538558489992,257.1538558489992,257.1538558489992,257.1538558489992,257.1538558489992,257.1538558489992,257.1538558489992,257.1538558489992,257.1538558489992,257.1538558489992,257.1538558489992,259.6698318999988,259.6698318999988,259.6698318999988,259.6698318999988,259.6698318999988,64,51,41,51,41,69,2.0,0.7998024910048116,260.48558253199735,262.3188929580065,,,,,,,160,m,22,2023-04-05_09h45.29.658,RL,2022.2.4,59.92912984926362,
1,22,0,22,0,,,,,,,,,,None,262.3188929580065,262.3188929580065,262.3188929580065,262.3188929580065,262.3188929580065,262.3188929580065,r,0.28241889498895034,262.6414924240089,262.6414924240089,262.6414924240089,262.6414924240089,262.6414924240089,262.6414924240089,262.91376693900384,262.91376693900384,264.207245950005,264.207245950005,264.24804213400057,264.24804213400057,264.24804213400057,264.24804213400057,264.24804213400057,264.24804213400057,264.24804213400057,264.24804213400057,264.24804213400057,264.24804213400057,264.24804213400057,264.24804213400057,264.24804213400057,264.24804213400057,264.24804213400057,266.7610918930004,266.7610918930004,266.7610918930004,266.7610918930004,266.7610918930004,67,39,39,53,67,57,5.0,1.8708281939907465,268.64596532299765,270.55043527000817,,,,,,,160,m,22,2023-04-05_09h45.29.658,RL,2022.2.4,59.92912984926362,
1,23,0,23,0,,,,,,,,,,None,270.55043527000817,270.55043527000817,270.55043527000817,270.55043527000817,270.55043527000817,270.55043527000817,r,0.34797928799525835,270.9493107090093,270.9493107090093,270.9493107090093,270.9493107090093,270.9493107090093,270.9493107090093,271.2146254130057,271.2146254130057,272.90998349800066,272.90998349800066,272.9540859749977,272.9540859749977,272.9540859749977,272.9540859749977,272.9540859749977,272.9540859749977,272.9540859749977,272.9540859749977,272.9540859749977,272.9540859749977,272.9540859749977,272.9540859749977,272.9540859749977,272.9540859749977,272.9540859749977,275.4601846000005,275.4601846000005,275.4601846000005,275.4601846000005,275.4601846000005,60,50,37,55,60,58,4.0,0.9597764490026748,276.43407365100575,278.3093908090086,,,,,,,160,m,22,2023-04-05_09h45.29.658,RL,2022.2.4,59.92912984926362,
1,24,0,24,0,,,,,,,,,,None,278.3093908090086,278.3093908090086,278.3093908090086,278.3093908090086,278.3093908090086,278.3093908090086,r,0.24642263499845285,278.6016652070102,278.6016652070102,278.6016652070102,278.6016652070102,278.6016652070102,278.6016652070102,278.87517465600104,278.87517465600104,280.84603797399905,280.84603797399905,280.86920303700026,280.86920303700026,280.86920303700026,280.86920303700026,280.86920303700026,280.86920303700026,280.86920303700026,280.86920303700026,280.86920303700026,280.86920303700026,280.86920303700026,280.86920303700026,280.86920303700026,280.86920303700026,280.86920303700026,283.37145514800795,283.37145514800795,283.37145514800795,283.37145514800795,283.37145514800795,56,50,44,55,56,67,2.0,1.0590859200019622,284.44759750900266,286.21294345099886,,,,,,,160,m,22,2023-04-05_09h45.29.658,RL,2022.2.4,59.92912984926362,
1,25,0,25,0,,,,,,,,,,None,286.21294345099886,286.21294345099886,286.21294345099886,286.21294345099886,286.21294345099886,286.21294345099886,i,0.2700823580089491,286.5326744949998,286.5326744949998,286.5326744949998,286.5326744949998,286.5326744949998,286.5326744949998,286.802448226008,286.802448226008,288.1624649870064,288.1624649870064,288.20105191999755,288.20105191999755,288.20105191999755,288.20105191999755,288.20105191999755,288.20105191999755,288.20105191999755,288.20105191999755,288.20105191999755,288.20105191999755,288.20105191999755,288.20105191999755,288.20105191999755,288.20105191999755,288.20105191999755,290.70176527100557,290.70176527100557,290.70176527100557,290.70176527100557,290.70176527100557,56,51,50,51,50,69,2.0,1.4028849460009951,292.12630770599935,294.0154685739981,,,,,,,160,m,22,2023-04-05_09h45.29.658,RL,2022.2.4,59.92912984926362,
1,26,0,26,0,,,,,,,,,,None,294.0154685739981,294.0154685739981,294.0154685739981,294.0154685739981,294.0154685739981,294.0154685739981,r,0.3979978739953367,294.4538491840067,294.4538491840067,294.4538491840067,294.4538491840067,294.4538491840067,294.4538491840067,294.72339305400965,294.72339305400965,296.56799957899784,296.56799957899784,296.6049225970055,296.6049225970055,296.6049225970055,296.6049225970055,296.6049225970055,296.6049225970055,296.6049225970055,296.6049225970055,296.6049225970055,296.6049225970055,296.6049225970055,296.6049225970055,296.6049225970055,296.6049225970055,296.6049225970055,299.11244421800075,299.11244421800075,299.11244421800075,299.11244421800075,299.11244421800075,45,52,60,48,45,52,2.0,1.2832746139902156,300.4085986620048,302.37076467899897,,,,,,,160,m,22,2023-04-05_09h45.29.658,RL,2022.2.4,59.92912984926362,
1,27,0,27,0,,,,,,,,,,None,302.37076467899897,302.37076467899897,302.37076467899897,302.37076467899897,302.37076467899897,302.37076467899897,j,0.2506315920036286,302.6715731930017,302.6715731930017,302.6715731930017,302.6715731930017,302.6715731930017,302.6715731930017,302.9431478129991,302.9431478129991,304.4811315380066,304.4811315380066,304.5199014490063,304.5199014490063,304.5199014490063,304.5199014490063,304.5199014490063,304.5199014490063,304.5199014490063,304.5199014490063,304.5199014490063,304.5199014490063,304.5199014490063,304.5199014490063,304.5199014490063,304.5199014490063,304.5199014490063,307.0321978569991,307.0321978569991,307.0321978569991,307.0321978569991,307.0321978569991,63,52,64,49,49,49,4.0,0.9881618249928579,308.0352513460093,309.6739247240039,,,,,,,160,m,22,2023-04-05_09h45.29.658,RL,2022.2.4,59.92912984926362,
1,28,0,28,0,,,,,,,,,,None,309.6739247240039,309.6739247240039,309.6739247240039,309.6739247240039,309.6739247240039,309.6739247240039,r,0.3249715650017606,310.0492875970085,310.0492875970085,310.0492875970085,310.0492875970085,310.0492875970085,310.0492875970085,310.3176718350005,310.3176718350005,312.08649094900466,312.08649094900466,312.1268201070052,312.1268201070052,312.1268201070052,312.1268201070052,312.1268201070052,312.1268201070052,312.1268201070052,312.1268201070052,312.1268201070052,312.1268201070052,312.1268201070052,312.1268201070052,312.1268201070052,312.1268201070052,312.1268201070052,314.6248883119988,314.6248883119988,314.6248883119988,314.6248883119988,314.6248883119988,42,45,59,54,42,30,5.0,0.8505536209995626,315.4882526680012,317.2778326150001,,,,,,,160,m,22,2023-04-05_09h45.29.658,RL,2022.2.4,59.92912984926362,
1,29,0,29,0,,,,,,,,,,None,317.2778326150001,317.2778326150001,317.2778326150001,317.2778326150001,317.2778326150001,317.2778326150001,r,0.21534396200149786,317.5486965050077,317.5486965050077,317.5486965050077,317.5486965050077,317.5486965050077,317.5486965050077,317.8172209690092,317.8172209690092,319.0199317430088,319.0199317430088,319.06036766299803,319.06036766299803,319.06036766299803,319.06036766299803,319.06036766299803,319.06036766299803,319.06036766299803,319.06036766299803,319.06036766299803,319.06036766299803,319.06036766299803,319.06036766299803,319.06036766299803,319.06036766299803,319.06036766299803,321.5681930920109,321.5681930920109,321.5681930920109,321.5681930920109,321.5681930920109,51,45,64,47,51,37,6.0,2.4076833840081235,323.9916847060085,325.84825669899874,,,,,,,160,m,22,2023-04-05_09h45.29.658,RL,2022.2.4,59.92912984926362,
1,30,0,30,0,,,,,,,,,,None,325.84825669899874,325.84825669899874,325.84825669899874,325.84825669899874,325.84825669899874,325.84825669899874,r,0.3063098330021603,326.2016863660101,326.2016863660101,326.2016863660101,326.2016863660101,326.2016863660101,326.2016863660101,326.4747012450098,326.4747012450098,327.290934618999,327.290934618999,327.31506921000255,327.31506921000255,327.31506921000255,327.31506921000255,327.31506921000255,327.31506921000255,327.31506921000255,327.31506921000255,327.31506921000255,327.31506921000255,327.31506921000255,327.31506921000255,327.31506921000255,327.31506921000255,327.31506921000255,329.8219691510021,329.8219691510021,329.8219691510021,329.8219691510021,329.8219691510021,56,44,67,44,56,65,3.0,1.2684299649990862,331.10263047000626,332.70041620300617,,,,,,,160,m,22,2023-04-05_09h45.29.658,RL,2022.2.4,59.92912984926362,
1,31,0,31,0,,,,,,,,,,None,332.70041620300617,332.70041620300617,332.70041620300617,332.70041620300617,332.70041620300617,332.70041620300617,r,0.22627972799818963,332.96768081199843,332.96768081199843,332.96768081199843,332.96768081199843,332.96768081199843,332.96768081199843,333.2402220360091,333.2402220360091,335.2142570630094,335.2142570630094,335.2370852879976,335.2370852879976,335.2370852879976,335.2370852879976,335.2370852879976,335.2370852879976,335.2370852879976,335.2370852879976,335.2370852879976,335.2370852879976,335.2370852879976,335.2370852879976,335.2370852879976,335.2370852879976,335.2370852879976,337.73527082800865,337.73527082800865,337.73527082800865,337.73527082800865,337.73527082800865,50,49,53,48,50,57,3.0,0.43061636001220904,338.177744628003,340.1040662029991,,,,,,,160,m,22,2023-04-05_09h45.29.658,RL,2022.2.4,59.92912984926362,
1,32,0,32,0,,,,,,,,,,None,340.1040662029991,340.1040662029991,340.1040662029991,340.1040662029991,340.1040662029991,340.1040662029991,i,0.4486947300028987,340.6062631550012,340.6062631550012,340.6062631550012,340.6062631550012,340.6062631550012,340.6062631550012,340.8777131020033,340.8777131020033,342.03139068699966,342.03139068699966,342.0719784380053,342.0719784380053,342.0719784380053,342.0719784380053,342.0719784380053,342.0719784380053,342.0719784380053,342.0719784380053,342.0719784380053,342.0719784380053,342.0719784380053,342.0719784380053,342.0719784380053,342.0719784380053,342.0719784380053,344.5855523640057,344.5855523640057,344.5855523640057,344.5855523640057,344.5855523640057,47,53,62,47,62,54,5.0,1.2808064900018508,345.8803101340018,347.89224707501126,,,,,,,160,m,22,2023-04-05_09h45.29.658,RL,2022.2.4,59.92912984926362,
1,33,0,33,0,,,,,,,,,,None,347.89224707501126,347.89224707501126,347.89224707501126,347.89224707501126,347.89224707501126,347.89224707501126,i,0.059070157003588974,347.99465680500725,347.99465680500725,347.99465680500725,347.99465680500725,347.99465680500725,347.99465680500725,348.26504932899843,348.26504932899843,349.6540750319982,349.6540750319982,349.7042625199974,349.7042625199974,349.7042625199974,349.7042625199974,349.7042625199974,349.7042625199974,349.7042625199974,349.7042625199974,349.7042625199974,349.7042625199974,349.7042625199974,349.7042625199974,349.7042625199974,349.7042625199974,349.7042625199974,352.2049205390067,352.2049205390067,352.2049205390067,352.2049205390067,352.2049205390067,53,48,58,51,58,54,4.0,0.8176368679996813,353.03554188500857,354.69540887400217,,,,,,,160,m,22,2023-04-05_09h45.29.658,RL,2022.2.4,59.92912984926362,
1,34,0,34,0,,,,,,,,,,None,354.69540887400217,354.69540887400217,354.69540887400217,354.69540887400217,354.69540887400217,354.69540887400217,i,0.25264141900697723,354.9984854580107,354.9984854580107,354.9984854580107,354.9984854580107,354.9984854580107,354.9984854580107,355.26916514500044,355.26916514500044,356.8917553700012,356.8917553700012,356.93076845900214,356.93076845900214,356.93076845900214,356.93076845900214,356.93076845900214,356.93076845900214,356.93076845900214,356.93076845900214,356.93076845900214,356.93076845900214,356.93076845900214,356.93076845900214,356.93076845900214,356.93076845900214,356.93076845900214,359.43405765701027,359.43405765701027,359.43405765701027,359.43405765701027,359.43405765701027,54,43,55,47,55,55,4.0,0.4279470979963662,359.873640935999,361.5998414360074,,,,,,,160,m,22,2023-04-05_09h45.29.658,RL,2022.2.4,59.92912984926362,
1,35,0,35,0,,,,,,,,,,None,361.5998414360074,361.5998414360074,361.5998414360074,361.5998414360074,361.5998414360074,361.5998414360074,i,0.33817411500785965,361.9860447520041,361.9860447520041,361.9860447520041,361.9860447520041,361.9860447520041,361.9860447520041,362.27145509200636,362.27145509200636,363.6555099130055,363.6555099130055,363.6780706610007,363.6780706610007,363.6780706610007,363.6780706610007,363.6780706610007,363.6780706610007,363.6780706610007,363.6780706610007,363.6780706610007,363.6780706610007,363.6780706610007,363.6780706610007,363.6780706610007,363.6780706610007,363.6780706610007,366.1784286110051,366.1784286110051,366.1784286110051,366.1784286110051,366.1784286110051,58,45,60,49,60,51,5.0,0.9567043849965557,367.1531094509992,369.0194437989994,,,,,,,160,m,22,2023-04-05_09h45.29.658,RL,2022.2.4,59.92912984926362,
1,36,0,36,0,,,,,,,,,,None,369.0194437989994,369.0194437989994,369.0194437989994,369.0194437989994,369.0194437989994,369.0194437989994,i,0.2689066750026541,369.3358901190077,369.3358901190077,369.3358901190077,369.3358901190077,369.3358901190077,369.3358901190077,369.60847563100106,369.60847563100106,371.3298156160017,371.3298156160017,371.3693485820113,371.3693485820113,371.3693485820113,371.3693485820113,371.3693485820113,371.3693485820113,371.3693485820113,371.3693485820113,371.3693485820113,371.3693485820113,371.3693485820113,371.3693485820113,371.3693485820113,371.3693485820113,371.3693485820113,373.8801523650036,373.8801523650036,373.8801523650036,373.8801523650036,373.8801523650036,61,39,58,50,58,53,5.0,0.9511344950005878,374.84349940900574,376.80581190800876,,,,,,,160,m,22,2023-04-05_09h45.29.658,RL,2022.2.4,59.92912984926362,
1,37,0,37,0,,,,,,,,,,None,376.80581190800876,376.80581190800876,376.80581190800876,376.80581190800876,376.80581190800876,376.80581190800876,i,0.2505851429887116,377.1082207349973,377.1082207349973,377.1082207349973,377.1082207349973,377.1082207349973,377.1082207349973,377.3835325320106,377.3835325320106,379.06917645000794,379.06917645000794,379.0913956040022,379.0913956040022,379.0913956040022,379.0913956040022,379.0913956040022,379.0913956040022,379.0913956040022,379.0913956040022,379.0913956040022,379.0913956040022,379.0913956040022,379.0913956040022,379.0913956040022,379.0913956040022,379.0913956040022,381.60160821500176,381.60160821500176,381.60160821500176,381.60160821500176,381.60160821500176,64,38,57,49,57,51,4.0,1.4711320380010875,383.0858815380052,384.64365855600045,,,,,,,160,m,22,2023-04-05_09h45.29.658,RL,2022.2.4,59.92912984926362,
1,38,0,38,0,,,,,,,,,,None,384.64365855600045,384.64365855600045,384.64365855600045,384.64365855600045,384.64365855600045,384.64365855600045,r,0.29806791999726556,384.99209636800515,384.99209636800515,384.99209636800515,384.99209636800515,384.99209636800515,384.99209636800515,385.2610825320007,385.2610825320007,386.1465914110013,386.1465914110013,386.1871221300098,386.1871221300098,386.1871221300098,386.1871221300098,386.1871221300098,386.1871221300098,386.1871221300098,386.1871221300098,386.1871221300098,386.1871221300098,386.1871221300098,386.1871221300098,386.1871221300098,386.1871221300098,386.1871221300098,388.6957331470039,388.6957331470039,388.6957331470039,388.6957331470039,388.6957331470039,70,35,57,55,70,74,4.0,1.4794207049999386,390.19006813599844,392.1275816510024,,,,,,,160,m,22,2023-04-05_09h45.29.658,RL,2022.2.4,59.92912984926362,
1,39,0,39,0,,,,,,,,,,None,392.1275816510024,392.1275816510024,392.1275816510024,392.1275816510024,392.1275816510024,392.1275816510024,i,0.2512133510026615,392.4346106220037,392.4346106220037,392.4346106220037,392.4346106220037,392.4346106220037,392.4346106220037,392.7057355050056,392.7057355050056,394.4213515279989,394.4213515279989,394.46258555800887,394.46258555800887,394.46258555800887,394.46258555800887,394.46258555800887,394.46258555800887,394.46258555800887,394.46258555800887,394.46258555800887,394.46258555800887,394.46258555800887,394.46258555800887,394.46258555800887,394.46258555800887,394.46258555800887,396.97656785001163,396.97656785001163,396.97656785001163,396.97656785001163,396.97656785001163,64,27,65,47,65,53,5.0,0.7482543530059047,397.738852237002,399.4827422390081,,,,,,,160,m,22,2023-04-05_09h45.29.658,RL,2022.2.4,59.92912984926362,
1,40,0,40,0,,,,,,,,,,None,399.4827422390081,399.4827422390081,399.4827422390081,399.4827422390081,399.4827422390081,399.4827422390081,i,0.23867245600558817,399.7746732079977,399.7746732079977,399.7746732079977,399.7746732079977,399.7746732079977,399.7746732079977,400.042843386007,400.042843386007,401.82722459500656,401.82722459500656,401.8525830599974,401.8525830599974,401.8525830599974,401.8525830599974,401.8525830599974,401.8525830599974,401.8525830599974,401.8525830599974,401.8525830599974,401.8525830599974,401.8525830599974,401.8525830599974,401.8525830599974,401.8525830599974,401.8525830599974,404.35429325301084,404.35429325301084,404.35429325301084,404.35429325301084,404.35429325301084,65,41,57,59,57,46,4.0,1.5601573589956388,405.92905600200174,407.53676634399744,,,,,,,160,m,22,2023-04-05_09h45.29.658,RL,2022.2.4,59.92912984926362,
1,41,0,41,0,,,,,,,,,,None,407.53676634399744,407.53676634399744,407.53676634399744,407.53676634399744,407.53676634399744,407.53676634399744,i,0.3510858750087209,407.92733661401144,407.92733661401144,407.92733661401144,407.92733661401144,407.92733661401144,407.92733661401144,408.2043838320096,408.2043838320096,409.8410174770106,409.8410174770106,409.8653880839993,409.8653880839993,409.8653880839993,409.8653880839993,409.8653880839993,409.8653880839993,409.8653880839993,409.8653880839993,409.8653880839993,409.8653880839993,409.8653880839993,409.8653880839993,409.8653880839993,409.8653880839993,409.8653880839993,412.3671747190092,412.3671747190092,412.3671747190092,412.3671747190092,412.3671747190092,71,39,56,50,56,58,4.0,0.5003122780035483,412.8833780040004,414.70725681100157,,,,,,,160,m,22,2023-04-05_09h45.29.658,RL,2022.2.4,59.92912984926362,
1,42,0,42,0,,,,,,,,,,None,414.70725681100157,414.70725681100157,414.70725681100157,414.70725681100157,414.70725681100157,414.70725681100157,r,0.22245003099669702,414.9721701100061,414.9721701100061,414.9721701100061,414.9721701100061,414.9721701100061,414.9721701100061,415.2482953029976,415.2482953029976,416.6339284179994,416.6339284179994,416.6578345020098,416.6578345020098,416.6578345020098,416.6578345020098,416.6578345020098,416.6578345020098,416.6578345020098,416.6578345020098,416.6578345020098,416.6578345020098,416.6578345020098,416.6578345020098,416.6578345020098,416.6578345020098,416.6578345020098,419.16216383100254,419.16216383100254,419.16216383100254,419.16216383100254,419.16216383100254,62,40,51,54,62,63,4.0,0.6415719819924561,419.81861982200644,421.72680311099975,,,,,,,160,m,22,2023-04-05_09h45.29.658,RL,2022.2.4,59.92912984926362,
1,43,0,43,0,,,,,,,,,,None,421.72680311099975,421.72680311099975,421.72680311099975,421.72680311099975,421.72680311099975,421.72680311099975,i,0.3910531209985493,422.16707911501,422.16707911501,422.16707911501,422.16707911501,422.16707911501,422.16707911501,422.4367292090028,422.4367292090028,424.26333677100774,424.26333677100774,424.30471163500624,424.30471163500624,424.30471163500624,424.30471163500624,424.30471163500624,424.30471163500624,424.30471163500624,424.30471163500624,424.30471163500624,424.30471163500624,424.30471163500624,424.30471163500624,424.30471163500624,424.30471163500624,424.30471163500624,426.8033754490025,426.8033754490025,426.8033754490025,426.8033754490025,426.8033754490025,59,42,54,59,54,59,4.0,1.962909234003746,428.7818777170032,430.63153903400234,,,,,,,160,m,22,2023-04-05_09h45.29.658,RL,2022.2.4,59.92912984926362,
1,44,0,44,0,,,,,,,,,,None,430.63153903400234,430.63153903400234,430.63153903400234,430.63153903400234,430.63153903400234,430.63153903400234,r,0.2571714619989507,430.9336669970071,430.9336669970071,430.9336669970071,430.9336669970071,430.9336669970071,430.9336669970071,431.2072539040091,431.2072539040091,433.1206256959995,433.1206256959995,433.15999417900457,433.15999417900457,433.15999417900457,433.15999417900457,433.15999417900457,433.15999417900457,433.15999417900457,433.15999417900457,433.15999417900457,433.15999417900457,433.15999417900457,433.15999417900457,433.15999417900457,433.15999417900457,433.15999417900457,435.6705023000104,435.6705023000104,435.6705023000104,435.6705023000104,435.6705023000104,61,48,61,53,61,63,4.0,0.6584435550030321,436.338665629999,438.2017954470066,,,,,,,160,m,22,2023-04-05_09h45.29.658,RL,2022.2.4,59.92912984926362,
1,45,0,45,0,,,,,,,,,,None,438.2017954470066,438.2017954470066,438.2017954470066,438.2017954470066,438.2017954470066,438.2017954470066,r,0.4786321540013887,438.72288754100737,438.72288754100737,438.72288754100737,438.72288754100737,438.72288754100737,438.72288754100737,439.01323120400775,439.01323120400775,440.0867205149989,440.0867205149989,440.0867205149989,440.0867205149989,440.0867205149989,440.0867205149989,440.0867205149989,440.0867205149989,440.0867205149989,440.0867205149989,440.0867205149989,440.0867205149989,440.0867205149989,440.0867205149989,440.0867205149989,440.0867205149989,440.0867205149989,442.6011537440063,442.6011537440063,442.6011537440063,442.6011537440063,442.6011537440063,64,48,56,57,64,56,5.0,1.6584766449959716,444.2730671600002,446.08908524199796,,,,,,,160,m,22,2023-04-05_09h45.29.658,RL,2022.2.4,59.92912984926362,
1,46,0,46,0,,,,,,,,,,None,446.08908524199796,446.08908524199796,446.08908524199796,446.08908524199796,446.08908524199796,446.08908524199796,r,0.24301073099195492,446.37383818801027,446.37383818801027,446.37383818801027,446.37383818801027,446.37383818801027,446.37383818801027,446.64183999600937,446.64183999600937,447.56390630399983,447.56390630399983,447.6044202190096,447.6044202190096,447.6044202190096,447.6044202190096,447.6044202190096,447.6044202190096,447.6044202190096,447.6044202190096,447.6044202190096,447.6044202190096,447.6044202190096,447.6044202190096,447.6044202190096,447.6044202190096,447.6044202190096,450.1162170710013,450.1162170710013,450.1162170710013,450.1162170710013,450.1162170710013,63,41,57,60,63,61,4.0,0.8844816030032234,451.014415113008,452.7923837410053,,,,,,,160,m,22,2023-04-05_09h45.29.658,RL,2022.2.4,59.92912984926362,
1,47,0,47,0,,,,,,,,,,None,452.7923837410053,452.7923837410053,452.7923837410053,452.7923837410053,452.7923837410053,452.7923837410053,r,0.31444017599278595,453.14451589000237,453.14451589000237,453.14451589000237,453.14451589000237,453.14451589000237,453.14451589000237,453.4155783890019,453.4155783890019,454.369981833006,454.369981833006,454.41157876100624,454.41157876100624,454.41157876100624,454.41157876100624,454.41157876100624,454.41157876100624,454.41157876100624,454.41157876100624,454.41157876100624,454.41157876100624,454.41157876100624,454.41157876100624,454.41157876100624,454.41157876100624,454.41157876100624,456.90861496300204,456.90861496300204,456.90861496300204,456.90861496300204,456.90861496300204,56,35,62,51,56,29,6.0,1.961203808998107,458.8843201210111,460.812872718001,,,,,,,160,m,22,2023-04-05_09h45.29.658,RL,2022.2.4,59.92912984926362,
1,48,0,48,0,,,,,,,,,,None,460.812872718001,460.812872718001,460.812872718001,460.812872718001,460.812872718001,460.812872718001,r,0.2563679430022603,461.11550610599807,461.11550610599807,461.11550610599807,461.11550610599807,461.11550610599807,461.11550610599807,461.3848745050054,461.3848745050054,463.192867167003,463.192867167003,463.2318225479976,463.2318225479976,463.2318225479976,463.2318225479976,463.2318225479976,463.2318225479976,463.2318225479976,463.2318225479976,463.2318225479976,463.2318225479976,463.2318225479976,463.2318225479976,463.2318225479976,463.2318225479976,463.2318225479976,465.7420815229998,465.7420815229998,465.7420815229998,465.7420815229998,465.7420815229998,66,45,64,51,66,43,5.0,1.1672786309936782,466.92550392000703,468.6481537189975,,,,,,,160,m,22,2023-04-05_09h45.29.658,RL,2022.2.4,59.92912984926362,
1,49,0,49,0,,,,,,,,,,None,468.6481537189975,468.6481537189975,468.6481537189975,468.6481537189975,468.6481537189975,468.6481537189975,r,0.2932855889957864,468.9866410840041,468.9866410840041,468.9866410840041,468.9866410840041,468.9866410840041,468.9866410840041,469.2561377880047,469.2561377880047,470.6616939630039,470.6616939630039,470.70310556200275,470.70310556200275,470.70310556200275,470.70310556200275,470.70310556200275,470.70310556200275,470.70310556200275,470.70310556200275,470.70310556200275,470.70310556200275,470.70310556200275,470.70310556200275,470.70310556200275,470.70310556200275,470.70310556200275,473.207072189005,473.207072189005,473.207072189005,473.207072189005,473.207072189005,64,50,59,56,64,61,4.0,0.8187878870085115,474.03896731299756,475.6029625910014,,,,,,,160,m,22,2023-04-05_09h45.29.658,RL,2022.2.4,59.92912984926362,
1,50,0,50,0,,,,,,,,,,None,475.6029625910014,475.6029625910014,475.6029625910014,475.6029625910014,475.6029625910014,475.6029625910014,r,0.4034475979860872,476.05379271300626,476.05379271300626,476.05379271300626,476.05379271300626,476.05379271300626,476.05379271300626,476.3255551129987,476.3255551129987,477.97530992700194,477.97530992700194,478.01580444299907,478.01580444299907,478.01580444299907,478.01580444299907,478.01580444299907,478.01580444299907,478.01580444299907,478.01580444299907,478.01580444299907,478.01580444299907,478.01580444299907,478.01580444299907,478.01580444299907,478.01580444299907,478.01580444299907,480.5246940030047,480.5246940030047,480.5246940030047,480.5246940030047,480.5246940030047,65,46,74,58,65,60,4.0,0.4689321559999371,481.0085231520061,482.9060697350069,,,,,,,160,m,22,2023-04-05_09h45.29.658,RL,2022.2.4,59.92912984926362,
1,51,0,51,0,,,,,,,,,,None,482.9060697350069,482.9060697350069,482.9060697350069,482.9060697350069,482.9060697350069,482.9060697350069,i,0.2566675959969871,483.20973614200193,483.20973614200193,483.20973614200193,483.20973614200193,483.20973614200193,483.20973614200193,483.4789422090107,483.4789422090107,485.2452715899999,485.2452715899999,485.27258346900635,485.27258346900635,485.27258346900635,485.27258346900635,485.27258346900635,485.27258346900635,485.27258346900635,485.27258346900635,485.27258346900635,485.27258346900635,485.27258346900635,485.27258346900635,485.27258346900635,485.27258346900635,485.27258346900635,487.78019302700704,487.78019302700704,487.78019302700704,487.78019302700704,487.78019302700704,59,52,71,57,71,49,6.0,0.9455296999949496,488.7407021060062,490.643931507002,,,,,,,160,m,22,2023-04-05_09h45.29.658,RL,2022.2.4,59.92912984926362,
1,52,0,52,0,,,,,,,,,,None,490.643931507002,490.643931507002,490.643931507002,490.643931507002,490.643931507002,490.643931507002,i,0.3004503659904003,490.99668974700035,490.99668974700035,490.99668974700035,490.99668974700035,490.99668974700035,490.99668974700035,491.2690749050089,491.2690749050089,493.05487732600886,493.05487732600886,493.09376764400804,493.09376764400804,493.09376764400804,493.09376764400804,493.09376764400804,493.09376764400804,493.09376764400804,493.09376764400804,493.09376764400804,493.09376764400804,493.09376764400804,493.09376764400804,493.09376764400804,493.09376764400804,493.09376764400804,495.5970786550024,495.5970786550024,495.5970786550024,495.5970786550024,495.5970786550024,59,57,68,52,68,52,5.0,0.7767207360011525,496.3909094900009,498.16386747300567,,,,,,,160,m,22,2023-04-05_09h45.29.658,RL,2022.2.4,59.92912984926362,
1,53,0,53,0,,,,,,,,,,None,498.16386747300567,498.16386747300567,498.16386747300567,498.16386747300567,498.16386747300567,498.16386747300567,i,0.34473690899903886,498.5532470239996,498.5532470239996,498.5532470239996,498.5532470239996,498.5532470239996,498.5532470239996,498.82210823999776,498.82210823999776,500.30179242399754,500.30179242399754,500.34552732000884,500.34552732000884,500.34552732000884,500.34552732000884,500.34552732000884,500.34552732000884,500.34552732000884,500.34552732000884,500.34552732000884,500.34552732000884,500.34552732000884,500.34552732000884,500.34552732000884,500.34552732000884,500.34552732000884,502.83795706400997,502.83795706400997,502.83795706400997,502.83795706400997,502.83795706400997,55,55,79,48,79,46,6.0,1.047335891998955,503.9016328959988,505.4664189489995,,,,,,,160,m,22,2023-04-05_09h45.29.658,RL,2022.2.4,59.92912984926362,
1,54,0,54,0,,,,,,,,,,None,505.4664189489995,505.4664189489995,505.4664189489995,505.4664189489995,505.4664189489995,505.4664189489995,i,0.4167714649956906,505.9362198400049,505.9362198400049,505.9362198400049,505.9362198400049,505.9362198400049,505.9362198400049,506.2064365700062,506.2064365700062,507.07010479101154,507.07010479101154,507.1118662900117,507.1118662900117,507.1118662900117,507.1118662900117,507.1118662900117,507.1118662900117,507.1118662900117,507.1118662900117,507.1118662900117,507.1118662900117,507.1118662900117,507.1118662900117,507.1118662900117,507.1118662900117,507.1118662900117,509.6103894590051,509.6103894590051,509.6103894590051,509.6103894590051,509.6103894590051,58,46,75,44,75,35,7.0,1.1874478179961443,510.8140304109984,512.7205312990118,,,,,,,160,m,22,2023-04-05_09h45.29.658,RL,2022.2.4,59.92912984926362,
1,55,0,55,0,,,,,,,,,,None,512.7205312990118,512.7205312990118,512.7205312990118,512.7205312990118,512.7205312990118,512.7205312990118,i,0.5877154609916033,513.3628921710042,513.3628921710042,513.3628921710042,513.3628921710042,513.3628921710042,513.3628921710042,513.6294732189999,513.6294732189999,514.6294724890031,514.6294724890031,514.6699448090076,514.6699448090076,514.6699448090076,514.6699448090076,514.6699448090076,514.6699448090076,514.6699448090076,514.6699448090076,514.6699448090076,514.6699448090076,514.6699448090076,514.6699448090076,514.6699448090076,514.6699448090076,514.6699448090076,517.177745605004,517.177745605004,517.177745605004,517.177745605004,517.177745605004,52,48,76,55,76,52,6.0,0.8046163899998646,517.9955071040022,519.6407125770056,,,,,,,160,m,22,2023-04-05_09h45.29.658,RL,2022.2.4,59.92912984926362,
1,56,0,56,0,,,,,,,,,,None,519.6407125770056,519.6407125770056,519.6407125770056,519.6407125770056,519.6407125770056,519.6407125770056,i,0.3835041340062162,520.0763983330107,520.0763983330107,520.0763983330107,520.0763983330107,520.0763983330107,520.0763983330107,520.3469430340047,520.3469430340047,521.3675932150072,521.3675932150072,521.3915565860079,521.3915565860079,521.3915565860079,521.3915565860079,521.3915565860079,521.3915565860079,521.3915565860079,521.3915565860079,521.3915565860079,521.3915565860079,521.3915565860079,521.3915565860079,521.3915565860079,521.3915565860079,521.3915565860079,523.8912896880065,523.8912896880065,523.8912896880065,523.8912896880065,523.8912896880065,56,58,73,49,73,53,6.0,0.4464485839998815,524.3472402560001,526.0261981250078,,,,,,,160,m,22,2023-04-05_09h45.29.658,RL,2022.2.4,59.92912984926362,
1,57,0,57,0,,,,,,,,,,None,526.0261981250078,526.0261981250078,526.0261981250078,526.0261981250078,526.0261981250078,526.0261981250078,i,0.30477797299681697,526.3810185629991,526.3810185629991,526.3810185629991,526.3810185629991,526.3810185629991,526.3810185629991,526.6525199030002,526.6525199030002,528.4486134620092,528.4486134620092,528.471980235001,528.471980235001,528.471980235001,528.471980235001,528.471980235001,528.471980235001,528.471980235001,528.471980235001,528.471980235001,528.471980235001,528.471980235001,528.471980235001,528.471980235001,528.471980235001,528.471980235001,530.9828332390025,530.9828332390025,530.9828332390025,530.9828332390025,530.9828332390025,50,56,70,55,70,55,5.0,0.9157185730000492,531.9143321529991,533.4806177740102,,,,,,,160,m,22,2023-04-05_09h45.29.658,RL,2022.2.4,59.92912984926362,
1,58,0,58,0,,,,,,,,,,None,533.4806177740102,533.4806177740102,533.4806177740102,533.4806177740102,533.4806177740102,533.4806177740102,i,0.2620326789910905,533.7829704090109,533.7829704090109,533.7829704090109,533.7829704090109,533.7829704090109,533.7829704090109,534.0546903580107,534.0546903580107,535.1796756340045,535.1796756340045,535.2054170740012,535.2054170740012,535.2054170740012,535.2054170740012,535.2054170740012,535.2054170740012,535.2054170740012,535.2054170740012,535.2054170740012,535.2054170740012,535.2054170740012,535.2054170740012,535.2054170740012,535.2054170740012,535.2054170740012,537.7017759270093,537.7017759270093,537.7017759270093,537.7017759270093,537.7017759270093,66,51,66,58,66,33,6.0,0.8559474359935848,538.5691051059985,540.4666322960111,,,,,,,160,m,22,2023-04-05_09h45.29.658,RL,2022.2.4,59.92912984926362,
1,59,0,59,0,,,,,,,,,,None,540.4666322960111,540.4666322960111,540.4666322960111,540.4666322960111,540.4666322960111,540.4666322960111,i,0.3146918349957559,540.820233890001,540.820233890001,540.820233890001,540.820233890001,540.820233890001,540.820233890001,541.0891437340033,541.0891437340033,542.4266598120012,542.4266598120012,542.4664428310061,542.4664428310061,542.4664428310061,542.4664428310061,542.4664428310061,542.4664428310061,542.4664428310061,542.4664428310061,542.4664428310061,542.4664428310061,542.4664428310061,542.4664428310061,542.4664428310061,542.4664428310061,542.4664428310061,544.9676384040067,544.9676384040067,544.9676384040067,544.9676384040067,544.9676384040067,64,53,62,46,62,47,6.0,1.2437981709954329,546.2254691039998,547.9539910980093,,,,,,,160,m,22,2023-04-05_09h45.29.658,RL,2022.2.4,59.92912984926362,
1,60,0,60,0,,,,,,,,,,None,547.9539910980093,547.9539910980093,547.9539910980093,547.9539910980093,547.9539910980093,547.9539910980093,i,0.19927734800148755,548.193841129003,548.193841129003,548.193841129003,548.193841129003,548.193841129003,548.193841129003,548.4626832770009,548.4626832770009,549.3855952660087,549.3855952660087,549.4243502430036,549.4243502430036,549.4243502430036,549.4243502430036,549.4243502430036,549.4243502430036,549.4243502430036,549.4243502430036,549.4243502430036,549.4243502430036,549.4243502430036,549.4243502430036,549.4243502430036,549.4243502430036,549.4243502430036,551.9238632830093,551.9238632830093,551.9238632830093,551.9238632830093,551.9238632830093,55,68,73,47,73,36,7.0,0.6792292500031181,552.6172067430016,554.2900828040001,,,,,,,160,m,22,2023-04-05_09h45.29.658,RL,2022.2.4,59.92912984926362,
1,61,0,61,0,,,,,,,,,,None,554.2900828040001,554.2900828040001,554.2900828040001,554.2900828040001,554.2900828040001,554.2900828040001,i,0.3130724420043407,554.6419195190101,554.6419195190101,554.6419195190101,554.6419195190101,554.6419195190101,554.6419195190101,554.9151114060078,554.9151114060078,555.9191341510013,555.9191341510013,555.9412386800104,555.9412386800104,555.9412386800104,555.9412386800104,555.9412386800104,555.9412386800104,555.9412386800104,555.9412386800104,555.9412386800104,555.9412386800104,555.9412386800104,555.9412386800104,555.9412386800104,555.9412386800104,555.9412386800104,558.4519679900113,558.4519679900113,558.4519679900113,558.4519679900113,558.4519679900113,45,42,78,47,78,49,6.0,0.9841233560000546,559.4500560090091,561.4442924000032,,,,,,,160,m,22,2023-04-05_09h45.29.658,RL,2022.2.4,59.92912984926362,
1,62,0,62,0,,,,,,,,,,None,561.4442924000032,561.4442924000032,561.4442924000032,561.4442924000032,561.4442924000032,561.4442924000032,i,0.2859518289915286,561.7810748870106,561.7810748870106,561.7810748870106,561.7810748870106,561.7810748870106,561.7810748870106,562.0508761329984,562.0508761329984,563.7057291430101,563.7057291430101,563.7438865980075,563.7438865980075,563.7438865980075,563.7438865980075,563.7438865980075,563.7438865980075,563.7438865980075,563.7438865980075,563.7438865980075,563.7438865980075,563.7438865980075,563.7438865980075,563.7438865980075,563.7438865980075,563.7438865980075,566.2535454730096,566.2535454730096,566.2535454730096,566.2535454730096,566.2535454730096,55,51,75,49,75,34,6.0,0.5182936280034482,566.7841686870088,568.3966580620036,,,,,,,160,m,22,2023-04-05_09h45.29.658,RL,2022.2.4,59.92912984926362,
1,63,0,63,0,,,,,,,,,,None,568.3966580620036,568.3966580620036,568.3966580620036,568.3966580620036,568.3966580620036,568.3966580620036,i,0.2877485139906639,568.7303280519991,568.7303280519991,568.7303280519991,568.7303280519991,568.7303280519991,568.7303280519991,569.0033618260059,569.0033618260059,570.0022794899996,570.0022794899996,570.0422680030024,570.0422680030024,570.0422680030024,570.0422680030024,570.0422680030024,570.0422680030024,570.0422680030024,570.0422680030024,570.0422680030024,570.0422680030024,570.0422680030024,570.0422680030024,570.0422680030024,570.0422680030024,570.0422680030024,572.5399143120012,572.5399143120012,572.5399143120012,572.5399143120012,572.5399143120012,42,49,73,58,73,41,6.0,1.1874428339942824,573.7404699180042,575.6169740650075,,,,,,,160,m,22,2023-04-05_09h45.29.658,RL,2022.2.4,59.92912984926362,
1,64,0,64,0,,,,,,,,,,None,575.6169740650075,575.6169740650075,575.6169740650075,575.6169740650075,575.6169740650075,575.6169740650075,i,0.24905887400382198,575.9050054830004,575.9050054830004,575.9050054830004,575.9050054830004,575.9050054830004,575.9050054830004,576.1724333380116,576.1724333380116,577.9599164880055,577.9599164880055,578.0005822930107,578.0005822930107,578.0005822930107,578.0005822930107,578.0005822930107,578.0005822930107,578.0005822930107,578.0005822930107,578.0005822930107,578.0005822930107,578.0005822930107,578.0005822930107,578.0005822930107,578.0005822930107,578.0005822930107,580.5006393520016,580.5006393520016,580.5006393520016,580.5006393520016,580.5006393520016,52,49,62,64,62,51,5.0,1.0937553420080803,581.6081416290108,583.1539390950056,,,,,,,160,m,22,2023-04-05_09h45.29.658,RL,2022.2.4,59.92912984926362,
1,65,0,65,0,,,,,,,,,,None,583.1539390950056,583.1539390950056,583.1539390950056,583.1539390950056,583.1539390950056,583.1539390950056,i,0.34182808799960185,583.5392525640054,583.5392525640054,583.5392525640054,583.5392525640054,583.5392525640054,583.5392525640054,583.8099517829978,583.8099517829978,585.5857835920033,585.5857835920033,585.6228289060091,585.6228289060091,585.6228289060091,585.6228289060091,585.6228289060091,585.6228289060091,585.6228289060091,585.6228289060091,585.6228289060091,585.6228289060091,585.6228289060091,585.6228289060091,585.6228289060091,585.6228289060091,585.6228289060091,588.1257318620046,588.1257318620046,588.1257318620046,588.1257318620046,588.1257318620046,62,39,68,58,68,35,6.0,1.3308446849987376,589.4720013850019,591.2912278120057,,,,,,,160,m,22,2023-04-05_09h45.29.658,RL,2022.2.4,59.92912984926362,
1,66,0,66,0,,,,,,,,,,None,591.2912278120057,591.2912278120057,591.2912278120057,591.2912278120057,591.2912278120057,591.2912278120057,i,0.32039833899762016,591.6572449079977,591.6572449079977,591.6572449079977,591.6572449079977,591.6572449079977,591.6572449079977,591.9373671369976,591.9373671369976,592.8580801960052,592.8580801960052,592.8813397339982,592.8813397339982,592.8813397339982,592.8813397339982,592.8813397339982,592.8813397339982,592.8813397339982,592.8813397339982,592.8813397339982,592.8813397339982,592.8813397339982,592.8813397339982,592.8813397339982,592.8813397339982,592.8813397339982,595.3899601700105,595.3899601700105,595.3899601700105,595.3899601700105,595.3899601700105,47,45,67,61,67,40,5.0,1.530330902998685,596.9351608010038,598.8780688990082,,,,,,,160,m,22,2023-04-05_09h45.29.658,RL,2022.2.4,59.92912984926362,
1,67,0,67,0,,,,,,,,,,None,598.8780688990082,598.8780688990082,598.8780688990082,598.8780688990082,598.8780688990082,598.8780688990082,i,0.2848351230059052,599.2136727600009,599.2136727600009,599.2136727600009,599.2136727600009,599.2136727600009,599.2136727600009,599.4843413089984,599.4843413089984,601.3359607630118,601.3359607630118,601.3768548900116,601.3768548900116,601.3768548900116,601.3768548900116,601.3768548900116,601.3768548900116,601.3768548900116,601.3768548900116,601.3768548900116,601.3768548900116,601.3768548900116,601.3768548900116,601.3768548900116,601.3768548900116,601.3768548900116,603.8749159560102,603.8749159560102,603.8749159560102,603.8749159560102,603.8749159560102,51,44,69,64,69,47,6.0,0.9729587149922736,604.8627149990061,606.4150491020118,,,,,,,160,m,22,2023-04-05_09h45.29.658,RL,2022.2.4,59.92912984926362,
1,68,0,68,0,,,,,,,,,,None,606.4150491020118,606.4150491020118,606.4150491020118,606.4150491020118,606.4150491020118,606.4150491020118,i,0.3182586439943407,606.7680551000085,606.7680551000085,606.7680551000085,606.7680551000085,606.7680551000085,606.7680551000085,607.0377264179988,607.0377264179988,608.6605089119985,608.6605089119985,608.7007083770004,608.7007083770004,608.7007083770004,608.7007083770004,608.7007083770004,608.7007083770004,608.7007083770004,608.7007083770004,608.7007083770004,608.7007083770004,608.7007083770004,608.7007083770004,608.7007083770004,608.7007083770004,608.7007083770004,611.2085532339988,611.2085532339988,611.2085532339988,611.2085532339988,611.2085532339988,48,45,74,58,74,45,6.0,0.6359996899991529,611.8604013069998,613.6001415420033,,,,,,,160,m,22,2023-04-05_09h45.29.658,RL,2022.2.4,59.92912984926362,
1,69,0,69,0,,,,,,,,,,None,613.6001415420033,613.6001415420033,613.6001415420033,613.6001415420033,613.6001415420033,613.6001415420033,i,0.23050161599530838,613.8717708100012,613.8717708100012,613.8717708100012,613.8717708100012,613.8717708100012,613.8717708100012,614.1418057300034,614.1418057300034,615.0913848780037,615.0913848780037,615.1142703549995,615.1142703549995,615.1142703549995,615.1142703549995,615.1142703549995,615.1142703549995,615.1142703549995,615.1142703549995,615.1142703549995,615.1142703549995,615.1142703549995,615.1142703549995,615.1142703549995,615.1142703549995,615.1142703549995,617.6135960149986,617.6135960149986,617.6135960149986,617.6135960149986,617.6135960149986,53,48,76,62,76,41,5.0,0.6345405389874941,618.2618109850009,620.1713787580084,,,,,,,160,m,22,2023-04-05_09h45.29.658,RL,2022.2.4,59.92912984926362,
1,70,0,70,0,,,,,,,,,,None,620.1713787580084,620.1713787580084,620.1713787580084,620.1713787580084,620.1713787580084,620.1713787580084,i,0.23372555899550207,620.4577536340075,620.4577536340075,620.4577536340075,620.4577536340075,620.4577536340075,620.4577536340075,620.7276386800077,620.7276386800077,622.4544950120035,622.4544950120035,622.4933262210106,622.4933262210106,622.4933262210106,622.4933262210106,622.4933262210106,622.4933262210106,622.4933262210106,622.4933262210106,622.4933262210106,622.4933262210106,622.4933262210106,622.4933262210106,622.4933262210106,622.4933262210106,622.4933262210106,625.0048483420105,625.0048483420105,625.0048483420105,625.0048483420105,625.0048483420105,47,40,76,65,76,42,6.0,1.5109674579871353,626.5320863160014,628.1738770759985,,,,,,,160,m,22,2023-04-05_09h45.29.658,RL,2022.2.4,59.92912984926362,
1,71,0,71,0,,,,,,,,,,None,628.1738770759985,628.1738770759985,628.1738770759985,628.1738770759985,628.1738770759985,628.1738770759985,i,0.2436413670075126,628.4609359650058,628.4609359650058,628.4609359650058,628.4609359650058,628.4609359650058,628.4609359650058,628.7310279570083,628.7310279570083,630.0927847150015,630.0927847150015,630.133287182005,630.133287182005,630.133287182005,630.133287182005,630.133287182005,630.133287182005,630.133287182005,630.133287182005,630.133287182005,630.133287182005,630.133287182005,630.133287182005,630.133287182005,630.133287182005,630.133287182005,632.6376484010107,632.6376484010107,632.6376484010107,632.6376484010107,632.6376484010107,50,44,84,61,84,47,6.0,0.4665900079999119,633.1183847920038,634.843917931008,,,,,,,160,m,22,2023-04-05_09h45.29.658,RL,2022.2.4,59.92912984926362,
1,72,0,72,0,,,,,,,,,,None,634.843917931008,634.843917931008,634.843917931008,634.843917931008,634.843917931008,634.843917931008,i,0.32823365200601984,635.214763046999,635.214763046999,635.214763046999,635.214763046999,635.214763046999,635.214763046999,635.4840557120042,635.4840557120042,636.5866876869986,636.5866876869986,636.6269619680097,636.6269619680097,636.6269619680097,636.6269619680097,636.6269619680097,636.6269619680097,636.6269619680097,636.6269619680097,636.6269619680097,636.6269619680097,636.6269619680097,636.6269619680097,636.6269619680097,636.6269619680097,636.6269619680097,639.1401509610005,639.1401509610005,639.1401509610005,639.1401509610005,639.1401509610005,50,41,81,58,81,27,7.0,0.5513972990011098,639.7060885090032,641.546609914003,,,,,,,160,m,22,2023-04-05_09h45.29.658,RL,2022.2.4,59.92912984926362,
1,73,0,73,0,,,,,,,,,,None,641.546609914003,641.546609914003,641.546609914003,641.546609914003,641.546609914003,641.546609914003,i,0.3338242390018422,641.9331961550051,641.9331961550051,641.9331961550051,641.9331961550051,641.9331961550051,641.9331961550051,642.2048057700013,642.2048057700013,643.4746134050074,643.4746134050074,643.4983997119998,643.4983997119998,643.4983997119998,643.4983997119998,643.4983997119998,643.4983997119998,643.4983997119998,643.4983997119998,643.4983997119998,643.4983997119998,643.4983997119998,643.4983997119998,643.4983997119998,643.4983997119998,643.4983997119998,646.0144431150111,646.0144431150111,646.0144431150111,646.0144431150111,646.0144431150111,55,41,83,57,83,48,6.0,0.6127565859933384,646.6380949800077,648.2680205200013,,,,,,,160,m,22,2023-04-05_09h45.29.658,RL,2022.2.4,59.92912984926362,
1,74,0,74,0,,,,,,,,,,None,648.2680205200013,648.2680205200013,648.2680205200013,648.2680205200013,648.2680205200013,648.2680205200013,i,0.2540370260103373,648.5700087120058,648.5700087120058,648.5700087120058,648.5700087120058,648.5700087120058,648.5700087120058,648.8405630900088,648.8405630900088,650.1932971909991,650.1932971909991,650.2345466850093,650.2345466850093,650.2345466850093,650.2345466850093,650.2345466850093,650.2345466850093,650.2345466850093,650.2345466850093,650.2345466850093,650.2345466850093,650.2345466850093,650.2345466850093,650.2345466850093,650.2345466850093,650.2345466850093,652.7306483520078,652.7306483520078,652.7306483520078,652.7306483520078,652.7306483520078,53,37,90,55,90,32,7.0,0.700620801988407,653.4469142680027,655.2191594410106,,,,,,,160,m,22,2023-04-05_09h45.29.658,RL,2022.2.4,59.92912984926362,
1,75,0,75,0,,,,,,,,,,q,735.9264303840027,735.9264303840027,735.9264303840027,735.9264303840027,735.9264303840027,735.9264303840027,r,0.7750112209905637,736.7525871090038,736.7525871090038,736.7525871090038,736.7525871090038,736.7525871090038,736.7525871090038,737.0329839180049,737.0329839180049,738.4361357340094,738.4361357340094,738.4605992420111,738.4605992420111,738.4605992420111,738.4605992420111,738.4605992420111,738.4605992420111,738.4605992420111,738.4605992420111,738.4605992420111,738.4605992420111,738.4605992420111,738.4605992420111,738.4605992420111,738.4605992420111,738.4605992420111,740.9704790820106,740.9704790820106,740.9704790820106,740.9704790820106,740.9704790820106,57,44,86,61,57,32,6.0,1.3554989459953504,742.3405350140092,744.2306073460059,655.2191594410106,655.2191594410106,80.67965595000715,,,,160,m,22,2023-04-05_09h45.29.658,RL,2022.2.4,59.92912984926362,
1,76,0,76,0,,,,,,,,,,None,744.2306073460059,744.2306073460059,744.2306073460059,744.2306073460059,744.2306073460059,744.2306073460059,i,0.2499147369962884,744.5196392189973,744.5196392189973,744.5196392189973,744.5196392189973,744.5196392189973,744.5196392189973,744.7899641359982,744.7899641359982,746.0322457950097,746.0322457950097,746.0738984760101,746.0738984760101,746.0738984760101,746.0738984760101,746.0738984760101,746.0738984760101,746.0738984760101,746.0738984760101,746.0738984760101,746.0738984760101,746.0738984760101,746.0738984760101,746.0738984760101,746.0738984760101,746.0738984760101,748.5730559340009,748.5730559340009,748.5730559340009,748.5730559340009,748.5730559340009,52,43,91,60,91,42,7.0,0.9501197260105982,749.5367100590083,751.1167788340099,,,,,,,160,m,22,2023-04-05_09h45.29.658,RL,2022.2.4,59.92912984926362,
1,77,0,77,0,,,,,,,,,,None,751.1167788340099,751.1167788340099,751.1167788340099,751.1167788340099,751.1167788340099,751.1167788340099,i,0.24907439899106976,751.4111424420116,751.4111424420116,751.4111424420116,751.4111424420116,751.4111424420116,751.4111424420116,751.6825421079993,751.6825421079993,752.4842240319995,752.4842240319995,752.525743820006,752.525743820006,752.525743820006,752.525743820006,752.525743820006,752.525743820006,752.525743820006,752.525743820006,752.525743820006,752.525743820006,752.525743820006,752.525743820006,752.525743820006,752.525743820006,752.525743820006,755.0395617070026,755.0395617070026,755.0395617070026,755.0395617070026,755.0395617070026,53,42,76,63,76,37,6.0,0.5579638979979791,755.6105999310093,757.4703321020061,,,,,,,160,m,22,2023-04-05_09h45.29.658,RL,2022.2.4,59.92912984926362,
1,78,0,78,0,,,,,,,,,,None,757.4703321020061,757.4703321020061,757.4703321020061,757.4703321020061,757.4703321020061,757.4703321020061,i,0.23073613899759948,757.742754980005,757.742754980005,757.742754980005,757.742754980005,757.742754980005,757.742754980005,758.0130027830019,758.0130027830019,758.8289248470101,758.8289248470101,758.8699088930007,758.8699088930007,758.8699088930007,758.8699088930007,758.8699088930007,758.8699088930007,758.8699088930007,758.8699088930007,758.8699088930007,758.8699088930007,758.8699088930007,758.8699088930007,758.8699088930007,758.8699088930007,758.8699088930007,761.367238951003,761.367238951003,761.367238951003,761.367238951003,761.367238951003,57,30,75,59,75,43,6.0,0.6150019390042871,761.9984149230004,763.8562445220014,,,,,,,160,m,22,2023-04-05_09h45.29.658,RL,2022.2.4,59.92912984926362,
1,79,0,79,0,,,,,,,,,,None,763.8562445220014,763.8562445220014,763.8562445220014,763.8562445220014,763.8562445220014,763.8562445220014,i,0.24238341400632635,764.1356393690075,764.1356393690075,764.1356393690075,764.1356393690075,764.1356393690075,764.1356393690075,764.4143562980025,764.4143562980025,766.1009262190055,766.1009262190055,766.1415794589993,766.1415794589993,766.1415794589993,766.1415794589993,766.1415794589993,766.1415794589993,766.1415794589993,766.1415794589993,766.1415794589993,766.1415794589993,766.1415794589993,766.1415794589993,766.1415794589993,766.1415794589993,766.1415794589993,768.652322866008,768.652322866008,768.652322866008,768.652322866008,768.652322866008,63,35,81,58,81,35,6.0,1.4309388419933384,770.0960901330109,771.8599973960081,,,,,,,160,m,22,2023-04-05_09h45.29.658,RL,2022.2.4,59.92912984926362,
1,80,0,80,0,,,,,,,,,,None,771.8599973960081,771.8599973960081,771.8599973960081,771.8599973960081,771.8599973960081,771.8599973960081,i,0.02157298699603416,771.9305967990076,771.9305967990076,771.9305967990076,771.9305967990076,771.9305967990076,771.9305967990076,772.2024536340032,772.2024536340032,773.8374315149995,773.8374315149995,773.861502425003,773.861502425003,773.861502425003,773.861502425003,773.861502425003,773.861502425003,773.861502425003,773.861502425003,773.861502425003,773.861502425003,773.861502425003,773.861502425003,773.861502425003,773.861502425003,773.861502425003,776.3607189210015,776.3607189210015,776.3607189210015,776.3607189210015,776.3607189210015,60,42,80,57,80,43,7.0,0.8884818160004215,777.2604852600052,778.7965563879989,,,,,,,160,m,22,2023-04-05_09h45.29.658,RL,2022.2.4,59.92912984926362,
1,81,0,81,0,,,,,,,,,,None,778.7965563879989,778.7965563879989,778.7965563879989,778.7965563879989,778.7965563879989,778.7965563879989,i,0.20631118799792603,779.0485497170012,779.0485497170012,779.0485497170012,779.0485497170012,779.0485497170012,779.0485497170012,779.3194495700009,779.3194495700009,780.2398308679985,780.2398308679985,780.2764770270005,780.2764770270005,780.2764770270005,780.2764770270005,780.2764770270005,780.2764770270005,780.2764770270005,780.2764770270005,780.2764770270005,780.2764770270005,780.2764770270005,780.2764770270005,780.2764770270005,780.2764770270005,780.2764770270005,782.780911231006,782.780911231006,782.780911231006,782.780911231006,782.780911231006,60,36,78,60,78,55,5.0,0.6826891410019016,783.474908714008,785.0983683800005,,,,,,,160,m,22,2023-04-05_09h45.29.658,RL,2022.2.4,59.92912984926362,
1,82,0,82,0,,,,,,,,,,None,785.0983683800005,785.0983683800005,785.0983683800005,785.0983683800005,785.0983683800005,785.0983683800005,i,0.2373897380020935,785.3791816320008,785.3791816320008,785.3791816320008,785.3791816320008,785.3791816320008,785.3791816320008,785.6554394740087,785.6554394740087,787.3291105530079,787.3291105530079,787.3511337620002,787.3511337620002,787.3511337620002,787.3511337620002,787.3511337620002,787.3511337620002,787.3511337620002,787.3511337620002,787.3511337620002,787.3511337620002,787.3511337620002,787.3511337620002,787.3511337620002,787.3511337620002,787.3511337620002,789.8505874609982,789.8505874609982,789.8505874609982,789.8505874609982,789.8505874609982,59,41,83,55,83,40,6.0,0.9485864900052547,790.8128251700109,792.336344987998,,,,,,,160,m,22,2023-04-05_09h45.29.658,RL,2022.2.4,59.92912984926362,
1,83,0,83,0,,,,,,,,,,None,792.336344987998,792.336344987998,792.336344987998,792.336344987998,792.336344987998,792.336344987998,i,0.2003225310036214,792.5895348339982,792.5895348339982,792.5895348339982,792.5895348339982,792.5895348339982,792.5895348339982,792.8604579009989,792.8604579009989,794.4892077520053,794.4892077520053,794.530756209002,794.530756209002,794.530756209002,794.530756209002,794.530756209002,794.530756209002,794.530756209002,794.530756209002,794.530756209002,794.530756209002,794.530756209002,794.530756209002,794.530756209002,794.530756209002,794.530756209002,797.0254549460078,797.0254549460078,797.0254549460078,797.0254549460078,797.0254549460078,54,32,82,57,82,54,6.0,0.9482908170029987,797.9887875020067,799.9065391790064,,,,,,,160,m,22,2023-04-05_09h45.29.658,RL,2022.2.4,59.92912984926362,
1,84,0,84,0,,,,,,,,,,None,799.9065391790064,799.9065391790064,799.9065391790064,799.9065391790064,799.9065391790064,799.9065391790064,i,0.2792224449949572,800.2266572869994,800.2266572869994,800.2266572869994,800.2266572869994,800.2266572869994,800.2266572869994,800.4954617589974,800.4954617589974,801.7661042270047,801.7661042270047,801.8067198510107,801.8067198510107,801.8067198510107,801.8067198510107,801.8067198510107,801.8067198510107,801.8067198510107,801.8067198510107,801.8067198510107,801.8067198510107,801.8067198510107,801.8067198510107,801.8067198510107,801.8067198510107,801.8067198510107,804.3086749390059,804.3086749390059,804.3086749390059,804.3086749390059,804.3086749390059,73,45,83,62,83,40,5.0,0.5874938329943689,804.909787401004,806.6931319020077,,,,,,,160,m,22,2023-04-05_09h45.29.658,RL,2022.2.4,59.92912984926362,
1,85,0,85,0,,,,,,,,,,None,806.6931319020077,806.6931319020077,806.6931319020077,806.6931319020077,806.6931319020077,806.6931319020077,i,0.2447260970075149,806.9748179910093,806.9748179910093,806.9748179910093,806.9748179910093,806.9748179910093,806.9748179910093,807.2495685160102,807.2495685160102,809.1231813440099,809.1231813440099,809.1616986560111,809.1616986560111,809.1616986560111,809.1616986560111,809.1616986560111,809.1616986560111,809.1616986560111,809.1616986560111,809.1616986560111,809.1616986560111,809.1616986560111,809.1616986560111,809.1616986560111,809.1616986560111,809.1616986560111,811.6788908550079,811.6788908550079,811.6788908550079,811.6788908550079,811.6788908550079,64,45,79,57,79,47,6.0,0.4443617969955085,812.1361297969997,813.7279503750033,,,,,,,160,m,22,2023-04-05_09h45.29.658,RL,2022.2.4,59.92912984926362,
1,86,0,86,0,,,,,,,,,,None,813.7279503750033,813.7279503750033,813.7279503750033,813.7279503750033,813.7279503750033,813.7279503750033,r,0.2609772400028305,814.0318942410086,814.0318942410086,814.0318942410086,814.0318942410086,814.0318942410086,814.0318942410086,814.303653230003,814.303653230003,815.2164428240067,815.2164428240067,815.258199051008,815.258199051008,815.258199051008,815.258199051008,815.258199051008,815.258199051008,815.258199051008,815.258199051008,815.258199051008,815.258199051008,815.258199051008,815.258199051008,815.258199051008,815.258199051008,815.258199051008,817.7588772480085,817.7588772480085,817.7588772480085,817.7588772480085,817.7588772480085,58,32,70,53,58,48,4.0,0.9921092279982986,818.7681855830015,820.4835804199975,,,,,,,160,m,22,2023-04-05_09h45.29.658,RL,2022.2.4,59.92912984926362,
1,87,0,87,0,,,,,,,,,,None,820.4835804199975,820.4835804199975,820.4835804199975,820.4835804199975,820.4835804199975,820.4835804199975,i,0.2498598289967049,820.7822038489976,820.7822038489976,820.7822038489976,820.7822038489976,820.7822038489976,820.7822038489976,821.0554985519993,821.0554985519993,821.9177934980107,821.9177934980107,821.9389317650057,821.9389317650057,821.9389317650057,821.9389317650057,821.9389317650057,821.9389317650057,821.9389317650057,821.9389317650057,821.9389317650057,821.9389317650057,821.9389317650057,821.9389317650057,821.9389317650057,821.9389317650057,821.9389317650057,824.4564139180002,824.4564139180002,824.4564139180002,824.4564139180002,824.4564139180002,68,43,72,52,72,48,6.0,0.5219657959969481,824.9902350040065,826.6696071400074,,,,,,,160,m,22,2023-04-05_09h45.29.658,RL,2022.2.4,59.92912984926362,
1,88,0,88,0,,,,,,,,,,None,826.6696071400074,826.6696071400074,826.6696071400074,826.6696071400074,826.6696071400074,826.6696071400074,i,0.24392277700826526,826.952671785999,826.952671785999,826.952671785999,826.952671785999,826.952671785999,826.952671785999,827.2246592110023,827.2246592110023,828.065521343,828.065521343,828.1033508929977,828.1033508929977,828.1033508929977,828.1033508929977,828.1033508929977,828.1033508929977,828.1033508929977,828.1033508929977,828.1033508929977,828.1033508929977,828.1033508929977,828.1033508929977,828.1033508929977,828.1033508929977,828.1033508929977,830.6033018739981,830.6033018739981,830.6033018739981,830.6033018739981,830.6033018739981,68,50,69,62,69,44,5.0,1.0312306449923199,831.647442335001,833.3218878290063,,,,,,,160,m,22,2023-04-05_09h45.29.658,RL,2022.2.4,59.92912984926362,
1,89,0,89,0,,,,,,,,,,None,833.3218878290063,833.3218878290063,833.3218878290063,833.3218878290063,833.3218878290063,833.3218878290063,i,0.22323820200108457,833.5919707209978,833.5919707209978,833.5919707209978,833.5919707209978,833.5919707209978,833.5919707209978,833.8654019540118,833.8654019540118,834.8301442570082,834.8301442570082,834.8526096910064,834.8526096910064,834.8526096910064,834.8526096910064,834.8526096910064,834.8526096910064,834.8526096910064,834.8526096910064,834.8526096910064,834.8526096910064,834.8526096910064,834.8526096910064,834.8526096910064,834.8526096910064,834.8526096910064,837.3516056930093,837.3516056930093,837.3516056930093,837.3516056930093,837.3516056930093,48,49,78,57,78,44,5.0,1.1995439340098528,838.5663109090092,840.4427128670068,,,,,,,160,m,22,2023-04-05_09h45.29.658,RL,2022.2.4,59.92912984926362,
1,90,0,90,0,,,,,,,,,,None,840.4427128670068,840.4427128670068,840.4427128670068,840.4427128670068,840.4427128670068,840.4427128670068,i,0.22421319600834977,840.7024177850108,840.7024177850108,840.7024177850108,840.7024177850108,840.7024177850108,840.7024177850108,840.9884717940004,840.9884717940004,842.9209222960053,842.9209222960053,842.9438456810021,842.9438456810021,842.9438456810021,842.9438456810021,842.9438456810021,842.9438456810021,842.9438456810021,842.9438456810021,842.9438456810021,842.9438456810021,842.9438456810021,842.9438456810021,842.9438456810021,842.9438456810021,842.9438456810021,845.4508140700054,845.4508140700054,845.4508140700054,845.4508140700054,845.4508140700054,60,38,80,49,80,23,7.0,0.6882083609962137,846.1544819640112,847.9409181100054,,,,,,,160,m,22,2023-04-05_09h45.29.658,RL,2022.2.4,59.92912984926362,
1,91,0,91,0,,,,,,,,,,None,847.9409181100054,847.9409181100054,847.9409181100054,847.9409181100054,847.9409181100054,847.9409181100054,i,0.3345631350093754,848.3141537860065,848.3141537860065,848.3141537860065,848.3141537860065,848.3141537860065,848.3141537860065,848.585651500005,848.585651500005,849.6494763390074,849.6494763390074,849.6730195510027,849.6730195510027,849.6730195510027,849.6730195510027,849.6730195510027,849.6730195510027,849.6730195510027,849.6730195510027,849.6730195510027,849.6730195510027,849.6730195510027,849.6730195510027,849.6730195510027,849.6730195510027,849.6730195510027,852.1734702140093,852.1734702140093,852.1734702140093,852.1734702140093,852.1734702140093,43,43,84,51,84,55,6.0,0.5250816970074084,852.7151217420032,854.548214281007,,,,,,,160,m,22,2023-04-05_09h45.29.658,RL,2022.2.4,59.92912984926362,
1,92,0,92,0,,,,,,,,,,None,854.548214281007,854.548214281007,854.548214281007,854.548214281007,854.548214281007,854.548214281007,i,0.23087996999674942,854.8162088100071,854.8162088100071,854.8162088100071,854.8162088100071,854.8162088100071,854.8162088100071,855.0881067989976,855.0881067989976,856.4654408790084,856.4654408790084,856.502619966006,856.502619966006,856.502619966006,856.502619966006,856.502619966006,856.502619966006,856.502619966006,856.502619966006,856.502619966006,856.502619966006,856.502619966006,856.502619966006,856.502619966006,856.502619966006,856.502619966006,859.0174609770038,859.0174609770038,859.0174609770038,859.0174609770038,859.0174609770038,54,39,78,50,78,43,5.0,1.077717391992337,860.111014271999,861.6681544080056,,,,,,,160,m,22,2023-04-05_09h45.29.658,RL,2022.2.4,59.92912984926362,
1,93,0,93,0,,,,,,,,,,None,861.6681544080056,861.6681544080056,861.6681544080056,861.6681544080056,861.6681544080056,861.6681544080056,j,0.24491347800358199,861.9554648360063,861.9554648360063,861.9554648360063,861.9554648360063,861.9554648360063,861.9554648360063,862.2265905200038,862.2265905200038,863.2739927140065,863.2739927140065,863.2979492890008,863.2979492890008,863.2979492890008,863.2979492890008,863.2979492890008,863.2979492890008,863.2979492890008,863.2979492890008,863.2979492890008,863.2979492890008,863.2979492890008,863.2979492890008,863.2979492890008,863.2979492890008,863.2979492890008,865.8039359899994,865.8039359899994,865.8039359899994,865.8039359899994,865.8039359899994,52,34,83,58,58,55,4.0,0.8200389690027805,866.6398822760093,868.4886775750056,,,,,,,160,m,22,2023-04-05_09h45.29.658,RL,2022.2.4,59.92912984926362,
1,94,0,94,0,,,,,,,,,,None,868.4886775750056,868.4886775750056,868.4886775750056,868.4886775750056,868.4886775750056,868.4886775750056,r,0.16620145399065223,868.6918116489978,868.6918116489978,868.6918116489978,868.6918116489978,868.6918116489978,868.6918116489978,868.964873896999,868.964873896999,870.2522515489982,870.2522515489982,870.2727380020078,870.2727380020078,870.2727380020078,870.2727380020078,870.2727380020078,870.2727380020078,870.2727380020078,870.2727380020078,870.2727380020078,870.2727380020078,870.2727380020078,870.2727380020078,870.2727380020078,870.2727380020078,870.2727380020078,872.7749101880036,872.7749101880036,872.7749101880036,872.7749101880036,872.7749101880036,54,31,86,60,54,61,3.0,0.5137770379951689,873.3037654570071,875.141571265005,,,,,,,160,m,22,2023-04-05_09h45.29.658,RL,2022.2.4,59.92912984926362,
1,95,0,95,0,,,,,,,,,,None,875.141571265005,875.141571265005,875.141571265005,875.141571265005,875.141571265005,875.141571265005,i,0.23306182499800343,875.4125005420065,875.4125005420065,875.4125005420065,875.4125005420065,875.4125005420065,875.4125005420065,875.6972492290079,875.6972492290079,877.441994548004,877.441994548004,877.4628887590079,877.4628887590079,877.4628887590079,877.4628887590079,877.4628887590079,877.4628887590079,877.4628887590079,877.4628887590079,877.4628887590079,877.4628887590079,877.4628887590079,877.4628887590079,877.4628887590079,877.4628887590079,877.4628887590079,879.9733941110026,879.9733941110026,879.9733941110026,879.9733941110026,879.9733941110026,60,43,81,56,81,60,6.0,0.6691617489996133,880.6557976879994,882.3792633400008,,,,,,,160,m,22,2023-04-05_09h45.29.658,RL,2022.2.4,59.92912984926362,
1,96,0,96,0,,,,,,,,,,None,882.3792633400008,882.3792633400008,882.3792633400008,882.3792633400008,882.3792633400008,882.3792633400008,i,0.23746216201107018,882.6702868400025,882.6702868400025,882.6702868400025,882.6702868400025,882.6702868400025,882.6702868400025,882.9416185040027,882.9416185040027,884.3120922980015,884.3120922980015,884.3504818140063,884.3504818140063,884.3504818140063,884.3504818140063,884.3504818140063,884.3504818140063,884.3504818140063,884.3504818140063,884.3504818140063,884.3504818140063,884.3504818140063,884.3504818140063,884.3504818140063,884.3504818140063,884.3504818140063,886.8505681620009,886.8505681620009,886.8505681620009,886.8505681620009,886.8505681620009,52,42,84,55,84,56,5.0,0.7421979610080598,887.6030059640034,889.1659241880116,,,,,,,160,m,22,2023-04-05_09h45.29.658,RL,2022.2.4,59.92912984926362,
1,97,0,97,0,,,,,,,,,,None,889.1659241880116,889.1659241880116,889.1659241880116,889.1659241880116,889.1659241880116,889.1659241880116,i,0.07562970300205052,889.2852849870105,889.2852849870105,889.2852849870105,889.2852849870105,889.2852849870105,889.2852849870105,889.5716214249987,889.5716214249987,890.9656410250027,890.9656410250027,890.9881177520001,890.9881177520001,890.9881177520001,890.9881177520001,890.9881177520001,890.9881177520001,890.9881177520001,890.9881177520001,890.9881177520001,890.9881177520001,890.9881177520001,890.9881177520001,890.9881177520001,890.9881177520001,890.9881177520001,893.5002534070081,893.5002534070081,893.5002534070081,893.5002534070081,893.5002534070081,52,48,77,53,77,30,6.0,0.5158099310065154,894.0326667160116,895.8840879800118,,,,,,,160,m,22,2023-04-05_09h45.29.658,RL,2022.2.4,59.92912984926362,
1,98,0,98,0,,,,,,,,,,None,895.8840879800118,895.8840879800118,895.8840879800118,895.8840879800118,895.8840879800118,895.8840879800118,i,0.2990607769897906,896.2363513849996,896.2363513849996,896.2363513849996,896.2363513849996,896.2363513849996,896.2363513849996,896.5075226030021,896.5075226030021,897.4602240690001,897.4602240690001,897.4842379949987,897.4842379949987,897.4842379949987,897.4842379949987,897.4842379949987,897.4842379949987,897.4842379949987,897.4842379949987,897.4842379949987,897.4842379949987,897.4842379949987,897.4842379949987,897.4842379949987,897.4842379949987,897.4842379949987,899.9838805960026,899.9838805960026,899.9838805960026,899.9838805960026,899.9838805960026,57,47,78,56,78,36,6.0,0.6075456399994437,900.6068078190001,902.1724960110005,,,,,,,160,m,22,2023-04-05_09h45.29.658,RL,2022.2.4,59.92912984926362,
1,99,0,99,0,,,,,,,,,,None,902.1724960110005,902.1724960110005,902.1724960110005,902.1724960110005,902.1724960110005,902.1724960110005,i,0.2584268759965198,902.4761950510001,902.4761950510001,902.4761950510001,902.4761950510001,902.4761950510001,902.4761950510001,902.7606051930052,902.7606051930052,904.3823872830108,904.3823872830108,904.4066958480107,904.4066958480107,904.4066958480107,904.4066958480107,904.4066958480107,904.4066958480107,904.4066958480107,904.4066958480107,904.4066958480107,904.4066958480107,904.4066958480107,904.4066958480107,904.4066958480107,904.4066958480107,904.4066958480107,906.9096236230107,906.9096236230107,906.9096236230107,906.9096236230107,906.9096236230107,61,54,67,57,67,58,4.0,0.4347671059949789,907.3598001290084,909.2906927510048,,,,,,,160,m,22,2023-04-05_09h45.29.658,RL,2022.2.4,59.92912984926362,
1,100,0,100,0,,,,,,,,,,None,909.2906927510048,909.2906927510048,909.2906927510048,909.2906927510048,909.2906927510048,909.2906927510048,i,0.1330838949943427,909.4772586090112,909.4772586090112,909.4772586090112,909.4772586090112,909.4772586090112,909.4772586090112,909.7475198290049,909.7475198290049,911.3115243720094,911.3115243720094,911.3348414060019,911.3348414060019,911.3348414060019,911.3348414060019,911.3348414060019,911.3348414060019,911.3348414060019,911.3348414060019,911.3348414060019,911.3348414060019,911.3348414060019,911.3348414060019,911.3348414060019,911.3348414060019,911.3348414060019,913.8393811440037,913.8393811440037,913.8393811440037,913.8393811440037,913.8393811440037,62,55,75,56,75,54,5.0,0.930846950999694,914.7838978670043,916.4609294350084,,,,,,,160,m,22,2023-04-05_09h45.29.658,RL,2022.2.4,59.92912984926362,
1,101,0,101,0,,,,,,,,,,None,916.4609294350084,916.4609294350084,916.4609294350084,916.4609294350084,916.4609294350084,916.4609294350084,i,0.18789896099769976,916.6978296220041,916.6978296220041,916.6978296220041,916.6978296220041,916.6978296220041,916.6978296220041,916.967980972011,916.967980972011,918.0229883300053,918.0229883300053,918.0465728639974,918.0465728639974,918.0465728639974,918.0465728639974,918.0465728639974,918.0465728639974,918.0465728639974,918.0465728639974,918.0465728639974,918.0465728639974,918.0465728639974,918.0465728639974,918.0465728639974,918.0465728639974,918.0465728639974,920.5452959469985,920.5452959469985,920.5452959469985,920.5452959469985,920.5452959469985,67,56,73,50,73,57,5.0,1.0658503559970995,921.6235820650036,923.2142464960052,,,,,,,160,m,22,2023-04-05_09h45.29.658,RL,2022.2.4,59.92912984926362,
1,102,0,102,0,,,,,,,,,,None,923.2142464960052,923.2142464960052,923.2142464960052,923.2142464960052,923.2142464960052,923.2142464960052,i,0.2093620180094149,923.4710292680102,923.4710292680102,923.4710292680102,923.4710292680102,923.4710292680102,923.4710292680102,923.7367533070064,923.7367533070064,925.1914664280048,925.1914664280048,925.2314759930014,925.2314759930014,925.2314759930014,925.2314759930014,925.2314759930014,925.2314759930014,925.2314759930014,925.2314759930014,925.2314759930014,925.2314759930014,925.2314759930014,925.2314759930014,925.2314759930014,925.2314759930014,925.2314759930014,927.7285153720004,927.7285153720004,927.7285153720004,927.7285153720004,927.7285153720004,58,45,83,51,83,56,5.0,1.5441412479995051,929.2869005740067,931.0192800310033,,,,,,,160,m,22,2023-04-05_09h45.29.658,RL,2022.2.4,59.92912984926362,
1,103,0,103,0,,,,,,,,,,None,931.0192800310033,931.0192800310033,931.0192800310033,931.0192800310033,931.0192800310033,931.0192800310033,i,0.2779443990002619,931.3441043820058,931.3441043820058,931.3441043820058,931.3441043820058,931.3441043820058,931.3441043820058,931.6130328520085,931.6130328520085,933.6033583399985,933.6033583399985,933.6406941309979,933.6406941309979,933.6406941309979,933.6406941309979,933.6406941309979,933.6406941309979,933.6406941309979,933.6406941309979,933.6406941309979,933.6406941309979,933.6406941309979,933.6406941309979,933.6406941309979,933.6406941309979,933.6406941309979,936.1477415850095,936.1477415850095,936.1477415850095,936.1477415850095,936.1477415850095,65,49,75,58,75,30,6.0,0.6000399089971324,936.7630921790114,938.6875703620026,,,,,,,160,m,22,2023-04-05_09h45.29.658,RL,2022.2.4,59.92912984926362,
1,104,0,104,0,,,,,,,,,,None,938.6875703620026,938.6875703620026,938.6875703620026,938.6875703620026,938.6875703620026,938.6875703620026,i,0.04055737100134138,938.7771189850027,938.7771189850027,938.7771189850027,938.7771189850027,938.7771189850027,938.7771189850027,939.0488578390068,939.0488578390068,940.0853868840059,940.0853868840059,940.1234115670086,940.1234115670086,940.1234115670086,940.1234115670086,940.1234115670086,940.1234115670086,940.1234115670086,940.1234115670086,940.1234115670086,940.1234115670086,940.1234115670086,940.1234115670086,940.1234115670086,940.1234115670086,940.1234115670086,942.6255586680054,942.6255586680054,942.6255586680054,942.6255586680054,942.6255586680054,69,51,77,58,77,37,6.0,0.7078313219972188,943.3479999460105,945.2090858010051,,,,,,,160,m,22,2023-04-05_09h45.29.658,RL,2022.2.4,59.92912984926362,
1,105,0,105,0,,,,,,,,,,None,945.2090858010051,945.2090858010051,945.2090858010051,945.2090858010051,945.2090858010051,945.2090858010051,j,0.2641982720087981,945.513158419999,945.513158419999,945.513158419999,945.513158419999,945.513158419999,945.513158419999,945.7836049199977,945.7836049199977,946.6938624440081,946.6938624440081,946.7353796120005,946.7353796120005,946.7353796120005,946.7353796120005,946.7353796120005,946.7353796120005,946.7353796120005,946.7353796120005,946.7353796120005,946.7353796120005,946.7353796120005,946.7353796120005,946.7353796120005,946.7353796120005,946.7353796120005,949.2421035950101,949.2421035950101,949.2421035950101,949.2421035950101,949.2421035950101,63,45,81,53,53,58,3.0,1.8169212359935045,951.0715600149997,953.0458802010107,,,,,,,160,m,22,2023-04-05_09h45.29.658,RL,2022.2.4,59.92912984926362,
1,106,0,106,0,,,,,,,,,,None,953.0458802010107,953.0458802010107,953.0458802010107,953.0458802010107,953.0458802010107,953.0458802010107,f,0.23015846298949327,953.3304937339999,953.3304937339999,953.3304937339999,953.3304937339999,953.3304937339999,953.3304937339999,953.6023467640043,953.6023467640043,954.7237153080059,954.7237153080059,954.7622786819993,954.7622786819993,954.7622786819993,954.7622786819993,954.7622786819993,954.7622786819993,954.7622786819993,954.7622786819993,954.7622786819993,954.7622786819993,954.7622786819993,954.7622786819993,954.7622786819993,954.7622786819993,954.7622786819993,957.2774418150075,957.2774418150075,957.2774418150075,957.2774418150075,957.2774418150075,58,42,74,61,42,55,3.0,0.7168171310040634,958.0067236650066,959.715694145998,,,,,,,160,m,22,2023-04-05_09h45.29.658,RL,2022.2.4,59.92912984926362,
1,107,0,107,0,,,,,,,,,,None,959.715694145998,959.715694145998,959.715694145998,959.715694145998,959.715694145998,959.715694145998,i,0.2595698179939063,960.0185943310062,960.0185943310062,960.0185943310062,960.0185943310062,960.0185943310062,960.0185943310062,960.2870326499979,960.2870326499979,961.883595250998,961.883595250998,961.9225031420065,961.9225031420065,961.9225031420065,961.9225031420065,961.9225031420065,961.9225031420065,961.9225031420065,961.9225031420065,961.9225031420065,961.9225031420065,961.9225031420065,961.9225031420065,961.9225031420065,961.9225031420065,961.9225031420065,964.4363581260113,964.4363581260113,964.4363581260113,964.4363581260113,964.4363581260113,59,30,70,53,70,51,5.0,0.7462308880058117,965.1999679920118,966.9850905040075,,,,,,,160,m,22,2023-04-05_09h45.29.658,RL,2022.2.4,59.92912984926362,
1,108,0,108,0,,,,,,,,,,None,966.9850905040075,966.9850905040075,966.9850905040075,966.9850905040075,966.9850905040075,966.9850905040075,r,0.41635039799439255,967.4426052890049,967.4426052890049,967.4426052890049,967.4426052890049,967.4426052890049,967.4426052890049,967.7128368819976,967.7128368819976,969.079708876001,969.079708876001,969.1193709340005,969.1193709340005,969.1193709340005,969.1193709340005,969.1193709340005,969.1193709340005,969.1193709340005,969.1193709340005,969.1193709340005,969.1193709340005,969.1193709340005,969.1193709340005,969.1193709340005,969.1193709340005,969.1193709340005,971.6313362200017,971.6313362200017,971.6313362200017,971.6313362200017,971.6313362200017,55,42,74,60,55,53,5.0,0.9982907970115775,972.6428538090113,974.4216301260021,,,,,,,160,m,22,2023-04-05_09h45.29.658,RL,2022.2.4,59.92912984926362,
1,109,0,109,0,,,,,,,,,,None,974.4216301260021,974.4216301260021,974.4216301260021,974.4216301260021,974.4216301260021,974.4216301260021,i,0.42661180699360557,974.8933383940021,974.8933383940021,974.8933383940021,974.8933383940021,974.8933383940021,974.8933383940021,975.1630595099996,975.1630595099996,976.1824151690089,976.1824151690089,976.2073980480054,976.2073980480054,976.2073980480054,976.2073980480054,976.2073980480054,976.2073980480054,976.2073980480054,976.2073980480054,976.2073980480054,976.2073980480054,976.2073980480054,976.2073980480054,976.2073980480054,976.2073980480054,976.2073980480054,978.706040101999,978.706040101999,978.706040101999,978.706040101999,978.706040101999,62,45,71,53,71,60,4.0,1.201037389007979,979.9235041440115,981.6765234960039,,,,,,,160,m,22,2023-04-05_09h45.29.658,RL,2022.2.4,59.92912984926362,
1,110,0,110,0,,,,,,,,,,None,981.6765234960039,981.6765234960039,981.6765234960039,981.6765234960039,981.6765234960039,981.6765234960039,i,0.2540615239995532,981.9779585740034,981.9779585740034,981.9779585740034,981.9779585740034,981.9779585740034,981.9779585740034,982.2481468379992,982.2481468379992,983.4170806190086,983.4170806190086,983.4583268130082,983.4583268130082,983.4583268130082,983.4583268130082,983.4583268130082,983.4583268130082,983.4583268130082,983.4583268130082,983.4583268130082,983.4583268130082,983.4583268130082,983.4583268130082,983.4583268130082,983.4583268130082,983.4583268130082,985.9648415630072,985.9648415630072,985.9648415630072,985.9648415630072,985.9648415630072,56,35,65,59,65,33,6.0,0.6240469159965869,986.6017267999996,988.5283278130082,,,,,,,160,m,22,2023-04-05_09h45.29.658,RL,2022.2.4,59.92912984926362,
1,111,0,111,0,,,,,,,,,,None,988.5283278130082,988.5283278130082,988.5283278130082,988.5283278130082,988.5283278130082,988.5283278130082,i,0.36147948099824134,988.9329543670028,988.9329543670028,988.9329543670028,988.9329543670028,988.9329543670028,988.9329543670028,989.2008888730052,989.2008888730052,990.9420987060003,990.9420987060003,990.9820804019982,990.9820804019982,990.9820804019982,990.9820804019982,990.9820804019982,990.9820804019982,990.9820804019982,990.9820804019982,990.9820804019982,990.9820804019982,990.9820804019982,990.9820804019982,990.9820804019982,990.9820804019982,990.9820804019982,993.4810787099996,993.4810787099996,993.4810787099996,993.4810787099996,993.4810787099996,60,39,70,55,70,52,5.0,0.49524952699721325,993.989042457004,995.6493492669979,,,,,,,160,m,22,2023-04-05_09h45.29.658,RL,2022.2.4,59.92912984926362,
1,112,0,112,0,,,,,,,,,,None,995.6493492669979,995.6493492669979,995.6493492669979,995.6493492669979,995.6493492669979,995.6493492669979,i,0.022272265996434726,995.7177900280076,995.7177900280076,995.7177900280076,995.7177900280076,995.7177900280076,995.7177900280076,995.9894375959993,995.9894375959993,997.386606177999,997.386606177999,997.4280372290086,997.4280372290086,997.4280372290086,997.4280372290086,997.4280372290086,997.4280372290086,997.4280372290086,997.4280372290086,997.4280372290086,997.4280372290086,997.4280372290086,997.4280372290086,997.4280372290086,997.4280372290086,997.4280372290086,999.9323610209976,999.9323610209976,999.9323610209976,999.9323610209976,999.9323610209976,61,43,77,60,77,29,6.0,0.9471528910071356,1000.8946953499981,1002.7693001279986,,,,,,,160,m,22,2023-04-05_09h45.29.658,RL,2022.2.4,59.92912984926362,
1,113,0,113,0,,,,,,,,,,None,1002.7693001279986,1002.7693001279986,1002.7693001279986,1002.7693001279986,1002.7693001279986,1002.7693001279986,i,0.22156864200951532,1003.036525618998,1003.036525618998,1003.036525618998,1003.036525618998,1003.036525618998,1003.036525618998,1003.308517382,1003.308517382,1004.5643291640008,1004.5643291640008,1004.5881056250073,1004.5881056250073,1004.5881056250073,1004.5881056250073,1004.5881056250073,1004.5881056250073,1004.5881056250073,1004.5881056250073,1004.5881056250073,1004.5881056250073,1004.5881056250073,1004.5881056250073,1004.5881056250073,1004.5881056250073,1004.5881056250073,1007.1047694330045,1007.1047694330045,1007.1047694330045,1007.1047694330045,1007.1047694330045,66,41,79,59,79,56,4.0,0.9387652010045713,1008.0571518330107,1009.6726358540036,,,,,,,160,m,22,2023-04-05_09h45.29.658,RL,2022.2.4,59.92912984926362,
1,114,0,114,0,,,,,,,,,,None,1009.6726358540036,1009.6726358540036,1009.6726358540036,1009.6726358540036,1009.6726358540036,1009.6726358540036,i,0.29035985500377137,1010.0149251200055,1010.0149251200055,1010.0149251200055,1010.0149251200055,1010.0149251200055,1010.0149251200055,1010.2847420290054,1010.2847420290054,1012.2823344810022,1012.2823344810022,1012.3228911970073,1012.3228911970073,1012.3228911970073,1012.3228911970073,1012.3228911970073,1012.3228911970073,1012.3228911970073,1012.3228911970073,1012.3228911970073,1012.3228911970073,1012.3228911970073,1012.3228911970073,1012.3228911970073,1012.3228911970073,1012.3228911970073,1014.8245993840101,1014.8245993840101,1014.8245993840101,1014.8245993840101,1014.8245993840101,57,40,75,52,75,59,5.0,0.598955378998653,1015.4372281030082,1017.2756755849987,,,,,,,160,m,22,2023-04-05_09h45.29.658,RL,2022.2.4,59.92912984926362,
