bandit,trials.thisRepN,trials.thisTrialN,trials.thisN,trials.thisIndex,instru_img1.started,instru_resp.started,instru_resp.keys,instru_resp.rt,instru_img2.started,instru_resp2.started,instru_resp2.keys,instru_resp2.rt,fixbefore_2.started,rest_response.keys,red.started,green.started,yellow.started,blue.started,choose_bandit.started,Fixation.started,choose_bandit.keys,choose_bandit.rt,black.started,red_2.started,green_2.started,yellow_2.started,blue_2.started,fixation_2.started,docs.started,image_2.started,docs.stopped,image_2.stopped,black.stopped,red_2.stopped,green_2.stopped,yellow_2.stopped,blue_2.stopped,fixation_2.stopped,black_com.started,reward_sub.started,palyerb.started,reward__sub.started,compare.started,red_compare.started,green_com.started,yellow_com.started,blue_com.started,image_3.started,slider.started,text.started,image_4.started,image_5.started,rewardyellow,rewardred,rewardblue,rewardgreen,subchoose,playerb,slider.response,slider.rt,intertrialfix.started,intertrialfix.stopped,bigx.started,bigx.stopped,rest_image.started,rest_response.started,rest_response.rt,image.started,key_resp.started,key_resp.keys,participant,Gender,Age,date,expName,psychopyVersion,frameRate,
,,,,,28.56706459983252,28.56706459983252,space,11.93390730000101,,,,,,,,,,,,,,,,,,,,,,,,,,,,,,,,,,,,,,,,,,,,,,,,,,,,,,,,,,,,,,,161,M,23,2023-04-03_17h39.13.859,RL,2022.2.4,59.98206537951064,
,,,,,,,,,40.52349769999273,40.52349769999273,y,29.013006099965423,,,,,,,,,,,,,,,,,,,,,,,,,,,,,,,,,,,,,,,,,,,,,,,,,,,,,,,,,,,161,M,23,2023-04-03_17h39.13.859,RL,2022.2.4,59.98206537951064,
1,0,0,0,0,,,,,,,,,69.55541559983976,None,70.570366299944,70.570366299944,70.570366299944,70.570366299944,70.570366299944,70.570366299944,j,0.6141607000026852,71.21399849979207,71.21399849979207,71.21399849979207,71.21399849979207,71.21399849979207,71.21399849979207,71.50082229985856,71.50082229985856,73.4283469999209,73.4283469999209,73.44726539985277,73.44726539985277,73.44726539985277,73.44726539985277,73.44726539985277,73.44726539985277,73.44726539985277,73.44726539985277,73.44726539985277,73.44726539985277,73.44726539985277,73.44726539985277,73.44726539985277,73.44726539985277,73.44726539985277,75.95502419979312,75.95502419979312,75.95502419979312,75.95502419979312,75.95502419979312,43,59,62,27,27,67,2.0,3.372682400047779,79.38408549991436,81.04120709979907,,,,,,,,,161,M,23,2023-04-03_17h39.13.859,RL,2022.2.4,59.98206537951064,
1,1,0,1,0,,,,,,,,,,None,81.04120709979907,81.04120709979907,81.04120709979907,81.04120709979907,81.04120709979907,81.04120709979907,r,0.5536368999164551,81.62649909988977,81.62649909988977,81.62649909988977,81.62649909988977,81.62649909988977,81.62649909988977,81.92251989990473,81.92251989990473,83.43459169985726,83.43459169985726,83.43459169985726,83.43459169985726,83.43459169985726,83.43459169985726,83.43459169985726,83.43459169985726,83.43459169985726,83.43459169985726,83.43459169985726,83.43459169985726,83.43459169985726,83.43459169985726,83.43459169985726,83.43459169985726,83.43459169985726,85.94369469978847,85.94369469978847,85.94369469978847,85.94369469978847,85.94369469978847,41,62,55,13,41,69,2.0,1.9599247998557985,87.9218252999708,89.51822379999794,,,,,,,,,161,M,23,2023-04-03_17h39.13.859,RL,2022.2.4,59.98206537951064,
1,2,0,2,0,,,,,,,,,,None,89.51822379999794,89.51822379999794,89.51822379999794,89.51822379999794,89.51822379999794,89.51822379999794,j,0.48413250013254583,90.03490609978326,90.03490609978326,90.03490609978326,90.03490609978326,90.03490609978326,90.03490609978326,90.3326277998276,90.3326277998276,91.31332539999858,91.31332539999858,91.31332539999858,91.31332539999858,91.31332539999858,91.31332539999858,91.31332539999858,91.31332539999858,91.31332539999858,91.31332539999858,91.31332539999858,91.31332539999858,91.31332539999858,91.31332539999858,91.31332539999858,91.31332539999858,91.31332539999858,93.82226419984363,93.82226419984363,93.82226419984363,93.82226419984363,93.82226419984363,43,61,64,30,30,46,3.0,2.0436215000227094,95.8834382998757,97.44648289983161,,,,,,,,,161,M,23,2023-04-03_17h39.13.859,RL,2022.2.4,59.98206537951064,
1,3,0,3,0,,,,,,,,,,None,97.44648289983161,97.44648289983161,97.44648289983161,97.44648289983161,97.44648289983161,97.44648289983161,f,0.8336843999568373,98.31263869977556,98.31263869977556,98.31263869977556,98.31263869977556,98.31263869977556,98.31263869977556,98.61003629979677,98.61003629979677,100.33803449990228,100.33803449990228,100.33803449990228,100.33803449990228,100.33803449990228,100.33803449990228,100.33803449990228,100.33803449990228,100.33803449990228,100.33803449990228,100.33803449990228,100.33803449990228,100.33803449990228,100.33803449990228,100.33803449990228,100.33803449990228,100.33803449990228,102.84773429995403,102.84773429995403,102.84773429995403,102.84773429995403,102.84773429995403,45,59,59,34,59,39,5.0,1.7602640001568943,104.62615159992129,106.35556839988567,,,,,,,,,161,M,23,2023-04-03_17h39.13.859,RL,2022.2.4,59.98206537951064,
1,4,0,4,0,,,,,,,,,,None,106.35556839988567,106.35556839988567,106.35556839988567,106.35556839988567,106.35556839988567,106.35556839988567,i,0.8464738999027759,107.22222369979136,107.22222369979136,107.22222369979136,107.22222369979136,107.22222369979136,107.22222369979136,107.51915929978713,107.51915929978713,108.79884249996394,108.79884249996394,108.79884249996394,108.79884249996394,108.79884249996394,108.79884249996394,108.79884249996394,108.79884249996394,108.79884249996394,108.79884249996394,108.79884249996394,108.79884249996394,108.79884249996394,108.79884249996394,108.79884249996394,108.79884249996394,108.79884249996394,111.30801409995183,111.30801409995183,111.30801409995183,111.30801409995183,111.30801409995183,39,67,57,26,57,73,3.0,1.5620789998210967,112.88714659982361,114.4000976998359,,,,,,,,,161,M,23,2023-04-03_17h39.13.859,RL,2022.2.4,59.98206537951064,
1,5,0,5,0,,,,,,,,,,None,114.4000976998359,114.4000976998359,114.4000976998359,114.4000976998359,114.4000976998359,114.4000976998359,j,1.044954099925235,115.46695929998532,115.46695929998532,115.46695929998532,115.46695929998532,115.46695929998532,115.46695929998532,115.76326729985885,115.76326729985885,117.65816619992256,117.65816619992256,117.65816619992256,117.65816619992256,117.65816619992256,117.65816619992256,117.65816619992256,117.65816619992256,117.65816619992256,117.65816619992256,117.65816619992256,117.65816619992256,117.65816619992256,117.65816619992256,117.65816619992256,117.65816619992256,117.65816619992256,120.16719939978793,120.16719939978793,120.16719939978793,120.16719939978793,120.16719939978793,38,59,54,26,26,30,2.0,0.8136277000885457,120.99812379991636,122.81062229978852,,,,,,,,,161,M,23,2023-04-03_17h39.13.859,RL,2022.2.4,59.98206537951064,
1,6,0,6,0,,,,,,,,,,None,122.81062229978852,122.81062229978852,122.81062229978852,122.81062229978852,122.81062229978852,122.81062229978852,i,1.3024086998775601,124.14153739996254,124.14153739996254,124.14153739996254,124.14153739996254,124.14153739996254,124.14153739996254,124.43989109992981,124.43989109992981,126.3015674999915,126.3015674999915,126.3015674999915,126.3015674999915,126.3015674999915,126.3015674999915,126.3015674999915,126.3015674999915,126.3015674999915,126.3015674999915,126.3015674999915,126.3015674999915,126.3015674999915,126.3015674999915,126.3015674999915,126.3015674999915,126.3015674999915,128.80993459979072,128.80993459979072,128.80993459979072,128.80993459979072,128.80993459979072,41,62,54,34,54,76,1.0,1.0635176999494433,129.89059529989026,131.70287319994532,,,,,,,,,161,M,23,2023-04-03_17h39.13.859,RL,2022.2.4,59.98206537951064,
1,7,0,7,0,,,,,,,,,,None,131.70287319994532,131.70287319994532,131.70287319994532,131.70287319994532,131.70287319994532,131.70287319994532,j,0.5183286999817938,132.25444069993682,132.25444069993682,132.25444069993682,132.25444069993682,132.25444069993682,132.25444069993682,132.55064959987067,132.55064959987067,134.08001529984176,134.08001529984176,134.08001529984176,134.08001529984176,134.08001529984176,134.08001529984176,134.08001529984176,134.08001529984176,134.08001529984176,134.08001529984176,134.08001529984176,134.08001529984176,134.08001529984176,134.08001529984176,134.08001529984176,134.08001529984176,134.08001529984176,136.58895479980856,136.58895479980856,136.58895479980856,136.58895479980856,136.58895479980856,34,64,66,27,27,51,2.0,0.8792711000423878,137.4863513999153,139.4152447998058,,,,,,,,,161,M,23,2023-04-03_17h39.13.859,RL,2022.2.4,59.98206537951064,
1,8,0,8,0,,,,,,,,,,None,139.4152447998058,139.4152447998058,139.4152447998058,139.4152447998058,139.4152447998058,139.4152447998058,r,0.46040560002438724,139.8996386998333,139.8996386998333,139.8996386998333,139.8996386998333,139.8996386998333,139.8996386998333,140.1967537999153,140.1967537999153,141.29420019988902,141.29420019988902,141.29420019988902,141.29420019988902,141.29420019988902,141.29420019988902,141.29420019988902,141.29420019988902,141.29420019988902,141.29420019988902,141.29420019988902,141.29420019988902,141.29420019988902,141.29420019988902,141.29420019988902,141.29420019988902,141.29420019988902,143.80278969998471,143.80278969998471,143.80278969998471,143.80278969998471,143.80278969998471,35,62,49,20,35,64,3.0,1.3779666000045836,145.1990059998352,146.79514709999785,,,,,,,,,161,M,23,2023-04-03_17h39.13.859,RL,2022.2.4,59.98206537951064,
1,9,0,9,0,,,,,,,,,,None,146.79514709999785,146.79514709999785,146.79514709999785,146.79514709999785,146.79514709999785,146.79514709999785,f,0.48353619989939034,147.31164289987646,147.31164289987646,147.31164289987646,147.31164289987646,147.31164289987646,147.31164289987646,147.60986579977907,147.60986579977907,148.6070533997845,148.6070533997845,148.6070533997845,148.6070533997845,148.6070533997845,148.6070533997845,148.6070533997845,148.6070533997845,148.6070533997845,148.6070533997845,148.6070533997845,148.6070533997845,148.6070533997845,148.6070533997845,148.6070533997845,148.6070533997845,148.6070533997845,151.11598769994453,151.11598769994453,151.11598769994453,151.11598769994453,151.11598769994453,34,66,54,32,66,39,5.0,2.242573699913919,153.3766459999606,155.35498889978044,,,,,,,,,161,M,23,2023-04-03_17h39.13.859,RL,2022.2.4,59.98206537951064,
1,10,0,10,0,,,,,,,,,,None,155.35498889978044,155.35498889978044,155.35498889978044,155.35498889978044,155.35498889978044,155.35498889978044,f,0.3068560999818146,155.68981549981982,155.68981549981982,155.68981549981982,155.68981549981982,155.68981549981982,155.68981549981982,155.98710719984956,155.98710719984956,157.6985410999041,157.6985410999041,157.6985410999041,157.6985410999041,157.6985410999041,157.6985410999041,157.6985410999041,157.6985410999041,157.6985410999041,157.6985410999041,157.6985410999041,157.6985410999041,157.6985410999041,157.6985410999041,157.6985410999041,157.6985410999041,157.6985410999041,160.20765749993734,160.20765749993734,160.20765749993734,160.20765749993734,160.20765749993734,44,75,54,24,75,56,5.0,1.960533699952066,162.18552249995992,164.09806569991633,,,,,,,,,161,M,23,2023-04-03_17h39.13.859,RL,2022.2.4,59.98206537951064,
1,11,0,11,0,,,,,,,,,,None,164.09806569991633,164.09806569991633,164.09806569991633,164.09806569991633,164.09806569991633,164.09806569991633,f,0.45106310001574457,164.58283139998093,164.58283139998093,164.58283139998093,164.58283139998093,164.58283139998093,164.58283139998093,164.8793819998391,164.8793819998391,166.20857179979794,166.20857179979794,166.22574319993146,166.22574319993146,166.22574319993146,166.22574319993146,166.22574319993146,166.22574319993146,166.22574319993146,166.22574319993146,166.22574319993146,166.22574319993146,166.22574319993146,166.22574319993146,166.22574319993146,166.22574319993146,166.22574319993146,168.7342967998702,168.7342967998702,168.7342967998702,168.7342967998702,168.7342967998702,39,73,57,29,73,47,5.0,1.7277577999047935,170.48003309988417,172.14279769989662,,,,,,,,,161,M,23,2023-04-03_17h39.13.859,RL,2022.2.4,59.98206537951064,
1,12,0,12,0,,,,,,,,,,None,172.14279769989662,172.14279769989662,172.14279769989662,172.14279769989662,172.14279769989662,172.14279769989662,f,0.9446803999599069,173.1094059997704,173.1094059997704,173.1094059997704,173.1094059997704,173.1094059997704,173.1094059997704,173.4056905999314,173.4056905999314,174.58607829990797,174.58607829990797,174.6024247999303,174.6024247999303,174.6024247999303,174.6024247999303,174.6024247999303,174.6024247999303,174.6024247999303,174.6024247999303,174.6024247999303,174.6024247999303,174.6024247999303,174.6024247999303,174.6024247999303,174.6024247999303,174.6024247999303,177.11161039979197,177.11161039979197,177.11161039979197,177.11161039979197,177.11161039979197,46,69,53,27,69,78,6.0,1.7277976998593658,178.85707809985615,180.78576529980637,,,,,,,,,161,M,23,2023-04-03_17h39.13.859,RL,2022.2.4,59.98206537951064,
1,13,0,13,0,,,,,,,,,,None,180.78576529980637,180.78576529980637,180.78576529980637,180.78576529980637,180.78576529980637,180.78576529980637,j,0.8491379998158664,181.66700269980356,181.66700269980356,181.66700269980356,181.66700269980356,181.66700269980356,181.66700269980356,181.9662751997821,181.9662751997821,183.16285269986838,183.16285269986838,183.16285269986838,183.16285269986838,183.16285269986838,183.16285269986838,183.16285269986838,183.16285269986838,183.16285269986838,183.16285269986838,183.16285269986838,183.16285269986838,183.16285269986838,183.16285269986838,183.16285269986838,183.16285269986838,183.16285269986838,185.67175689991564,185.67175689991564,185.67175689991564,185.67175689991564,185.67175689991564,44,70,49,17,17,67,1.0,1.162494600052014,186.8518873997964,188.4480911998544,,,,,,,,,161,M,23,2023-04-03_17h39.13.859,RL,2022.2.4,59.98206537951064,
1,14,0,14,0,,,,,,,,,,None,188.4480911998544,188.4480911998544,188.4480911998544,188.4480911998544,188.4480911998544,188.4480911998544,f,0.425618699984625,188.8994743998628,188.8994743998628,188.8994743998628,188.8994743998628,188.8994743998628,188.8994743998628,189.19628769997507,189.19628769997507,190.8246856997721,190.8246856997721,190.8246856997721,190.8246856997721,190.8246856997721,190.8246856997721,190.8246856997721,190.8246856997721,190.8246856997721,190.8246856997721,190.8246856997721,190.8246856997721,190.8246856997721,190.8246856997721,190.8246856997721,190.8246856997721,190.8246856997721,193.33414699998684,193.33414699998684,193.33414699998684,193.33414699998684,193.33414699998684,51,61,52,26,61,44,5.0,1.577898500021547,194.92991319997236,196.64282109984197,,,,,,,,,161,M,23,2023-04-03_17h39.13.859,RL,2022.2.4,59.98206537951064,
1,15,0,15,0,,,,,,,,,,None,196.64282109984197,196.64282109984197,196.64282109984197,196.64282109984197,196.64282109984197,196.64282109984197,f,0.3889760000165552,197.06104819988832,197.06104819988832,197.06104819988832,197.06104819988832,197.06104819988832,197.06104819988832,197.35775879980065,197.35775879980065,198.68700899998657,198.68700899998657,198.68700899998657,198.68700899998657,198.68700899998657,198.68700899998657,198.68700899998657,198.68700899998657,198.68700899998657,198.68700899998657,198.68700899998657,198.68700899998657,198.68700899998657,198.68700899998657,198.68700899998657,198.68700899998657,198.68700899998657,201.19590399996378,201.19590399996378,201.19590399996378,201.19590399996378,201.19590399996378,52,56,45,16,56,40,5.0,1.2449495000764728,202.4593625999987,204.4379208998289,,,,,,,,,161,M,23,2023-04-03_17h39.13.859,RL,2022.2.4,59.98206537951064,
1,16,0,16,0,,,,,,,,,,None,204.4379208998289,204.4379208998289,204.4379208998289,204.4379208998289,204.4379208998289,204.4379208998289,f,1.2162683999631554,205.686784299789,205.686784299789,205.686784299789,205.686784299789,205.686784299789,205.686784299789,205.98411039984785,205.98411039984785,206.93119749985635,206.93119749985635,206.94785549980588,206.94785549980588,206.94785549980588,206.94785549980588,206.94785549980588,206.94785549980588,206.94785549980588,206.94785549980588,206.94785549980588,206.94785549980588,206.94785549980588,206.94785549980588,206.94785549980588,206.94785549980588,206.94785549980588,209.45677079982124,209.45677079982124,209.45677079982124,209.45677079982124,209.45677079982124,52,57,52,27,57,74,6.0,0.9462415999732912,210.42068149987608,212.2332610997837,,,,,,,,,161,M,23,2023-04-03_17h39.13.859,RL,2022.2.4,59.98206537951064,
1,17,0,17,0,,,,,,,,,,None,212.2332610997837,212.2332610997837,212.2332610997837,212.2332610997837,212.2332610997837,212.2332610997837,r,0.32042989996261895,212.58285879995674,212.58285879995674,212.58285879995674,212.58285879995674,212.58285879995674,212.58285879995674,212.881357899867,212.881357899867,214.244450799888,214.244450799888,214.244450799888,214.244450799888,214.244450799888,214.244450799888,214.244450799888,214.244450799888,214.244450799888,214.244450799888,214.244450799888,214.244450799888,214.244450799888,214.244450799888,214.244450799888,214.244450799888,214.244450799888,216.75359769980423,216.75359769980423,216.75359769980423,216.75359769980423,216.75359769980423,49,59,46,26,49,45,5.0,1.5116381999105215,218.2827932999935,219.8623474999331,,,,,,,,,161,M,23,2023-04-03_17h39.13.859,RL,2022.2.4,59.98206537951064,
1,18,0,18,0,,,,,,,,,,None,219.8623474999331,219.8623474999331,219.8623474999331,219.8623474999331,219.8623474999331,219.8623474999331,r,0.7246924000792205,220.61303089978173,220.61303089978173,220.61303089978173,220.61303089978173,220.61303089978173,220.61303089978173,220.90978819993325,220.90978819993325,222.13984459987842,222.13984459987842,222.13984459987842,222.13984459987842,222.13984459987842,222.13984459987842,222.13984459987842,222.13984459987842,222.13984459987842,222.13984459987842,222.13984459987842,222.13984459987842,222.13984459987842,222.13984459987842,222.13984459987842,222.13984459987842,222.13984459987842,224.6487463999074,224.6487463999074,224.6487463999074,224.6487463999074,224.6487463999074,49,68,44,27,49,43,5.0,0.8297359999269247,225.49625749979168,227.24216019990854,,,,,,,,,161,M,23,2023-04-03_17h39.13.859,RL,2022.2.4,59.98206537951064,
1,19,0,19,0,,,,,,,,,,None,227.24216019990854,227.24216019990854,227.24216019990854,227.24216019990854,227.24216019990854,227.24216019990854,r,0.9626981001347303,228.22600269992836,228.22600269992836,228.22600269992836,228.22600269992836,228.22600269992836,228.22600269992836,228.52241099998355,228.52241099998355,229.98449819977395,229.98449819977395,230.0017346998211,230.0017346998211,230.0017346998211,230.0017346998211,230.0017346998211,230.0017346998211,230.0017346998211,230.0017346998211,230.0017346998211,230.0017346998211,230.0017346998211,230.0017346998211,230.0017346998211,230.0017346998211,230.0017346998211,232.51046859985217,232.51046859985217,232.51046859985217,232.51046859985217,232.51046859985217,40,64,49,29,40,49,3.0,1.677945400122553,234.20593559998088,236.01818569982424,,,,,,,,,161,M,23,2023-04-03_17h39.13.859,RL,2022.2.4,59.98206537951064,
1,20,0,20,0,,,,,,,,,,None,236.01818569982424,236.01818569982424,236.01818569982424,236.01818569982424,236.01818569982424,236.01818569982424,f,1.139365900075063,237.18529419996776,237.18529419996776,237.18529419996776,237.18529419996776,237.18529419996776,237.18529419996776,237.48125309986062,237.48125309986062,238.57796889985912,238.57796889985912,238.57796889985912,238.57796889985912,238.57796889985912,238.57796889985912,238.57796889985912,238.57796889985912,238.57796889985912,238.57796889985912,238.57796889985912,238.57796889985912,238.57796889985912,238.57796889985912,238.57796889985912,238.57796889985912,238.57796889985912,241.08681179978885,241.08681179978885,241.08681179978885,241.08681179978885,241.08681179978885,48,62,41,24,62,73,5.0,1.6935298000462353,242.79831469990313,244.39541569980793,,,,,,,,,161,M,23,2023-04-03_17h39.13.859,RL,2022.2.4,59.98206537951064,
1,21,0,21,0,,,,,,,,,,None,244.39541569980793,244.39541569980793,244.39541569980793,244.39541569980793,244.39541569980793,244.39541569980793,f,0.37024910002946854,244.7971326999832,244.7971326999832,244.7971326999832,244.7971326999832,244.7971326999832,244.7971326999832,245.09386659995653,245.09386659995653,245.90828469977714,245.90828469977714,245.90828469977714,245.90828469977714,245.90828469977714,245.90828469977714,245.90828469977714,245.90828469977714,245.90828469977714,245.90828469977714,245.90828469977714,245.90828469977714,245.90828469977714,245.90828469977714,245.90828469977714,245.90828469977714,245.90828469977714,248.41716579999775,248.41716579999775,248.41716579999775,248.41716579999775,248.41716579999775,44,61,44,30,61,63,5.0,0.5650267000310123,248.99884169991128,250.5118348998949,,,,,,,,,161,M,23,2023-04-03_17h39.13.859,RL,2022.2.4,59.98206537951064,
1,22,0,22,0,,,,,,,,,,None,250.5118348998949,250.5118348998949,250.5118348998949,250.5118348998949,250.5118348998949,250.5118348998949,r,0.7776018001604825,251.312144999858,251.312144999858,251.312144999858,251.312144999858,251.312144999858,251.312144999858,251.60913539980538,251.60913539980538,253.07164419977926,253.07164419977926,253.07164419977926,253.07164419977926,253.07164419977926,253.07164419977926,253.07164419977926,253.07164419977926,253.07164419977926,253.07164419977926,253.07164419977926,253.07164419977926,253.07164419977926,253.07164419977926,253.07164419977926,253.07164419977926,253.07164419977926,255.58073469996452,255.58073469996452,255.58073469996452,255.58073469996452,255.58073469996452,46,54,46,22,46,62,3.0,1.2458816000726074,256.8441455999855,258.6731864998583,,,,,,,,,161,M,23,2023-04-03_17h39.13.859,RL,2022.2.4,59.98206537951064,
1,23,0,23,0,,,,,,,,,,None,258.6731864998583,258.6731864998583,258.6731864998583,258.6731864998583,258.6731864998583,258.6731864998583,None,,,,,,,,,,,,,,,,,,,,,,,,,,,,,,,,42,66,30,28,0,**,None,None,264.70574829983525,266.30210389988497,260.1920340999495,264.70574829983525,,,,,,,161,M,23,2023-04-03_17h39.13.859,RL,2022.2.4,59.98206537951064,
1,24,0,24,0,,,,,,,,,,None,266.30210389988497,266.30210389988497,266.30210389988497,266.30210389988497,266.30210389988497,266.30210389988497,j,0.2936034998856485,266.6210939998273,266.6210939998273,266.6210939998273,266.6210939998273,266.6210939998273,266.6210939998273,266.91726019978523,266.91726019978523,267.8150714999065,267.8150714999065,267.8150714999065,267.8150714999065,267.8150714999065,267.8150714999065,267.8150714999065,267.8150714999065,267.8150714999065,267.8150714999065,267.8150714999065,267.8150714999065,267.8150714999065,267.8150714999065,267.8150714999065,267.8150714999065,267.8150714999065,270.32416729978286,270.32416729978286,270.32416729978286,270.32416729978286,270.32416729978286,55,70,43,31,31,66,2.0,1.6108177998103201,271.9527758997865,273.79851949983276,,,,,,,,,161,M,23,2023-04-03_17h39.13.859,RL,2022.2.4,59.98206537951064,
1,25,0,25,0,,,,,,,,,,None,273.79851949983276,273.79851949983276,273.79851949983276,273.79851949983276,273.79851949983276,273.79851949983276,f,0.3500383999198675,274.1833399999887,274.1833399999887,274.1833399999887,274.1833399999887,274.1833399999887,274.1833399999887,274.4803504999727,274.4803504999727,276.35795009997673,276.35795009997673,276.37480089999735,276.37480089999735,276.37480089999735,276.37480089999735,276.37480089999735,276.37480089999735,276.37480089999735,276.37480089999735,276.37480089999735,276.37480089999735,276.37480089999735,276.37480089999735,276.37480089999735,276.37480089999735,276.37480089999735,278.88408269989304,278.88408269989304,278.88408269989304,278.88408269989304,278.88408269989304,46,59,49,19,59,53,5.0,0.8800953000318259,279.7815657998435,281.67705839988776,,,,,,,,,161,M,23,2023-04-03_17h39.13.859,RL,2022.2.4,59.98206537951064,
1,26,0,26,0,,,,,,,,,,None,281.67705839988776,281.67705839988776,281.67705839988776,281.67705839988776,281.67705839988776,281.67705839988776,i,0.4887542000506073,282.1946159999352,282.1946159999352,282.1946159999352,282.1946159999352,282.1946159999352,282.1946159999352,282.49191639991477,282.49191639991477,283.8042506999336,283.8042506999336,283.82130379998125,283.82130379998125,283.82130379998125,283.82130379998125,283.82130379998125,283.82130379998125,283.82130379998125,283.82130379998125,283.82130379998125,283.82130379998125,283.82130379998125,283.82130379998125,283.82130379998125,283.82130379998125,283.82130379998125,286.32995739998296,286.32995739998296,286.32995739998296,286.32995739998296,286.32995739998296,48,70,50,19,50,66,4.0,1.2453485000878572,287.59373459988274,289.5223036999814,,,,,,,,,161,M,23,2023-04-03_17h39.13.859,RL,2022.2.4,59.98206537951064,
1,27,0,27,0,,,,,,,,,,None,289.5223036999814,289.5223036999814,289.5223036999814,289.5223036999814,289.5223036999814,289.5223036999814,f,0.22058510011993349,289.7731481997762,289.7731481997762,289.7731481997762,289.7731481997762,289.7731481997762,289.7731481997762,290.0710441998672,290.0710441998672,291.5336228997912,291.5336228997912,291.5336228997912,291.5336228997912,291.5336228997912,291.5336228997912,291.5336228997912,291.5336228997912,291.5336228997912,291.5336228997912,291.5336228997912,291.5336228997912,291.5336228997912,291.5336228997912,291.5336228997912,291.5336228997912,291.5336228997912,294.0425932998769,294.0425932998769,294.0425932998769,294.0425932998769,294.0425932998769,58,65,48,32,65,42,4.0,0.48138779983855784,294.5412941998802,296.1042224999983,,,,,,,,,161,M,23,2023-04-03_17h39.13.859,RL,2022.2.4,59.98206537951064,
1,28,0,28,0,,,,,,,,,,None,296.1042224999983,296.1042224999983,296.1042224999983,296.1042224999983,296.1042224999983,296.1042224999983,f,0.4517465000972152,296.5881521999836,296.5881521999836,296.5881521999836,296.5881521999836,296.5881521999836,296.5881521999836,296.8858870998956,296.8858870998956,298.29845609981567,298.29845609981567,298.29845609981567,298.29845609981567,298.29845609981567,298.29845609981567,298.29845609981567,298.29845609981567,298.29845609981567,298.29845609981567,298.29845609981567,298.29845609981567,298.29845609981567,298.29845609981567,298.29845609981567,298.29845609981567,298.29845609981567,300.8075519998092,300.8075519998092,300.8075519998092,300.8075519998092,300.8075519998092,50,59,47,16,59,57,5.0,0.846354499924928,301.6717369998805,303.5840153999161,,,,,,,,,161,M,23,2023-04-03_17h39.13.859,RL,2022.2.4,59.98206537951064,
1,29,0,29,0,,,,,,,,,,None,303.5840153999161,303.5840153999161,303.5840153999161,303.5840153999161,303.5840153999161,303.5840153999161,i,0.8791305001359433,304.4829428999219,304.4829428999219,304.4829428999219,304.4829428999219,304.4829428999219,304.4829428999219,304.7809176999144,304.7809176999144,305.9608695998322,305.9608695998322,305.9608695998322,305.9608695998322,305.9608695998322,305.9608695998322,305.9608695998322,305.9608695998322,305.9608695998322,305.9608695998322,305.9608695998322,305.9608695998322,305.9608695998322,305.9608695998322,305.9608695998322,305.9608695998322,305.9608695998322,308.4697389998473,308.4697389998473,308.4697389998473,308.4697389998473,308.4697389998473,47,61,48,26,48,55,3.0,1.012334099970758,309.50057829986326,311.4458924999926,,,,,,,,,161,M,23,2023-04-03_17h39.13.859,RL,2022.2.4,59.98206537951064,
1,30,0,30,0,,,,,,,,,,None,311.4458924999926,311.4458924999926,311.4458924999926,311.4458924999926,311.4458924999926,311.4458924999926,j,0.3199291001074016,311.7980317999609,311.7980317999609,311.7980317999609,311.7980317999609,311.7980317999609,311.7980317999609,312.09456279990263,312.09456279990263,313.4070306997746,313.4070306997746,313.4239960999694,313.4239960999694,313.4239960999694,313.4239960999694,313.4239960999694,313.4239960999694,313.4239960999694,313.4239960999694,313.4239960999694,313.4239960999694,313.4239960999694,313.4239960999694,313.4239960999694,313.4239960999694,313.4239960999694,315.93288229987957,315.93288229987957,315.93288229987957,315.93288229987957,315.93288229987957,39,71,44,27,27,61,2.0,1.3954554998781532,317.3456349999178,318.958418399794,,,,,,,,,161,M,23,2023-04-03_17h39.13.859,RL,2022.2.4,59.98206537951064,
1,31,0,31,0,,,,,,,,,,None,318.958418399794,318.958418399794,318.958418399794,318.958418399794,318.958418399794,318.958418399794,f,0.6440553001593798,319.6259706998244,319.6259706998244,319.6259706998244,319.6259706998244,319.6259706998244,319.6259706998244,319.92277209996246,319.92277209996246,321.4021275998093,321.4021275998093,321.4021275998093,321.4021275998093,321.4021275998093,321.4021275998093,321.4021275998093,321.4021275998093,321.4021275998093,321.4021275998093,321.4021275998093,321.4021275998093,321.4021275998093,321.4021275998093,321.4021275998093,321.4021275998093,321.4021275998093,323.9112360998988,323.9112360998988,323.9112360998988,323.9112360998988,323.9112360998988,40,66,40,34,66,58,4.0,1.2793576000258327,325.2076303998474,327.202618899988,,,,,,,,,161,M,23,2023-04-03_17h39.13.859,RL,2022.2.4,59.98206537951064,
1,32,0,32,0,,,,,,,,,,None,327.202618899988,327.202618899988,327.202618899988,327.202618899988,327.202618899988,327.202618899988,f,0.37098579993471503,327.6046425998211,327.6046425998211,327.6046425998211,327.6046425998211,327.6046425998211,327.6046425998211,327.901420599781,327.901420599781,329.4801163999364,329.4801163999364,329.4801163999364,329.4801163999364,329.4801163999364,329.4801163999364,329.4801163999364,329.4801163999364,329.4801163999364,329.4801163999364,329.4801163999364,329.4801163999364,329.4801163999364,329.4801163999364,329.4801163999364,329.4801163999364,329.4801163999364,331.9888327999506,331.9888327999506,331.9888327999506,331.9888327999506,331.9888327999506,34,64,41,29,64,64,5.0,0.897671400103718,332.9032962999772,334.4662759997882,,,,,,,,,161,M,23,2023-04-03_17h39.13.859,RL,2022.2.4,59.98206537951064,
1,33,0,33,0,,,,,,,,,,None,334.4662759997882,334.4662759997882,334.4662759997882,334.4662759997882,334.4662759997882,334.4662759997882,f,0.514919500099495,335.0016831997782,335.0016831997782,335.0016831997782,335.0016831997782,335.0016831997782,335.0016831997782,335.29764789994806,335.29764789994806,336.12850399990566,336.12850399990566,336.1453272998333,336.1453272998333,336.1453272998333,336.1453272998333,336.1453272998333,336.1453272998333,336.1453272998333,336.1453272998333,336.1453272998333,336.1453272998333,336.1453272998333,336.1453272998333,336.1453272998333,336.1453272998333,336.1453272998333,338.6542874998413,338.6542874998413,338.6542874998413,338.6542874998413,338.6542874998413,30,66,43,34,66,63,5.0,1.4781227000057697,340.1497874998022,342.0622181999497,,,,,,,,,161,M,23,2023-04-03_17h39.13.859,RL,2022.2.4,59.98206537951064,
1,34,0,34,0,,,,,,,,,,None,342.0622181999497,342.0622181999497,342.0622181999497,342.0622181999497,342.0622181999497,342.0622181999497,f,1.0307537000626326,343.12665149988607,343.12665149988607,343.12665149988607,343.12665149988607,343.12665149988607,343.12665149988607,343.4254303998314,343.4254303998314,344.47301549999975,344.47301549999975,344.47301549999975,344.47301549999975,344.47301549999975,344.47301549999975,344.47301549999975,344.47301549999975,344.47301549999975,344.47301549999975,344.47301549999975,344.47301549999975,344.47301549999975,344.47301549999975,344.47301549999975,344.47301549999975,344.47301549999975,346.98137849988416,346.98137849988416,346.98137849988416,346.98137849988416,346.98137849988416,36,59,40,29,59,59,5.0,0.6143241999670863,347.6131453998387,349.29265089984983,,,,,,,,,161,M,23,2023-04-03_17h39.13.859,RL,2022.2.4,59.98206537951064,
1,35,0,35,0,,,,,,,,,,None,349.29265089984983,349.29265089984983,349.29265089984983,349.29265089984983,349.29265089984983,349.29265089984983,f,0.81704520015046,350.14052259991877,350.14052259991877,350.14052259991877,350.14052259991877,350.14052259991877,350.14052259991877,350.4398378999904,350.4398378999904,352.1516403998248,352.1516403998248,352.1516403998248,352.1516403998248,352.1516403998248,352.1516403998248,352.1516403998248,352.1516403998248,352.1516403998248,352.1516403998248,352.1516403998248,352.1516403998248,352.1516403998248,352.1516403998248,352.1516403998248,352.1516403998248,352.1516403998248,354.660615199944,354.660615199944,354.660615199944,354.660615199944,354.660615199944,42,66,42,35,66,75,5.0,0.3645014998037368,355.0424152999185,357.0048851999454,,,,,,,,,161,M,23,2023-04-03_17h39.13.859,RL,2022.2.4,59.98206537951064,
1,36,0,36,0,,,,,,,,,,None,357.0048851999454,357.0048851999454,357.0048851999454,357.0048851999454,357.0048851999454,357.0048851999454,r,0.5420617000199854,357.57204609992914,357.57204609992914,357.57204609992914,357.57204609992914,357.57204609992914,357.57204609992914,357.8695971998386,357.8695971998386,359.6975873999763,359.6975873999763,359.6975873999763,359.6975873999763,359.6975873999763,359.6975873999763,359.6975873999763,359.6975873999763,359.6975873999763,359.6975873999763,359.6975873999763,359.6975873999763,359.6975873999763,359.6975873999763,359.6975873999763,359.6975873999763,359.6975873999763,362.20685389987193,362.20685389987193,362.20685389987193,362.20685389987193,362.20685389987193,41,58,51,40,41,51,2.0,0.764128000009805,362.9877689999994,364.6840958998073,,,,,,,,,161,M,23,2023-04-03_17h39.13.859,RL,2022.2.4,59.98206537951064,
1,37,0,37,0,,,,,,,,,,None,364.6840958998073,364.6840958998073,364.6840958998073,364.6840958998073,364.6840958998073,364.6840958998073,r,0.9537129998207092,365.66575619997457,365.66575619997457,365.66575619997457,365.66575619997457,365.66575619997457,365.66575619997457,365.96423429995775,365.96423429995775,367.0935638998635,367.0935638998635,367.0935638998635,367.0935638998635,367.0935638998635,367.0935638998635,367.0935638998635,367.0935638998635,367.0935638998635,367.0935638998635,367.0935638998635,367.0935638998635,367.0935638998635,367.0935638998635,367.0935638998635,367.0935638998635,367.0935638998635,369.6032402999699,369.6032402999699,369.6032402999699,369.6032402999699,369.6032402999699,41,58,57,37,41,61,3.0,1.3106773002073169,370.9324065998662,372.5118552998174,,,,,,,,,161,M,23,2023-04-03_17h39.13.859,RL,2022.2.4,59.98206537951064,
1,38,0,38,0,,,,,,,,,,None,372.5118552998174,372.5118552998174,372.5118552998174,372.5118552998174,372.5118552998174,372.5118552998174,f,0.3141935998573899,372.8447620999068,372.8447620999068,372.8447620999068,372.8447620999068,372.8447620999068,372.8447620999068,373.1436512998771,373.1436512998771,374.4565074997954,374.4565074997954,374.4565074997954,374.4565074997954,374.4565074997954,374.4565074997954,374.4565074997954,374.4565074997954,374.4565074997954,374.4565074997954,374.4565074997954,374.4565074997954,374.4565074997954,374.4565074997954,374.4565074997954,374.4565074997954,374.4565074997954,376.9660671998281,376.9660671998281,376.9660671998281,376.9660671998281,376.9660671998281,48,57,56,30,57,53,4.0,1.3454597000963986,378.3298369999975,379.8756027999334,,,,,,,,,161,M,23,2023-04-03_17h39.13.859,RL,2022.2.4,59.98206537951064,
1,39,0,39,0,,,,,,,,,,None,379.8756027999334,379.8756027999334,379.8756027999334,379.8756027999334,379.8756027999334,379.8756027999334,f,0.38224649988114834,380.27775419992395,380.27775419992395,380.27775419992395,380.27775419992395,380.27775419992395,380.27775419992395,380.5745141999796,380.5745141999796,381.85346139990725,381.85346139990725,381.8705043999944,381.8705043999944,381.8705043999944,381.8705043999944,381.8705043999944,381.8705043999944,381.8705043999944,381.8705043999944,381.8705043999944,381.8705043999944,381.8705043999944,381.8705043999944,381.8705043999944,381.8705043999944,381.8705043999944,384.37914209999144,384.37914209999144,384.37914209999144,384.37914209999144,384.37914209999144,50,62,67,38,62,50,5.0,0.5147195998579264,384.9110291998368,386.65708679985255,,,,,,,,,161,M,23,2023-04-03_17h39.13.859,RL,2022.2.4,59.98206537951064,
1,40,0,40,0,,,,,,,,,,None,386.65708679985255,386.65708679985255,386.65708679985255,386.65708679985255,386.65708679985255,386.65708679985255,f,0.9837498001288623,387.6725162998773,387.6725162998773,387.6725162998773,387.6725162998773,387.6725162998773,387.6725162998773,387.9704740999732,387.9704740999732,389.05097639979795,389.05097639979795,389.05097639979795,389.05097639979795,389.05097639979795,389.05097639979795,389.05097639979795,389.05097639979795,389.05097639979795,389.05097639979795,389.05097639979795,389.05097639979795,389.05097639979795,389.05097639979795,389.05097639979795,389.05097639979795,389.05097639979795,391.56000279984437,391.56000279984437,391.56000279984437,391.56000279984437,391.56000279984437,51,62,58,42,62,49,5.0,0.7469351999461651,392.32446119980887,394.13695739977993,,,,,,,,,161,M,23,2023-04-03_17h39.13.859,RL,2022.2.4,59.98206537951064,
1,41,0,41,0,,,,,,,,,,None,394.13695739977993,394.13695739977993,394.13695739977993,394.13695739977993,394.13695739977993,394.13695739977993,f,0.6460092000197619,394.8019896999467,394.8019896999467,394.8019896999467,394.8019896999467,394.8019896999467,394.8019896999467,395.10065319994465,395.10065319994465,395.9820202998817,395.9820202998817,395.9820202998817,395.9820202998817,395.9820202998817,395.9820202998817,395.9820202998817,395.9820202998817,395.9820202998817,395.9820202998817,395.9820202998817,395.9820202998817,395.9820202998817,395.9820202998817,395.9820202998817,395.9820202998817,395.9820202998817,398.49113099998794,398.49113099998794,398.49113099998794,398.49113099998794,398.49113099998794,43,55,51,42,55,53,5.0,0.896708199987188,399.404841999989,401.3998709998559,,,,,,,,,161,M,23,2023-04-03_17h39.13.859,RL,2022.2.4,59.98206537951064,
1,42,0,42,0,,,,,,,,,,None,401.3998709998559,401.3998709998559,401.3998709998559,401.3998709998559,401.3998709998559,401.3998709998559,f,0.7551754000596702,402.18448459985666,402.18448459985666,402.18448459985666,402.18448459985666,402.18448459985666,402.18448459985666,402.4807061997708,402.4807061997708,404.02674869983457,404.02674869983457,404.02674869983457,404.02674869983457,404.02674869983457,404.02674869983457,404.02674869983457,404.02674869983457,404.02674869983457,404.02674869983457,404.02674869983457,404.02674869983457,404.02674869983457,404.02674869983457,404.02674869983457,404.02674869983457,404.02674869983457,406.53553199977614,406.53553199977614,406.53553199977614,406.53553199977614,406.53553199977614,44,64,51,44,64,55,5.0,0.9628566999454051,407.51620359998196,409.2788740999531,,,,,,,,,161,M,23,2023-04-03_17h39.13.859,RL,2022.2.4,59.98206537951064,
1,43,0,43,0,,,,,,,,,,None,409.2788740999531,409.2788740999531,409.2788740999531,409.2788740999531,409.2788740999531,409.2788740999531,f,0.31799870007671416,409.629702599952,409.629702599952,409.629702599952,409.629702599952,409.629702599952,409.629702599952,409.9274527998641,409.9274527998641,410.89140899991617,410.89140899991617,410.89140899991617,410.89140899991617,410.89140899991617,410.89140899991617,410.89140899991617,410.89140899991617,410.89140899991617,410.89140899991617,410.89140899991617,410.89140899991617,410.89140899991617,410.89140899991617,410.89140899991617,410.89140899991617,410.89140899991617,413.4002127998974,413.4002127998974,413.4002127998974,413.4002127998974,413.4002127998974,49,57,57,46,57,71,2.0,1.7109162001870573,415.12880929978564,416.9745264998637,,,,,,,,,161,M,23,2023-04-03_17h39.13.859,RL,2022.2.4,59.98206537951064,
1,44,0,44,0,,,,,,,,,,None,416.9745264998637,416.9745264998637,416.9745264998637,416.9745264998637,416.9745264998637,416.9745264998637,r,0.6890443000011146,417.692489199806,417.692489199806,417.692489199806,417.692489199806,417.692489199806,417.692489199806,417.98857889999636,417.98857889999636,418.8861217999365,418.8861217999365,418.8861217999365,418.8861217999365,418.8861217999365,418.8861217999365,418.8861217999365,418.8861217999365,418.8861217999365,418.8861217999365,418.8861217999365,418.8861217999365,418.8861217999365,418.8861217999365,418.8861217999365,418.8861217999365,418.8861217999365,421.39507929980755,421.39507929980755,421.39507929980755,421.39507929980755,421.39507929980755,44,62,45,42,44,63,2.0,1.3122016999404877,422.7249282998964,424.70351209980436,,,,,,,,,161,M,23,2023-04-03_17h39.13.859,RL,2022.2.4,59.98206537951064,
1,45,0,45,0,,,,,,,,,,None,424.70351209980436,424.70351209980436,424.70351209980436,424.70351209980436,424.70351209980436,424.70351209980436,r,0.6914720998611301,425.42008159984834,425.42008159984834,425.42008159984834,425.42008159984834,425.42008159984834,425.42008159984834,425.71729919989593,425.71729919989593,426.54872989980504,426.54872989980504,426.54872989980504,426.54872989980504,426.54872989980504,426.54872989980504,426.54872989980504,426.54872989980504,426.54872989980504,426.54872989980504,426.54872989980504,426.54872989980504,426.54872989980504,426.54872989980504,426.54872989980504,426.54872989980504,426.54872989980504,429.0574151999317,429.0574151999317,429.0574151999317,429.0574151999317,429.0574151999317,55,59,50,50,55,61,2.0,1.4121734998188913,430.48689459986053,432.3154715998098,,,,,,,,,161,M,23,2023-04-03_17h39.13.859,RL,2022.2.4,59.98206537951064,
1,46,0,46,0,,,,,,,,,,None,432.3154715998098,432.3154715998098,432.3154715998098,432.3154715998098,432.3154715998098,432.3154715998098,r,0.4667418000753969,432.8152822998818,432.8152822998818,432.8152822998818,432.8152822998818,432.8152822998818,432.8152822998818,433.11419429979287,433.11419429979287,434.9090769998729,434.9090769998729,434.9090769998729,434.9090769998729,434.9090769998729,434.9090769998729,434.9090769998729,434.9090769998729,434.9090769998729,434.9090769998729,434.9090769998729,434.9090769998729,434.9090769998729,434.9090769998729,434.9090769998729,434.9090769998729,434.9090769998729,437.41818909998983,437.41818909998983,437.41818909998983,437.41818909998983,437.41818909998983,50,58,46,50,50,62,5.0,1.0470865000970662,438.48175619984977,440.44391749985516,,,,,,,,,161,M,23,2023-04-03_17h39.13.859,RL,2022.2.4,59.98206537951064,
1,47,0,47,0,,,,,,,,,,None,440.44391749985516,440.44391749985516,440.44391749985516,440.44391749985516,440.44391749985516,440.44391749985516,f,0.95859370008111,441.4258466998581,441.4258466998581,441.4258466998581,441.4258466998581,441.4258466998581,441.4258466998581,441.72419219999574,441.72419219999574,442.5877177999355,442.5877177999355,442.5877177999355,442.5877177999355,442.5877177999355,442.5877177999355,442.5877177999355,442.5877177999355,442.5877177999355,442.5877177999355,442.5877177999355,442.5877177999355,442.5877177999355,442.5877177999355,442.5877177999355,442.5877177999355,442.5877177999355,445.0969871999696,445.0969871999696,445.0969871999696,445.0969871999696,445.0969871999696,50,60,37,50,60,63,3.0,1.7105926000513136,446.82565659983084,448.58820449979976,,,,,,,,,161,M,23,2023-04-03_17h39.13.859,RL,2022.2.4,59.98206537951064,
1,48,0,48,0,,,,,,,,,,None,448.58820449979976,448.58820449979976,448.58820449979976,448.58820449979976,448.58820449979976,448.58820449979976,f,0.3663768998812884,448.9875341998413,448.9875341998413,448.9875341998413,448.9875341998413,448.9875341998413,448.9875341998413,449.28651439980604,449.28651439980604,450.2170208999887,450.2170208999887,450.2170208999887,450.2170208999887,450.2170208999887,450.2170208999887,450.2170208999887,450.2170208999887,450.2170208999887,450.2170208999887,450.2170208999887,450.2170208999887,450.2170208999887,450.2170208999887,450.2170208999887,450.2170208999887,450.2170208999887,452.7262956998311,452.7262956998311,452.7262956998311,452.7262956998311,452.7262956998311,50,64,44,45,64,55,5.0,2.29199569998309,455.0369776999578,456.86572479992174,,,,,,,,,161,M,23,2023-04-03_17h39.13.859,RL,2022.2.4,59.98206537951064,
1,49,0,49,0,,,,,,,,,,None,456.86572479992174,456.86572479992174,456.86572479992174,456.86572479992174,456.86572479992174,456.86572479992174,f,1.163806299911812,458.0625297999941,458.0625297999941,458.0625297999941,458.0625297999941,458.0625297999941,458.0625297999941,458.36189809977077,458.36189809977077,460.28967059985735,460.28967059985735,460.28967059985735,460.28967059985735,460.28967059985735,460.28967059985735,460.28967059985735,460.28967059985735,460.28967059985735,460.28967059985735,460.28967059985735,460.28967059985735,460.28967059985735,460.28967059985735,460.28967059985735,460.28967059985735,460.28967059985735,462.79885849985294,462.79885849985294,462.79885849985294,462.79885849985294,462.79885849985294,50,63,28,50,63,69,3.0,1.7781311001162976,464.59381319978274,466.2399723997805,,,,,,,,,161,M,23,2023-04-03_17h39.13.859,RL,2022.2.4,59.98206537951064,
1,50,0,50,0,,,,,,,,,,None,466.2399723997805,466.2399723997805,466.2399723997805,466.2399723997805,466.2399723997805,466.2399723997805,None,,,,,,,,,,,,,,,,,,,,,,,,,,,,,,,,50,51,39,49,0,**,None,None,472.25604729983024,474.16804229980335,467.7563539999537,472.25604729983024,,,,,,,161,M,23,2023-04-03_17h39.13.859,RL,2022.2.4,59.98206537951064,
1,51,0,51,0,,,,,,,,,,None,474.16804229980335,474.16804229980335,474.16804229980335,474.16804229980335,474.16804229980335,474.16804229980335,j,0.43332660011947155,474.6340726998169,474.6340726998169,474.6340726998169,474.6340726998169,474.6340726998169,474.6340726998169,474.93327619996853,474.93327619996853,475.8804696998559,475.8804696998559,475.8974865998607,475.8974865998607,475.8974865998607,475.8974865998607,475.8974865998607,475.8974865998607,475.8974865998607,475.8974865998607,475.8974865998607,475.8974865998607,475.8974865998607,475.8974865998607,475.8974865998607,475.8974865998607,475.8974865998607,478.406281999778,478.406281999778,478.406281999778,478.406281999778,478.406281999778,56,60,35,60,60,60,4.0,0.9799643000587821,479.40341889997944,480.9332960997708,,,,,,,,,161,M,23,2023-04-03_17h39.13.859,RL,2022.2.4,59.98206537951064,
1,52,0,52,0,,,,,,,,,,None,480.9332960997708,480.9332960997708,480.9332960997708,480.9332960997708,480.9332960997708,480.9332960997708,j,0.45113519998267293,481.41573729994707,481.41573729994707,481.41573729994707,481.41573729994707,481.41573729994707,481.41573729994707,481.7147639999166,481.7147639999166,482.6287217999343,482.6287217999343,482.6287217999343,482.6287217999343,482.6287217999343,482.6287217999343,482.6287217999343,482.6287217999343,482.6287217999343,482.6287217999343,482.6287217999343,482.6287217999343,482.6287217999343,482.6287217999343,482.6287217999343,482.6287217999343,482.6287217999343,485.1375786999706,485.1375786999706,485.1375786999706,485.1375786999706,485.1375786999706,50,50,43,56,56,71,4.0,0.9803608998190612,486.13476189994253,487.9807788999751,,,,,,,,,161,M,23,2023-04-03_17h39.13.859,RL,2022.2.4,59.98206537951064,
1,53,0,53,0,,,,,,,,,,None,487.9807788999751,487.9807788999751,487.9807788999751,487.9807788999751,487.9807788999751,487.9807788999751,i,0.3458767000120133,488.3487402999308,488.3487402999308,488.3487402999308,488.3487402999308,488.3487402999308,488.3487402999308,488.64549489994533,488.64549489994533,490.4076380999759,490.4076380999759,490.4076380999759,490.4076380999759,490.4076380999759,490.4076380999759,490.4076380999759,490.4076380999759,490.4076380999759,490.4076380999759,490.4076380999759,490.4076380999759,490.4076380999759,490.4076380999759,490.4076380999759,490.4076380999759,490.4076380999759,492.9166599998716,492.9166599998716,492.9166599998716,492.9166599998716,492.9166599998716,54,54,37,48,37,66,3.0,1.977237300015986,494.91096459981054,496.6734120999463,,,,,,,,,161,M,23,2023-04-03_17h39.13.859,RL,2022.2.4,59.98206537951064,
1,54,0,54,0,,,,,,,,,,None,496.6734120999463,496.6734120999463,496.6734120999463,496.6734120999463,496.6734120999463,496.6734120999463,j,0.20880849985405803,496.90753699978814,496.90753699978814,496.90753699978814,496.90753699978814,496.90753699978814,496.90753699978814,497.2056257999502,497.2056257999502,499.1838100999594,499.1838100999594,499.1838100999594,499.1838100999594,499.1838100999594,499.1838100999594,499.1838100999594,499.1838100999594,499.1838100999594,499.1838100999594,499.1838100999594,499.1838100999594,499.1838100999594,499.1838100999594,499.1838100999594,499.1838100999594,499.1838100999594,501.6924056999851,501.6924056999851,501.6924056999851,501.6924056999851,501.6924056999851,49,57,35,66,66,68,2.0,1.5117023999337107,503.2216111999005,504.80169049999677,,,,,,,,,161,M,23,2023-04-03_17h39.13.859,RL,2022.2.4,59.98206537951064,
1,55,0,55,0,,,,,,,,,,None,504.80169049999677,504.80169049999677,504.80169049999677,504.80169049999677,504.80169049999677,504.80169049999677,j,0.661921099992469,505.48530099983327,505.48530099983327,505.48530099983327,505.48530099983327,505.48530099983327,505.48530099983327,505.782654899871,505.782654899871,507.4281029999256,507.4281029999256,507.4281029999256,507.4281029999256,507.4281029999256,507.4281029999256,507.4281029999256,507.4281029999256,507.4281029999256,507.4281029999256,507.4281029999256,507.4281029999256,507.4281029999256,507.4281029999256,507.4281029999256,507.4281029999256,507.4281029999256,509.93689829995856,509.93689829995856,509.93689829995856,509.93689829995856,509.93689829995856,52,60,37,54,54,70,3.0,1.2781833000481129,511.23328839987516,512.8795626999345,,,,,,,,,161,M,23,2023-04-03_17h39.13.859,RL,2022.2.4,59.98206537951064,
1,56,0,56,0,,,,,,,,,,None,512.8795626999345,512.8795626999345,512.8795626999345,512.8795626999345,512.8795626999345,512.8795626999345,f,0.37001479999162257,513.2794863998424,513.2794863998424,513.2794863998424,513.2794863998424,513.2794863998424,513.2794863998424,513.5782535998151,513.5782535998151,514.8907710998319,514.8907710998319,514.8907710998319,514.8907710998319,514.8907710998319,514.8907710998319,514.8907710998319,514.8907710998319,514.8907710998319,514.8907710998319,514.8907710998319,514.8907710998319,514.8907710998319,514.8907710998319,514.8907710998319,514.8907710998319,514.8907710998319,517.3997654998675,517.3997654998675,517.3997654998675,517.3997654998675,517.3997654998675,50,61,38,57,61,66,3.0,2.525124200154096,519.9427880998701,521.8052539997734,,,,,,,,,161,M,23,2023-04-03_17h39.13.859,RL,2022.2.4,59.98206537951064,
1,57,0,57,0,,,,,,,,,,None,521.8052539997734,521.8052539997734,521.8052539997734,521.8052539997734,521.8052539997734,521.8052539997734,j,1.0438318999949843,522.8718119999394,522.8718119999394,522.8718119999394,522.8718119999394,522.8718119999394,522.8718119999394,523.1682840997819,523.1682840997819,524.3647255999967,524.3647255999967,524.3647255999967,524.3647255999967,524.3647255999967,524.3647255999967,524.3647255999967,524.3647255999967,524.3647255999967,524.3647255999967,524.3647255999967,524.3647255999967,524.3647255999967,524.3647255999967,524.3647255999967,524.3647255999967,524.3647255999967,526.8738551998977,526.8738551998977,526.8738551998977,526.8738551998977,526.8738551998977,46,52,36,65,65,71,3.0,1.361722300061956,528.2532026998233,530.1823206997942,,,,,,,,,161,M,23,2023-04-03_17h39.13.859,RL,2022.2.4,59.98206537951064,
1,58,0,58,0,,,,,,,,,,None,530.1823206997942,530.1823206997942,530.1823206997942,530.1823206997942,530.1823206997942,530.1823206997942,f,1.2574412000831217,531.4651307999156,531.4651307999156,531.4651307999156,531.4651307999156,531.4651307999156,531.4651307999156,531.7617137997877,531.7617137997877,532.9080573997926,532.9080573997926,532.9080573997926,532.9080573997926,532.9080573997926,532.9080573997926,532.9080573997926,532.9080573997926,532.9080573997926,532.9080573997926,532.9080573997926,532.9080573997926,532.9080573997926,532.9080573997926,532.9080573997926,532.9080573997926,532.9080573997926,535.4175002998672,535.4175002998672,535.4175002998672,535.4175002998672,535.4175002998672,52,49,39,61,49,44,3.0,1.1788737000897527,536.6140532998834,538.3930453998037,,,,,,,,,161,M,23,2023-04-03_17h39.13.859,RL,2022.2.4,59.98206537951064,
1,59,0,59,0,,,,,,,,,,None,538.3930453998037,538.3930453998037,538.3930453998037,538.3930453998037,538.3930453998037,538.3930453998037,j,0.27847949997521937,538.6940168999135,538.6940168999135,538.6940168999135,538.6940168999135,538.6940168999135,538.6940168999135,538.991838599788,538.991838599788,540.0720477998257,540.0720477998257,540.0887381997891,540.0887381997891,540.0887381997891,540.0887381997891,540.0887381997891,540.0887381997891,540.0887381997891,540.0887381997891,540.0887381997891,540.0887381997891,540.0887381997891,540.0887381997891,540.0887381997891,540.0887381997891,540.0887381997891,542.5973900998943,542.5973900998943,542.5973900998943,542.5973900998943,542.5973900998943,55,44,43,69,69,65,5.0,1.544761700090021,544.1602360999677,545.7396048998926,,,,,,,,,161,M,23,2023-04-03_17h39.13.859,RL,2022.2.4,59.98206537951064,
1,60,0,60,0,,,,,,,,,,None,545.7396048998926,545.7396048998926,545.7396048998926,545.7396048998926,545.7396048998926,545.7396048998926,j,0.2551204999908805,546.0233232998289,546.0233232998289,546.0233232998289,546.0233232998289,546.0233232998289,546.0233232998289,546.3218929998111,546.3218929998111,547.4682857999578,547.4682857999578,547.4682857999578,547.4682857999578,547.4682857999578,547.4682857999578,547.4682857999578,547.4682857999578,547.4682857999578,547.4682857999578,547.4682857999578,547.4682857999578,547.4682857999578,547.4682857999578,547.4682857999578,547.4682857999578,547.4682857999578,549.9772342999931,549.9772342999931,549.9772342999931,549.9772342999931,549.9772342999931,47,47,38,70,70,60,5.0,1.4621307000052184,551.4567417998333,553.0032992998604,,,,,,,,,161,M,23,2023-04-03_17h39.13.859,RL,2022.2.4,59.98206537951064,
1,61,0,61,0,,,,,,,,,,None,553.0032992998604,553.0032992998604,553.0032992998604,553.0032992998604,553.0032992998604,553.0032992998604,f,0.46772089996375144,553.5060341998469,553.5060341998469,553.5060341998469,553.5060341998469,553.5060341998469,553.5060341998469,553.8012618999928,553.8012618999928,554.6987987998873,554.6987987998873,554.6987987998873,554.6987987998873,554.6987987998873,554.6987987998873,554.6987987998873,554.6987987998873,554.6987987998873,554.6987987998873,554.6987987998873,554.6987987998873,554.6987987998873,554.6987987998873,554.6987987998873,554.6987987998873,554.6987987998873,557.2078535999171,557.2078535999171,557.2078535999171,557.2078535999171,557.2078535999171,47,55,37,74,55,80,2.0,1.1126049000304192,558.3383159998339,560.2336850999855,,,,,,,,,161,M,23,2023-04-03_17h39.13.859,RL,2022.2.4,59.98206537951064,
1,62,0,62,0,,,,,,,,,,None,560.2336850999855,560.2336850999855,560.2336850999855,560.2336850999855,560.2336850999855,560.2336850999855,j,0.499597700079903,560.7672495997977,560.7672495997977,560.7672495997977,560.7672495997977,560.7672495997977,560.7672495997977,561.0649954997934,561.0649954997934,562.7103147997987,562.7103147997987,562.7103147997987,562.7103147997987,562.7103147997987,562.7103147997987,562.7103147997987,562.7103147997987,562.7103147997987,562.7103147997987,562.7103147997987,562.7103147997987,562.7103147997987,562.7103147997987,562.7103147997987,562.7103147997987,562.7103147997987,565.2194638999645,565.2194638999645,565.2194638999645,565.2194638999645,565.2194638999645,51,56,38,70,70,76,2.0,0.7802021999377757,566.0173042998649,567.7297618999146,,,,,,,,,161,M,23,2023-04-03_17h39.13.859,RL,2022.2.4,59.98206537951064,
1,63,0,63,0,,,,,,,,,,None,567.7297618999146,567.7297618999146,567.7297618999146,567.7297618999146,567.7297618999146,567.7297618999146,f,0.8965924999210984,568.6461014999077,568.6461014999077,568.6461014999077,568.6461014999077,568.6461014999077,568.6461014999077,568.9434827999212,568.9434827999212,570.5717583999503,570.5717583999503,570.5887401998043,570.5887401998043,570.5887401998043,570.5887401998043,570.5887401998043,570.5887401998043,570.5887401998043,570.5887401998043,570.5887401998043,570.5887401998043,570.5887401998043,570.5887401998043,570.5887401998043,570.5887401998043,570.5887401998043,573.0976451998577,573.0976451998577,573.0976451998577,573.0976451998577,573.0976451998577,58,54,24,73,54,73,2.0,0.7635412998497486,573.8785933998879,575.8406996999402,,,,,,,,,161,M,23,2023-04-03_17h39.13.859,RL,2022.2.4,59.98206537951064,
1,64,0,64,0,,,,,,,,,,None,575.8406996999402,575.8406996999402,575.8406996999402,575.8406996999402,575.8406996999402,575.8406996999402,f,0.31103199999779463,576.1762870999519,576.1762870999519,576.1762870999519,576.1762870999519,576.1762870999519,576.1762870999519,576.4729232999962,576.4729232999962,577.8850751998834,577.8850751998834,577.8850751998834,577.8850751998834,577.8850751998834,577.8850751998834,577.8850751998834,577.8850751998834,577.8850751998834,577.8850751998834,577.8850751998834,577.8850751998834,577.8850751998834,577.8850751998834,577.8850751998834,577.8850751998834,577.8850751998834,580.3948926997837,580.3948926997837,580.3948926997837,580.3948926997837,580.3948926997837,52,49,29,66,49,67,3.0,1.6775893000885844,582.08950799983,583.7859094999731,,,,,,,,,161,M,23,2023-04-03_17h39.13.859,RL,2022.2.4,59.98206537951064,
1,65,0,65,0,,,,,,,,,,None,583.7859094999731,583.7859094999731,583.7859094999731,583.7859094999731,583.7859094999731,583.7859094999731,j,0.36644200002774596,584.1851673999336,584.1851673999336,584.1851673999336,584.1851673999336,584.1851673999336,584.1851673999336,584.4841523999348,584.4841523999348,585.897189399926,585.897189399926,585.897189399926,585.897189399926,585.897189399926,585.897189399926,585.897189399926,585.897189399926,585.897189399926,585.897189399926,585.897189399926,585.897189399926,585.897189399926,585.897189399926,585.897189399926,585.897189399926,585.897189399926,588.4057192998007,588.4057192998007,588.4057192998007,588.4057192998007,588.4057192998007,45,54,20,75,75,58,5.0,1.012301600072533,589.4361519999802,590.9664366999641,,,,,,,,,161,M,23,2023-04-03_17h39.13.859,RL,2022.2.4,59.98206537951064,
1,66,0,66,0,,,,,,,,,,None,590.9664366999641,590.9664366999641,590.9664366999641,590.9664366999641,590.9664366999641,590.9664366999641,j,0.638984699966386,591.6340285998303,591.6340285998303,591.6340285998303,591.6340285998303,591.6340285998303,591.6340285998303,591.9306926999707,591.9306926999707,593.4260238998104,593.4260238998104,593.4429703999776,593.4429703999776,593.4429703999776,593.4429703999776,593.4429703999776,593.4429703999776,593.4429703999776,593.4429703999776,593.4429703999776,593.4429703999776,593.4429703999776,593.4429703999776,593.4429703999776,593.4429703999776,593.4429703999776,595.9521525998134,595.9521525998134,595.9521525998134,595.9521525998134,595.9521525998134,46,50,24,71,71,56,5.0,0.6799656001385301,596.6501703998074,598.3461891999468,,,,,,,,,161,M,23,2023-04-03_17h39.13.859,RL,2022.2.4,59.98206537951064,
1,67,0,67,0,,,,,,,,,,None,598.3461891999468,598.3461891999468,598.3461891999468,598.3461891999468,598.3461891999468,598.3461891999468,j,0.8751201999839395,599.2459878998343,599.2459878998343,599.2459878998343,599.2459878998343,599.2459878998343,599.2459878998343,599.5429281999823,599.5429281999823,600.373974399874,600.373974399874,600.373974399874,600.373974399874,600.373974399874,600.373974399874,600.373974399874,600.373974399874,600.373974399874,600.373974399874,600.373974399874,600.373974399874,600.373974399874,600.373974399874,600.373974399874,600.373974399874,600.373974399874,602.88296359987,602.88296359987,602.88296359987,602.88296359987,602.88296359987,47,61,11,81,81,87,3.0,1.5610913999844342,604.4621391999535,606.0087039999198,,,,,,,,,161,M,23,2023-04-03_17h39.13.859,RL,2022.2.4,59.98206537951064,
1,68,0,68,0,,,,,,,,,,None,606.0087039999198,606.0087039999198,606.0087039999198,606.0087039999198,606.0087039999198,606.0087039999198,j,0.5599044000264257,606.5923769997898,606.5923769997898,606.5923769997898,606.5923769997898,606.5923769997898,606.5923769997898,606.889869599836,606.889869599836,608.8676825999282,608.8676825999282,608.8676825999282,608.8676825999282,608.8676825999282,608.8676825999282,608.8676825999282,608.8676825999282,608.8676825999282,608.8676825999282,608.8676825999282,608.8676825999282,608.8676825999282,608.8676825999282,608.8676825999282,608.8676825999282,608.8676825999282,611.3766261998098,611.3766261998098,611.3766261998098,611.3766261998098,611.3766261998098,43,51,21,69,69,83,3.0,1.660108800046146,613.0556303998455,614.9344057999551,,,,,,,,,161,M,23,2023-04-03_17h39.13.859,RL,2022.2.4,59.98206537951064,
1,69,0,69,0,,,,,,,,,,None,614.9344057999551,614.9344057999551,614.9344057999551,614.9344057999551,614.9344057999551,614.9344057999551,r,0.31323940004222095,615.2690918999724,615.2690918999724,615.2690918999724,615.2690918999724,615.2690918999724,615.2690918999724,615.566181599861,615.566181599861,617.4277477997821,617.4277477997821,617.4277477997821,617.4277477997821,617.4277477997821,617.4277477997821,617.4277477997821,617.4277477997821,617.4277477997821,617.4277477997821,617.4277477997821,617.4277477997821,617.4277477997821,617.4277477997821,617.4277477997821,617.4277477997821,617.4277477997821,619.9363559999038,619.9363559999038,619.9363559999038,619.9363559999038,619.9363559999038,43,44,23,76,43,78,3.0,0.4310282999649644,620.3850256998558,621.931894299807,,,,,,,,,161,M,23,2023-04-03_17h39.13.859,RL,2022.2.4,59.98206537951064,
1,70,0,70,0,,,,,,,,,,None,621.931894299807,621.931894299807,621.931894299807,621.931894299807,621.931894299807,621.931894299807,f,0.9269831001292914,622.8818748998456,622.8818748998456,622.8818748998456,622.8818748998456,622.8818748998456,622.8818748998456,623.1784324999899,623.1784324999899,624.209091299912,624.209091299912,624.209091299912,624.209091299912,624.209091299912,624.209091299912,624.209091299912,624.209091299912,624.209091299912,624.209091299912,624.209091299912,624.209091299912,624.209091299912,624.209091299912,624.209091299912,624.209091299912,624.209091299912,626.7176580999512,626.7176580999512,626.7176580999512,626.7176580999512,626.7176580999512,46,51,31,72,51,87,1.0,0.7799494999926537,627.5163411998656,629.3283497998491,,,,,,,,,161,M,23,2023-04-03_17h39.13.859,RL,2022.2.4,59.98206537951064,
1,71,0,71,0,,,,,,,,,,None,629.3283497998491,629.3283497998491,629.3283497998491,629.3283497998491,629.3283497998491,629.3283497998491,f,0.646732599940151,629.9965417999774,629.9965417999774,629.9965417999774,629.9965417999774,629.9965417999774,629.9965417999774,630.2922823999543,630.2922823999543,631.1900519998744,631.1900519998744,631.1900519998744,631.1900519998744,631.1900519998744,631.1900519998744,631.1900519998744,631.1900519998744,631.1900519998744,631.1900519998744,631.1900519998744,631.1900519998744,631.1900519998744,631.1900519998744,631.1900519998744,631.1900519998744,631.1900519998744,633.6991724998225,633.6991724998225,633.6991724998225,633.6991724998225,633.6991724998225,46,53,29,78,53,84,1.0,0.6801029001362622,634.3972585999873,636.15968469996,,,,,,,,,161,M,23,2023-04-03_17h39.13.859,RL,2022.2.4,59.98206537951064,
1,72,0,72,0,,,,,,,,,,None,636.15968469996,636.15968469996,636.15968469996,636.15968469996,636.15968469996,636.15968469996,j,0.9668904999271035,637.1595892999321,637.1595892999321,637.1595892999321,637.1595892999321,637.1595892999321,637.1595892999321,637.4564879999962,637.4564879999962,639.3841831998434,639.3841831998434,639.4008744999301,639.4008744999301,639.4008744999301,639.4008744999301,639.4008744999301,639.4008744999301,639.4008744999301,639.4008744999301,639.4008744999301,639.4008744999301,639.4008744999301,639.4008744999301,639.4008744999301,639.4008744999301,639.4008744999301,641.9096675999463,641.9096675999463,641.9096675999463,641.9096675999463,641.9096675999463,45,53,26,72,72,67,4.0,1.0953083999920636,643.0234705999028,644.9358076998033,,,,,,,,,161,M,23,2023-04-03_17h39.13.859,RL,2022.2.4,59.98206537951064,
1,73,0,73,0,,,,,,,,,,None,644.9358076998033,644.9358076998033,644.9358076998033,644.9358076998033,644.9358076998033,644.9358076998033,j,0.4663482999894768,645.4346235999838,645.4346235999838,645.4346235999838,645.4346235999838,645.4346235999838,645.4346235999838,645.7338499999605,645.7338499999605,647.3124943999574,647.3124943999574,647.3124943999574,647.3124943999574,647.3124943999574,647.3124943999574,647.3124943999574,647.3124943999574,647.3124943999574,647.3124943999574,647.3124943999574,647.3124943999574,647.3124943999574,647.3124943999574,647.3124943999574,647.3124943999574,647.3124943999574,649.8217100999318,649.8217100999318,649.8217100999318,649.8217100999318,649.8217100999318,50,50,31,66,66,76,3.0,1.5932990999426693,651.4341538997833,653.3461852998007,,,,,,,,,161,M,23,2023-04-03_17h39.13.859,RL,2022.2.4,59.98206537951064,
1,74,0,74,0,,,,,,,,,,None,653.3461852998007,653.3461852998007,653.3461852998007,653.3461852998007,653.3461852998007,653.3461852998007,i,1.2207434999290854,654.5945183997974,654.5945183997974,654.5945183997974,654.5945183997974,654.5945183997974,654.5945183997974,654.8923232997768,654.8923232997768,656.2716253998224,656.2716253998224,656.2716253998224,656.2716253998224,656.2716253998224,656.2716253998224,656.2716253998224,656.2716253998224,656.2716253998224,656.2716253998224,656.2716253998224,656.2716253998224,656.2716253998224,656.2716253998224,656.2716253998224,656.2716253998224,656.2716253998224,658.7808691998944,658.7808691998944,658.7808691998944,658.7808691998944,658.7808691998944,42,38,26,66,26,66,1.0,0.7803233000449836,659.5786328997929,661.3406924998853,,,,,,,,,161,M,23,2023-04-03_17h39.13.859,RL,2022.2.4,59.98206537951064,
1,75,0,75,0,,,,,,,,,,q,780.182850799989,780.182850799989,780.182850799989,780.182850799989,780.182850799989,780.182850799989,f,1.0140746999531984,781.2173867998645,781.2173867998645,781.2173867998645,781.2173867998645,781.2173867998645,781.2173867998645,781.5133706999477,781.5133706999477,783.058917599963,783.058917599963,783.058917599963,783.058917599963,783.058917599963,783.058917599963,783.058917599963,783.058917599963,783.058917599963,783.058917599963,783.058917599963,783.058917599963,783.058917599963,783.058917599963,783.058917599963,783.058917599963,783.058917599963,785.568026999943,785.568026999943,785.568026999943,785.568026999943,785.568026999943,46,47,28,68,47,75,1.0,1.3957428000867367,786.980932999868,788.5772891999222,,,661.3406924998853,661.3406924998853,118.81801609997638,,,,161,M,23,2023-04-03_17h39.13.859,RL,2022.2.4,59.98206537951064,
1,76,0,76,0,,,,,,,,,,None,788.5772891999222,788.5772891999222,788.5772891999222,788.5772891999222,788.5772891999222,788.5772891999222,j,0.45591849996708333,789.0601168998983,789.0601168998983,789.0601168998983,789.0601168998983,789.0601168998983,789.0601168998983,789.3585007998627,789.3585007998627,791.2531178998761,791.2531178998761,791.2697929998394,791.2697929998394,791.2697929998394,791.2697929998394,791.2697929998394,791.2697929998394,791.2697929998394,791.2697929998394,791.2697929998394,791.2697929998394,791.2697929998394,791.2697929998394,791.2697929998394,791.2697929998394,791.2697929998394,793.779072499834,793.779072499834,793.779072499834,793.779072499834,793.779072499834,53,39,28,71,71,75,1.0,0.9798208000138402,794.7763256998733,796.4722629999742,,,,,,,,,161,M,23,2023-04-03_17h39.13.859,RL,2022.2.4,59.98206537951064,
1,77,0,77,0,,,,,,,,,,None,796.4722629999742,796.4722629999742,796.4722629999742,796.4722629999742,796.4722629999742,796.4722629999742,i,0.6766401999630034,797.1730390999,797.1730390999,797.1730390999,797.1730390999,797.1730390999,797.1730390999,797.4698967000004,797.4698967000004,798.899151199963,798.899151199963,798.899151199963,798.899151199963,798.899151199963,798.899151199963,798.899151199963,798.899151199963,798.899151199963,798.899151199963,798.899151199963,798.899151199963,798.899151199963,798.899151199963,798.899151199963,798.899151199963,798.899151199963,801.4079256998375,801.4079256998375,801.4079256998375,801.4079256998375,801.4079256998375,50,43,23,64,23,64,1.0,0.6148284999653697,802.039979299996,803.5695279999636,,,,,,,,,161,M,23,2023-04-03_17h39.13.859,RL,2022.2.4,59.98206537951064,
1,78,0,78,0,,,,,,,,,,None,803.5695279999636,803.5695279999636,803.5695279999636,803.5695279999636,803.5695279999636,803.5695279999636,j,0.520714599872008,804.1203622999601,804.1203622999601,804.1203622999601,804.1203622999601,804.1203622999601,804.1203622999601,804.4174799998291,804.4174799998291,806.1625106998254,806.1625106998254,806.1625106998254,806.1625106998254,806.1625106998254,806.1625106998254,806.1625106998254,806.1625106998254,806.1625106998254,806.1625106998254,806.1625106998254,806.1625106998254,806.1625106998254,806.1625106998254,806.1625106998254,806.1625106998254,806.1625106998254,808.6712495998945,808.6712495998945,808.6712495998945,808.6712495998945,808.6712495998945,52,48,22,71,71,63,2.0,1.5273033000994474,810.2170745998155,812.0964012998156,,,,,,,,,161,M,23,2023-04-03_17h39.13.859,RL,2022.2.4,59.98206537951064,
1,79,0,79,0,,,,,,,,,,None,812.0964012998156,812.0964012998156,812.0964012998156,812.0964012998156,812.0964012998156,812.0964012998156,j,0.6835141000337899,812.813090799842,812.813090799842,812.813090799842,812.813090799842,812.813090799842,812.813090799842,813.1103185999673,813.1103185999673,815.0218586998526,815.0218586998526,815.0218586998526,815.0218586998526,815.0218586998526,815.0218586998526,815.0218586998526,815.0218586998526,815.0218586998526,815.0218586998526,815.0218586998526,815.0218586998526,815.0218586998526,815.0218586998526,815.0218586998526,815.0218586998526,815.0218586998526,817.5307731998619,817.5307731998619,817.5307731998619,817.5307731998619,817.5307731998619,48,44,37,69,69,71,2.0,0.6976729999296367,818.2454785997979,820.1244287998416,,,,,,,,,161,M,23,2023-04-03_17h39.13.859,RL,2022.2.4,59.98206537951064,
1,80,0,80,0,,,,,,,,,,None,820.1244287998416,820.1244287998416,820.1244287998416,820.1244287998416,820.1244287998416,820.1244287998416,r,0.9708879999816418,821.1238576998003,821.1238576998003,821.1238576998003,821.1238576998003,821.1238576998003,821.1238576998003,821.4211228999775,821.4211228999775,822.6008588999975,822.6008588999975,822.6008588999975,822.6008588999975,822.6008588999975,822.6008588999975,822.6008588999975,822.6008588999975,822.6008588999975,822.6008588999975,822.6008588999975,822.6008588999975,822.6008588999975,822.6008588999975,822.6008588999975,822.6008588999975,822.6008588999975,825.1103541997727,825.1103541997727,825.1103541997727,825.1103541997727,825.1103541997727,50,50,30,75,50,70,3.0,0.7303235998842865,825.8576402999461,827.6039130999707,,,,,,,,,161,M,23,2023-04-03_17h39.13.859,RL,2022.2.4,59.98206537951064,
1,81,0,81,0,,,,,,,,,,None,827.6039130999707,827.6039130999707,827.6039130999707,827.6039130999707,827.6039130999707,827.6039130999707,i,0.42895940016023815,828.0552905998193,828.0552905998193,828.0552905998193,828.0552905998193,828.0552905998193,828.0552905998193,828.3520881999284,828.3520881999284,830.2969784999732,830.2969784999732,830.2969784999732,830.2969784999732,830.2969784999732,830.2969784999732,830.2969784999732,830.2969784999732,830.2969784999732,830.2969784999732,830.2969784999732,830.2969784999732,830.2969784999732,830.2969784999732,830.2969784999732,830.2969784999732,830.2969784999732,832.8056632999796,832.8056632999796,832.8056632999796,832.8056632999796,832.8056632999796,55,40,31,70,31,72,2.0,1.0959679000079632,833.919475399889,835.6818933999166,,,,,,,,,161,M,23,2023-04-03_17h39.13.859,RL,2022.2.4,59.98206537951064,
1,82,0,82,0,,,,,,,,,,None,835.6818933999166,835.6818933999166,835.6818933999166,835.6818933999166,835.6818933999166,835.6818933999166,f,1.0908902001101524,836.7980062998831,836.7980062998831,836.7980062998831,836.7980062998831,836.7980062998831,836.7980062998831,837.0947232998442,837.0947232998442,838.6074141999707,838.6074141999707,838.6074141999707,838.6074141999707,838.6074141999707,838.6074141999707,838.6074141999707,838.6074141999707,838.6074141999707,838.6074141999707,838.6074141999707,838.6074141999707,838.6074141999707,838.6074141999707,838.6074141999707,838.6074141999707,838.6074141999707,841.1161505999044,841.1161505999044,841.1161505999044,841.1161505999044,841.1161505999044,48,44,38,65,44,62,1.0,1.993829800048843,843.127557199914,845.089671799913,,,,,,,,,161,M,23,2023-04-03_17h39.13.859,RL,2022.2.4,59.98206537951064,
1,83,0,83,0,,,,,,,,,,None,845.089671799913,845.089671799913,845.089671799913,845.089671799913,845.089671799913,845.089671799913,j,0.49686169996857643,845.6077313998248,845.6077313998248,845.6077313998248,845.6077313998248,845.6077313998248,845.6077313998248,845.9042217999231,845.9042217999231,847.6821162998676,847.6821162998676,847.6821162998676,847.6821162998676,847.6821162998676,847.6821162998676,847.6821162998676,847.6821162998676,847.6821162998676,847.6821162998676,847.6821162998676,847.6821162998676,847.6821162998676,847.6821162998676,847.6821162998676,847.6821162998676,847.6821162998676,850.1915749998298,850.1915749998298,850.1915749998298,850.1915749998298,850.1915749998298,44,47,27,67,67,65,3.0,1.9603868001140654,852.1695289998315,853.9154758998193,,,,,,,,,161,M,23,2023-04-03_17h39.13.859,RL,2022.2.4,59.98206537951064,
1,84,0,84,0,,,,,,,,,,None,853.9154758998193,853.9154758998193,853.9154758998193,853.9154758998193,853.9154758998193,853.9154758998193,j,0.6496246000751853,854.5985811999999,854.5985811999999,854.5985811999999,854.5985811999999,854.5985811999999,854.5985811999999,854.8962180998642,854.8962180998642,856.6750448998064,856.6750448998064,856.6750448998064,856.6750448998064,856.6750448998064,856.6750448998064,856.6750448998064,856.6750448998064,856.6750448998064,856.6750448998064,856.6750448998064,856.6750448998064,856.6750448998064,856.6750448998064,856.6750448998064,856.6750448998064,856.6750448998064,859.1839989,859.1839989,859.1839989,859.1839989,859.1839989,45,58,39,64,64,70,3.0,1.4452522001229227,860.6466281998437,862.5086727999151,,,,,,,,,161,M,23,2023-04-03_17h39.13.859,RL,2022.2.4,59.98206537951064,
1,85,0,85,0,,,,,,,,,,None,862.5086727999151,862.5086727999151,862.5086727999151,862.5086727999151,862.5086727999151,862.5086727999151,j,0.271936799865216,862.8083992998581,862.8083992998581,862.8083992998581,862.8083992998581,862.8083992998581,862.8083992998581,863.1070530998986,863.1070530998986,864.7029255998787,864.7029255998787,864.7029255998787,864.7029255998787,864.7029255998787,864.7029255998787,864.7029255998787,864.7029255998787,864.7029255998787,864.7029255998787,864.7029255998787,864.7029255998787,864.7029255998787,864.7029255998787,864.7029255998787,864.7029255998787,864.7029255998787,867.2116769999266,867.2116769999266,867.2116769999266,867.2116769999266,867.2116769999266,50,45,36,63,63,68,4.0,1.7770384000614285,869.0068052997813,870.7362069999799,,,,,,,,,161,M,23,2023-04-03_17h39.13.859,RL,2022.2.4,59.98206537951064,
1,86,0,86,0,,,,,,,,,,None,870.7362069999799,870.7362069999799,870.7362069999799,870.7362069999799,870.7362069999799,870.7362069999799,j,0.5353200999088585,871.3039439998101,871.3039439998101,871.3039439998101,871.3039439998101,871.3039439998101,871.3039439998101,871.6004038997926,871.6004038997926,872.6313693998381,872.6313693998381,872.6313693998381,872.6313693998381,872.6313693998381,872.6313693998381,872.6313693998381,872.6313693998381,872.6313693998381,872.6313693998381,872.6313693998381,872.6313693998381,872.6313693998381,872.6313693998381,872.6313693998381,872.6313693998381,872.6313693998381,875.1401086999103,875.1401086999103,875.1401086999103,875.1401086999103,875.1401086999103,51,44,35,61,61,52,5.0,0.9460370999295264,876.1043622998986,877.7004954000004,,,,,,,,,161,M,23,2023-04-03_17h39.13.859,RL,2022.2.4,59.98206537951064,
1,87,0,87,0,,,,,,,,,,None,877.7004954000004,877.7004954000004,877.7004954000004,877.7004954000004,877.7004954000004,877.7004954000004,j,0.5386136001907289,878.26866349997,878.26866349997,878.26866349997,878.26866349997,878.26866349997,878.26866349997,878.5650799998548,878.5650799998548,880.3598766999785,880.3598766999785,880.3598766999785,880.3598766999785,880.3598766999785,880.3598766999785,880.3598766999785,880.3598766999785,880.3598766999785,880.3598766999785,880.3598766999785,880.3598766999785,880.3598766999785,880.3598766999785,880.3598766999785,880.3598766999785,880.3598766999785,882.8690718999133,882.8690718999133,882.8690718999133,882.8690718999133,882.8690718999133,59,48,42,65,65,70,3.0,1.2289615999907255,884.1156105999835,885.629087299807,,,,,,,,,161,M,23,2023-04-03_17h39.13.859,RL,2022.2.4,59.98206537951064,
1,88,0,88,0,,,,,,,,,,None,885.629087299807,885.629087299807,885.629087299807,885.629087299807,885.629087299807,885.629087299807,j,0.894198700087145,886.5458204997703,886.5458204997703,886.5458204997703,886.5458204997703,886.5458204997703,886.5458204997703,886.842773999786,886.842773999786,887.7894999999553,887.7894999999553,887.7894999999553,887.7894999999553,887.7894999999553,887.7894999999553,887.7894999999553,887.7894999999553,887.7894999999553,887.7894999999553,887.7894999999553,887.7894999999553,887.7894999999553,887.7894999999553,887.7894999999553,887.7894999999553,887.7894999999553,890.2989557997789,890.2989557997789,890.2989557997789,890.2989557997789,890.2989557997789,48,53,33,76,76,53,5.0,0.9296230000909418,891.2464027998503,893.0249631998595,,,,,,,,,161,M,23,2023-04-03_17h39.13.859,RL,2022.2.4,59.98206537951064,
1,89,0,89,0,,,,,,,,,,None,893.0249631998595,893.0249631998595,893.0249631998595,893.0249631998595,893.0249631998595,893.0249631998595,j,0.2705763999838382,893.3271975999232,893.3271975999232,893.3271975999232,893.3271975999232,893.3271975999232,893.3271975999232,893.6237936997786,893.6237936997786,895.2862006998621,895.2862006998621,895.2862006998621,895.2862006998621,895.2862006998621,895.2862006998621,895.2862006998621,895.2862006998621,895.2862006998621,895.2862006998621,895.2862006998621,895.2862006998621,895.2862006998621,895.2862006998621,895.2862006998621,895.2862006998621,895.2862006998621,897.7946531998459,897.7946531998459,897.7946531998459,897.7946531998459,897.7946531998459,55,57,30,66,66,83,2.0,1.1471249999012798,898.9587688997854,900.8540674999822,,,,,,,,,161,M,23,2023-04-03_17h39.13.859,RL,2022.2.4,59.98206537951064,
1,90,0,90,0,,,,,,,,,,None,900.8540674999822,900.8540674999822,900.8540674999822,900.8540674999822,900.8540674999822,900.8540674999822,f,0.4530079001560807,901.338553799782,901.338553799782,901.338553799782,901.338553799782,901.338553799782,901.338553799782,901.635920799803,901.635920799803,903.5968825998716,903.5968825998716,903.5968825998716,903.5968825998716,903.5968825998716,903.5968825998716,903.5968825998716,903.5968825998716,903.5968825998716,903.5968825998716,903.5968825998716,903.5968825998716,903.5968825998716,903.5968825998716,903.5968825998716,903.5968825998716,903.5968825998716,906.1058435998857,906.1058435998857,906.1058435998857,906.1058435998857,906.1058435998857,46,49,34,71,49,71,2.0,1.0627335000317544,907.1860465998761,908.7658216999844,,,,,,,,,161,M,23,2023-04-03_17h39.13.859,RL,2022.2.4,59.98206537951064,
1,91,0,91,0,,,,,,,,,,None,908.7658216999844,908.7658216999844,908.7658216999844,908.7658216999844,908.7658216999844,908.7658216999844,r,0.5113750000018626,909.3002662998624,909.3002662998624,909.3002662998624,909.3002662998624,909.3002662998624,909.3002662998624,909.5969153998885,909.5969153998885,910.4111392998602,910.4111392998602,910.4111392998602,910.4111392998602,910.4111392998602,910.4111392998602,910.4111392998602,910.4111392998602,910.4111392998602,910.4111392998602,910.4111392998602,910.4111392998602,910.4111392998602,910.4111392998602,910.4111392998602,910.4111392998602,910.4111392998602,912.9206104998011,912.9206104998011,912.9206104998011,912.9206104998011,912.9206104998011,40,45,33,66,40,52,2.0,1.977320799836889,914.9150506998412,916.7277959999628,,,,,,,,,161,M,23,2023-04-03_17h39.13.859,RL,2022.2.4,59.98206537951064,
1,92,0,92,0,,,,,,,,,,None,916.7277959999628,916.7277959999628,916.7277959999628,916.7277959999628,916.7277959999628,916.7277959999628,j,0.6705054000485688,917.4256386999041,917.4256386999041,917.4256386999041,917.4256386999041,917.4256386999041,917.4256386999041,917.7246906999499,917.7246906999499,919.2539718998596,919.2539718998596,919.2539718998596,919.2539718998596,919.2539718998596,919.2539718998596,919.2539718998596,919.2539718998596,919.2539718998596,919.2539718998596,919.2539718998596,919.2539718998596,919.2539718998596,919.2539718998596,919.2539718998596,919.2539718998596,919.2539718998596,921.7627395999152,921.7627395999152,921.7627395999152,921.7627395999152,921.7627395999152,43,42,22,73,73,64,5.0,1.411866500042379,923.1926589999348,924.8550683998037,,,,,,,,,161,M,23,2023-04-03_17h39.13.859,RL,2022.2.4,59.98206537951064,
1,93,0,93,0,,,,,,,,,,None,924.8550683998037,924.8550683998037,924.8550683998037,924.8550683998037,924.8550683998037,924.8550683998037,j,0.2437521000392735,925.1240333998576,925.1240333998576,925.1240333998576,925.1240333998576,925.1240333998576,925.1240333998576,925.4208335999865,925.4208335999865,927.2653658997733,927.2653658997733,927.2653658997733,927.2653658997733,927.2653658997733,927.2653658997733,927.2653658997733,927.2653658997733,927.2653658997733,927.2653658997733,927.2653658997733,927.2653658997733,927.2653658997733,927.2653658997733,927.2653658997733,927.2653658997733,927.2653658997733,929.7741776998155,929.7741776998155,929.7741776998155,929.7741776998155,929.7741776998155,38,44,28,77,77,48,5.0,1.3624989001546055,931.1541698998772,933.1159970997833,,,,,,,,,161,M,23,2023-04-03_17h39.13.859,RL,2022.2.4,59.98206537951064,
1,94,0,94,0,,,,,,,,,,None,933.1159970997833,933.1159970997833,933.1159970997833,933.1159970997833,933.1159970997833,933.1159970997833,j,0.32345460006035864,933.4674462999683,933.4674462999683,933.4674462999683,933.4674462999683,933.4674462999683,933.4674462999683,933.7644163998775,933.7644163998775,934.6284787999466,934.6284787999466,934.6284787999466,934.6284787999466,934.6284787999466,934.6284787999466,934.6284787999466,934.6284787999466,934.6284787999466,934.6284787999466,934.6284787999466,934.6284787999466,934.6284787999466,934.6284787999466,934.6284787999466,934.6284787999466,934.6284787999466,937.1380916999187,937.1380916999187,937.1380916999187,937.1380916999187,937.1380916999187,38,42,33,65,65,62,5.0,1.7780157001689076,938.9328460998368,940.4458464998752,,,,,,,,,161,M,23,2023-04-03_17h39.13.859,RL,2022.2.4,59.98206537951064,
1,95,0,95,0,,,,,,,,,,None,940.4458464998752,940.4458464998752,940.4458464998752,940.4458464998752,940.4458464998752,940.4458464998752,j,0.7990831001661718,941.2801706998143,941.2801706998143,941.2801706998143,941.2801706998143,941.2801706998143,941.2801706998143,941.5764464999083,941.5764464999083,942.7728694998659,942.7728694998659,942.7728694998659,942.7728694998659,942.7728694998659,942.7728694998659,942.7728694998659,942.7728694998659,942.7728694998659,942.7728694998659,942.7728694998659,942.7728694998659,942.7728694998659,942.7728694998659,942.7728694998659,942.7728694998659,942.7728694998659,945.2818389998283,945.2818389998283,945.2818389998283,945.2818389998283,945.2818389998283,42,39,28,73,73,79,3.0,0.946387599920854,946.246085499879,948.1418252999429,,,,,,,,,161,M,23,2023-04-03_17h39.13.859,RL,2022.2.4,59.98206537951064,
1,96,0,96,0,,,,,,,,,,None,948.1418252999429,948.1418252999429,948.1418252999429,948.1418252999429,948.1418252999429,948.1418252999429,j,0.3053300001192838,948.4755674998742,948.4755674998742,948.4755674998742,948.4755674998742,948.4755674998742,948.4755674998742,948.7734640999697,948.7734640999697,950.6516154999845,950.6516154999845,950.6516154999845,950.6516154999845,950.6516154999845,950.6516154999845,950.6516154999845,950.6516154999845,950.6516154999845,950.6516154999845,950.6516154999845,950.6516154999845,950.6516154999845,950.6516154999845,950.6516154999845,950.6516154999845,950.6516154999845,953.1607741999906,953.1607741999906,953.1607741999906,953.1607741999906,953.1607741999906,43,44,33,71,71,42,5.0,1.4783296000678092,954.6568115998525,956.4355577998795,,,,,,,,,161,M,23,2023-04-03_17h39.13.859,RL,2022.2.4,59.98206537951064,
1,97,0,97,0,,,,,,,,,,None,956.4355577998795,956.4355577998795,956.4355577998795,956.4355577998795,956.4355577998795,956.4355577998795,j,0.36570890014991164,956.8185145999305,956.8185145999305,956.8185145999305,956.8185145999305,956.8185145999305,956.8185145999305,957.1175059999805,957.1175059999805,958.1145990998484,958.1145990998484,958.1145990998484,958.1145990998484,958.1145990998484,958.1145990998484,958.1145990998484,958.1145990998484,958.1145990998484,958.1145990998484,958.1145990998484,958.1145990998484,958.1145990998484,958.1145990998484,958.1145990998484,958.1145990998484,958.1145990998484,960.6236432997975,960.6236432997975,960.6236432997975,960.6236432997975,960.6236432997975,46,42,27,75,75,79,4.0,0.8468828999903053,961.4880408998579,963.4828803997952,,,,,,,,,161,M,23,2023-04-03_17h39.13.859,RL,2022.2.4,59.98206537951064,
1,98,0,98,0,,,,,,,,,,None,963.4828803997952,963.4828803997952,963.4828803997952,963.4828803997952,963.4828803997952,963.4828803997952,j,0.44992699986323714,963.9669268999714,963.9669268999714,963.9669268999714,963.9669268999714,963.9669268999714,963.9669268999714,964.2645458998159,964.2645458998159,965.1956254998222,965.1956254998222,965.1956254998222,965.1956254998222,965.1956254998222,965.1956254998222,965.1956254998222,965.1956254998222,965.1956254998222,965.1956254998222,965.1956254998222,965.1956254998222,965.1956254998222,965.1956254998222,965.1956254998222,965.1956254998222,965.1956254998222,967.7043291998561,967.7043291998561,967.7043291998561,967.7043291998561,967.7043291998561,35,40,26,61,61,76,3.0,1.6446207000408322,969.3663817998022,971.3286546999589,,,,,,,,,161,M,23,2023-04-03_17h39.13.859,RL,2022.2.4,59.98206537951064,
1,99,0,99,0,,,,,,,,,,None,971.3286546999589,971.3286546999589,971.3286546999589,971.3286546999589,971.3286546999589,971.3286546999589,j,0.40004009986296296,971.7627718998119,971.7627718998119,971.7627718998119,971.7627718998119,971.7627718998119,971.7627718998119,972.0601204999257,972.0601204999257,973.9216388999484,973.9216388999484,973.9216388999484,973.9216388999484,973.9216388999484,973.9216388999484,973.9216388999484,973.9216388999484,973.9216388999484,973.9216388999484,973.9216388999484,973.9216388999484,973.9216388999484,973.9216388999484,973.9216388999484,973.9216388999484,973.9216388999484,976.4304596998263,976.4304596998263,976.4304596998263,976.4304596998263,976.4304596998263,41,48,35,61,61,81,2.0,0.9633059999905527,977.4110645998735,978.9908568998799,,,,,,,,,161,M,23,2023-04-03_17h39.13.859,RL,2022.2.4,59.98206537951064,
1,100,0,100,0,,,,,,,,,,None,978.9908568998799,978.9908568998799,978.9908568998799,978.9908568998799,978.9908568998799,978.9908568998799,r,0.8982186999637634,979.9244310997892,979.9244310997892,979.9244310997892,979.9244310997892,979.9244310997892,979.9244310997892,980.2205619998276,980.2205619998276,982.1321023998316,982.1321023998316,982.1487918999046,982.1487918999046,982.1487918999046,982.1487918999046,982.1487918999046,982.1487918999046,982.1487918999046,982.1487918999046,982.1487918999046,982.1487918999046,982.1487918999046,982.1487918999046,982.1487918999046,982.1487918999046,982.1487918999046,984.6581419999711,984.6581419999711,984.6581419999711,984.6581419999711,984.6581419999711,49,45,34,66,49,83,2.0,1.5782049000263214,986.2533103998285,987.8334100998472,,,,,,,,,161,M,23,2023-04-03_17h39.13.859,RL,2022.2.4,59.98206537951064,
1,101,0,101,0,,,,,,,,,,None,987.8334100998472,987.8334100998472,987.8334100998472,987.8334100998472,987.8334100998472,987.8334100998472,f,0.330312900012359,988.1852563999128,988.1852563999128,988.1852563999128,988.1852563999128,988.1852563999128,988.1852563999128,988.4818334998563,988.4818334998563,990.2436689999886,990.2436689999886,990.2436689999886,990.2436689999886,990.2436689999886,990.2436689999886,990.2436689999886,990.2436689999886,990.2436689999886,990.2436689999886,990.2436689999886,990.2436689999886,990.2436689999886,990.2436689999886,990.2436689999886,990.2436689999886,990.2436689999886,992.752726299921,992.752726299921,992.752726299921,992.752726299921,992.752726299921,44,48,31,65,48,77,1.0,1.1454494998324662,993.9158423999324,995.5456580999307,,,,,,,,,161,M,23,2023-04-03_17h39.13.859,RL,2022.2.4,59.98206537951064,
1,102,0,102,0,,,,,,,,,,None,995.5456580999307,995.5456580999307,995.5456580999307,995.5456580999307,995.5456580999307,995.5456580999307,i,0.2185647999867797,995.7969150999561,995.7969150999561,995.7969150999561,995.7969150999561,995.7969150999561,995.7969150999561,996.0944189999718,996.0944189999718,997.7234004999045,997.7234004999045,997.7234004999045,997.7234004999045,997.7234004999045,997.7234004999045,997.7234004999045,997.7234004999045,997.7234004999045,997.7234004999045,997.7234004999045,997.7234004999045,997.7234004999045,997.7234004999045,997.7234004999045,997.7234004999045,997.7234004999045,1000.232239499921,1000.232239499921,1000.232239499921,1000.232239499921,1000.232239499921,43,46,39,66,39,49,1.0,1.212038799887523,1001.4619720999617,1003.3243429998402,,,,,,,,,161,M,23,2023-04-03_17h39.13.859,RL,2022.2.4,59.98206537951064,
1,103,0,103,0,,,,,,,,,,None,1003.3243429998402,1003.3243429998402,1003.3243429998402,1003.3243429998402,1003.3243429998402,1003.3243429998402,j,0.32634090003557503,1003.6753732999787,1003.6753732999787,1003.6753732999787,1003.6753732999787,1003.6753732999787,1003.6753732999787,1003.9726592998486,1003.9726592998486,1004.8534977999516,1004.8534977999516,1004.8534977999516,1004.8534977999516,1004.8534977999516,1004.8534977999516,1004.8534977999516,1004.8534977999516,1004.8534977999516,1004.8534977999516,1004.8534977999516,1004.8534977999516,1004.8534977999516,1004.8534977999516,1004.8534977999516,1004.8534977999516,1004.8534977999516,1007.3624135998543,1007.3624135998543,1007.3624135998543,1007.3624135998543,1007.3624135998543,35,36,26,72,72,84,4.0,1.4454105000477284,1008.8252352999989,1010.7207114999183,,,,,,,,,161,M,23,2023-04-03_17h39.13.859,RL,2022.2.4,59.98206537951064,
1,104,0,104,0,,,,,,,,,,None,1010.7207114999183,1010.7207114999183,1010.7207114999183,1010.7207114999183,1010.7207114999183,1010.7207114999183,j,0.28044710005633533,1011.0210395997856,1011.0210395997856,1011.0210395997856,1011.0210395997856,1011.0210395997856,1011.0210395997856,1011.3195942998864,1011.3195942998864,1012.2500660999212,1012.2500660999212,1012.2500660999212,1012.2500660999212,1012.2500660999212,1012.2500660999212,1012.2500660999212,1012.2500660999212,1012.2500660999212,1012.2500660999212,1012.2500660999212,1012.2500660999212,1012.2500660999212,1012.2500660999212,1012.2500660999212,1012.2500660999212,1012.2500660999212,1014.7590445999522,1014.7590445999522,1014.7590445999522,1014.7590445999522,1014.7590445999522,42,43,31,61,61,81,4.0,1.229067999869585,1016.0057968997862,1018.0009739999659,,,,,,,,,161,M,23,2023-04-03_17h39.13.859,RL,2022.2.4,59.98206537951064,
1,105,0,105,0,,,,,,,,,,None,1018.0009739999659,1018.0009739999659,1018.0009739999659,1018.0009739999659,1018.0009739999659,1018.0009739999659,j,0.2522545999381691,1018.2857891998719,1018.2857891998719,1018.2857891998719,1018.2857891998719,1018.2857891998719,1018.2857891998719,1018.582916499814,1018.582916499814,1020.1785509998444,1020.1785509998444,1020.1785509998444,1020.1785509998444,1020.1785509998444,1020.1785509998444,1020.1785509998444,1020.1785509998444,1020.1785509998444,1020.1785509998444,1020.1785509998444,1020.1785509998444,1020.1785509998444,1020.1785509998444,1020.1785509998444,1020.1785509998444,1020.1785509998444,1022.6878042998724,1022.6878042998724,1022.6878042998724,1022.6878042998724,1022.6878042998724,26,51,32,64,64,62,4.0,0.5805284001398832,1023.286004499998,1024.8156301998533,,,,,,,,,161,M,23,2023-04-03_17h39.13.859,RL,2022.2.4,59.98206537951064,
1,106,0,106,0,,,,,,,,,,None,1024.8156301998533,1024.8156301998533,1024.8156301998533,1024.8156301998533,1024.8156301998533,1024.8156301998533,j,0.6893695001490414,1025.5331551998388,1025.5331551998388,1025.5331551998388,1025.5331551998388,1025.5331551998388,1025.5331551998388,1025.8298377997708,1025.8298377997708,1027.0933175999671,1027.0933175999671,1027.0933175999671,1027.0933175999671,1027.0933175999671,1027.0933175999671,1027.0933175999671,1027.0933175999671,1027.0933175999671,1027.0933175999671,1027.0933175999671,1027.0933175999671,1027.0933175999671,1027.0933175999671,1027.0933175999671,1027.0933175999671,1027.0933175999671,1029.6019754998852,1029.6019754998852,1029.6019754998852,1029.6019754998852,1029.6019754998852,41,48,31,64,64,79,3.0,1.1464325999841094,1030.765640999889,1032.4284171999898,,,,,,,,,161,M,23,2023-04-03_17h39.13.859,RL,2022.2.4,59.98206537951064,
1,107,0,107,0,,,,,,,,,,None,1032.4284171999898,1032.4284171999898,1032.4284171999898,1032.4284171999898,1032.4284171999898,1032.4284171999898,j,0.23247340018860996,1032.6796743997838,1032.6796743997838,1032.6796743997838,1032.6796743997838,1032.6796743997838,1032.6796743997838,1032.9771663998254,1032.9771663998254,1034.1067961999215,1034.1067961999215,1034.1067961999215,1034.1067961999215,1034.1067961999215,1034.1067961999215,1034.1067961999215,1034.1067961999215,1034.1067961999215,1034.1067961999215,1034.1067961999215,1034.1067961999215,1034.1067961999215,1034.1067961999215,1034.1067961999215,1034.1067961999215,1034.1067961999215,1036.6163550999481,1036.6163550999481,1036.6163550999481,1036.6163550999481,1036.6163550999481,38,51,31,68,68,81,3.0,1.2460987998638302,1037.8793865998741,1039.8083699999843,,,,,,,,,161,M,23,2023-04-03_17h39.13.859,RL,2022.2.4,59.98206537951064,
1,108,0,108,0,,,,,,,,,,None,1039.8083699999843,1039.8083699999843,1039.8083699999843,1039.8083699999843,1039.8083699999843,1039.8083699999843,i,0.42376590007916093,1040.257456699852,1040.257456699852,1040.257456699852,1040.257456699852,1040.257456699852,1040.257456699852,1040.5564023999032,1040.5564023999032,1042.1022985999007,1042.1022985999007,1042.1022985999007,1042.1022985999007,1042.1022985999007,1042.1022985999007,1042.1022985999007,1042.1022985999007,1042.1022985999007,1042.1022985999007,1042.1022985999007,1042.1022985999007,1042.1022985999007,1042.1022985999007,1042.1022985999007,1042.1022985999007,1042.1022985999007,1044.610848199809,1044.610848199809,1044.610848199809,1044.610848199809,1044.610848199809,38,56,28,64,28,91,3.0,0.9629869998898357,1045.591907999944,1047.503523199819,,,,,,,,,161,M,23,2023-04-03_17h39.13.859,RL,2022.2.4,59.98206537951064,
1,109,0,109,0,,,,,,,,,,None,1047.503523199819,1047.503523199819,1047.503523199819,1047.503523199819,1047.503523199819,1047.503523199819,i,0.6477080001495779,1048.172111999942,1048.172111999942,1048.172111999942,1048.172111999942,1048.172111999942,1048.172111999942,1048.4678819999099,1048.4678819999099,1049.731086099986,1049.731086099986,1049.7480127997696,1049.7480127997696,1049.7480127997696,1049.7480127997696,1049.7480127997696,1049.7480127997696,1049.7480127997696,1049.7480127997696,1049.7480127997696,1049.7480127997696,1049.7480127997696,1049.7480127997696,1049.7480127997696,1049.7480127997696,1049.7480127997696,1052.2569030998275,1052.2569030998275,1052.2569030998275,1052.2569030998275,1052.2569030998275,46,51,33,63,33,77,1.0,0.8303140997886658,1053.1046347999945,1054.8005091999657,,,,,,,,,161,M,23,2023-04-03_17h39.13.859,RL,2022.2.4,59.98206537951064,
1,110,0,110,0,,,,,,,,,,None,1054.8005091999657,1054.8005091999657,1054.8005091999657,1054.8005091999657,1054.8005091999657,1054.8005091999657,i,0.27352520008571446,1055.1020052998792,1055.1020052998792,1055.1020052998792,1055.1020052998792,1055.1020052998792,1055.1020052998792,1055.3992743999697,1055.3992743999697,1056.8951176998671,1056.8951176998671,1056.8951176998671,1056.8951176998671,1056.8951176998671,1056.8951176998671,1056.8951176998671,1056.8951176998671,1056.8951176998671,1056.8951176998671,1056.8951176998671,1056.8951176998671,1056.8951176998671,1056.8951176998671,1056.8951176998671,1056.8951176998671,1056.8951176998671,1059.403966799844,1059.403966799844,1059.403966799844,1059.403966799844,1059.403966799844,44,50,36,61,36,47,1.0,0.6965982001274824,1060.1187695998233,1061.831262299791,,,,,,,,,161,M,23,2023-04-03_17h39.13.859,RL,2022.2.4,59.98206537951064,
1,111,0,111,0,,,,,,,,,,None,1061.831262299791,1061.831262299791,1061.831262299791,1061.831262299791,1061.831262299791,1061.831262299791,j,0.234665900003165,1062.0986404998694,1062.0986404998694,1062.0986404998694,1062.0986404998694,1062.0986404998694,1062.0986404998694,1062.3968577999622,1062.3968577999622,1064.4078698998783,1064.4078698998783,1064.4078698998783,1064.4078698998783,1064.4078698998783,1064.4078698998783,1064.4078698998783,1064.4078698998783,1064.4078698998783,1064.4078698998783,1064.4078698998783,1064.4078698998783,1064.4078698998783,1064.4078698998783,1064.4078698998783,1064.4078698998783,1064.4078698998783,1066.9169161999598,1066.9169161999598,1066.9169161999598,1066.9169161999598,1066.9169161999598,44,49,40,66,66,89,3.0,1.6773494998924434,1068.6126289998647,1070.5411664999556,,,,,,,,,161,M,23,2023-04-03_17h39.13.859,RL,2022.2.4,59.98206537951064,
1,112,0,112,0,,,,,,,,,,None,1070.5411664999556,1070.5411664999556,1070.5411664999556,1070.5411664999556,1070.5411664999556,1070.5411664999556,j,0.2599196000955999,1070.8273827999365,1070.8273827999365,1070.8273827999365,1070.8273827999365,1070.8273827999365,1070.8273827999365,1071.1231063997839,1071.1231063997839,1072.5693035998847,1072.5693035998847,1072.5855486998335,1072.5855486998335,1072.5855486998335,1072.5855486998335,1072.5855486998335,1072.5855486998335,1072.5855486998335,1072.5855486998335,1072.5855486998335,1072.5855486998335,1072.5855486998335,1072.5855486998335,1072.5855486998335,1072.5855486998335,1072.5855486998335,1075.0946864997968,1075.0946864997968,1075.0946864997968,1075.0946864997968,1075.0946864997968,42,51,46,62,62,60,4.0,0.9461976999882609,1076.0583373999689,1077.9042860998306,,,,,,,,,161,M,23,2023-04-03_17h39.13.859,RL,2022.2.4,59.98206537951064,
1,113,0,113,0,,,,,,,,,,None,1077.9042860998306,1077.9042860998306,1077.9042860998306,1077.9042860998306,1077.9042860998306,1077.9042860998306,j,0.22981729987077415,1078.156115199905,1078.156115199905,1078.156115199905,1078.156115199905,1078.156115199905,1078.156115199905,1078.452774599893,1078.452774599893,1080.0319084997755,1080.0319084997755,1080.0319084997755,1080.0319084997755,1080.0319084997755,1080.0319084997755,1080.0319084997755,1080.0319084997755,1080.0319084997755,1080.0319084997755,1080.0319084997755,1080.0319084997755,1080.0319084997755,1080.0319084997755,1080.0319084997755,1080.0319084997755,1080.0319084997755,1082.540911699878,1082.540911699878,1082.540911699878,1082.540911699878,1082.540911699878,44,53,48,57,57,52,4.0,0.6643791999667883,1083.2223810998257,1084.8019560999237,,,,,,,,,161,M,23,2023-04-03_17h39.13.859,RL,2022.2.4,59.98206537951064,
1,114,0,114,0,,,,,,,,,,None,1084.8019560999237,1084.8019560999237,1084.8019560999237,1084.8019560999237,1084.8019560999237,1084.8019560999237,j,0.4688923000358045,1085.3040666999295,1085.3040666999295,1085.3040666999295,1085.3040666999295,1085.3040666999295,1085.3040666999295,1085.6003106997814,1085.6003106997814,1086.531556399772,1086.531556399772,1086.531556399772,1086.531556399772,1086.531556399772,1086.531556399772,1086.531556399772,1086.531556399772,1086.531556399772,1086.531556399772,1086.531556399772,1086.531556399772,1086.531556399772,1086.531556399772,1086.531556399772,1086.531556399772,1086.531556399772,1089.039820499951,1089.039820499951,1089.039820499951,1089.039820499951,1089.039820499951,37,51,49,60,60,84,3.0,1.0790775001514703,1090.1367209998425,1092.1485363999382,,,,,,,,,161,M,23,2023-04-03_17h39.13.859,RL,2022.2.4,59.98206537951064,
1,115,0,115,0,,,,,,,,,,None,1092.1485363999382,1092.1485363999382,1092.1485363999382,1092.1485363999382,1092.1485363999382,1092.1485363999382,j,0.9139491999521852,1093.0810001997743,1093.0810001997743,1093.0810001997743,1093.0810001997743,1093.0810001997743,1093.0810001997743,1093.3789905998856,1093.3789905998856,1094.4423657997977,1094.4423657997977,1094.4423657997977,1094.4423657997977,1094.4423657997977,1094.4423657997977,1094.4423657997977,1094.4423657997977,1094.4423657997977,1094.4423657997977,1094.4423657997977,1094.4423657997977,1094.4423657997977,1094.4423657997977,1094.4423657997977,1094.4423657997977,1094.4423657997977,1096.951566599775,1096.951566599775,1096.951566599775,1096.951566599775,1096.951566599775,42,54,44,53,53,81,3.0,2.026595199946314,1098.996041999897,1100.791441499954,,,,,,,,,161,M,23,2023-04-03_17h39.13.859,RL,2022.2.4,59.98206537951064,
